# ================= DQRFIT RESULTS ================
# INPUT FILE: series/AGNS.rad
# OUTPUT: LDETRENDED
# FILTER FUNCTION: f(t)
# f(t)=+line(t)
# line(t)=+P 1+P 2*t
# heav(t)=(t<0?0:1)
# TOTAL OBSERVATIONS MTOT=  471
# INITIAL TIME INTERVAL= 2022.7488 - 2021.4620 =  1.2868
# TOTAL OBSERVATIONS AFTER PREFILTER M=  471
# TIME-SPAN= 2022.7488 - 2021.4620 =  1.2868
# OBSERVATIONS: USED M=   471 REJECTED MTOT-M=     0 %USED=  100.0000
# N=  2 PARAMETERS
# MAXSIG= 175.00000
# MAXRES=  17.01880
# SCALE FACTOR FOR LENGTHS: SCL=  10.00000
# SCALE FACTOR FOR SIGMAS: SCLSIG=   1.00000
# CHI^2=    698.656 DOF=   469 CHI^2/DOF=   1.48967
# RMS=      6.771 SDEV=      6.778 MEAN=   -0.02879
#  P #       PARAMETER +-    SIGMA %error PARAMETER NAME
# P 1 =     62662.83252 +- 1689.952   2.70 YZERO                              
# P 2 =         0.45359 +-    0.836 184.25 SLOPE                              
#       T            LDETRENDED       SIG_OBS
     2021.46201         0.49140         6.76046
     2021.46475        -0.39985         6.60668
     2021.46748         5.79391         6.65428
     2021.47022        -2.03633         6.77145
     2021.47296         7.84243         6.89716
     2021.47570        -1.32481         6.72385
     2021.47843        -1.24205         6.91181
     2021.48117        -6.38930         6.87153
     2021.48391        -4.63254         6.79342
     2021.48665        -1.07278         6.82759
     2021.48939         3.75098         6.59813
     2021.49212         6.25274         6.67747
     2021.49486        -4.18651         6.68235
     2021.49760        -1.36275         6.84956
     2021.50034        -0.70199         6.77755
     2021.50308         1.78677         6.76779
     2021.50581         0.24253         6.81051
     2021.50855        -3.81072         6.76291
     2021.51129        10.82904         6.74216
     2021.51403        -0.40920         6.71286
     2021.51676        -1.92644         6.60790
     2021.51950         1.14832         6.84956
     2021.52224         0.30208         6.75802
     2021.52498         4.07083         6.75314
     2021.52772       -11.08541         6.67625
     2021.53045        -2.41965         6.75924
     2021.53319         1.05211         6.72385
     2021.53593        -9.86613         6.84834
     2021.53867         4.31362         7.28407
     2021.54141        -5.59462         6.98504
     2021.54414        -3.44286         6.89350
     2021.54688        -4.24110         6.74094
     2021.54962        -4.57234         6.74094
     2021.55236         1.34241         6.72629
     2021.55509         3.63417         6.87031
     2021.55783        -0.37707         6.84468
     2021.56057         4.32769         6.67137
     2021.56331         2.40545         6.73483
     2021.56605         0.68221         6.74704
     2021.56878        -2.87304         7.00213
     2021.57152         0.64572         7.01311
     2021.57426       -10.33852         6.84346
     2021.57700         7.21124         6.86665
     2021.57974         0.12400         7.05827
     2021.58247       -12.04625         6.77633
     2021.58521        -1.92849         6.85689
     2021.58795        -4.17973         6.76657
     2021.59069        -2.65597         6.77511
     2021.59342        -3.64921         6.83492
     2021.59616        -2.64646         6.92401
     2021.59890        -0.17170         6.65916
     2021.60164        -0.23694         6.94842
     2021.60438         4.42382         6.78487
     2021.60711         1.28358         6.73483
     2021.60985        -0.56766         6.73605
     2021.61259         2.88409         6.63963
     2021.61533         1.63685         6.60058
     2021.61807         1.96361         6.82881
     2021.62080         2.12437         6.64574
     2021.62354         0.78213         6.89472
     2021.62628         7.07288         7.00701
     2021.62902         4.07664         6.81051
     2021.63175        -5.39460         6.91913
     2021.63449        -0.04584         7.19863
     2021.63723         7.98792         7.10587
     2021.63997         2.83067         6.74704
     2021.64271        12.53243         6.79342
     2021.64544        -1.15081         6.67381
     2021.64818         2.18695         6.71775
     2021.65092         3.89371         6.65916
     2021.65366         3.05247         6.73849
     2021.65639         3.88722         6.70920
     2021.65913        -0.46402         6.79708
     2021.66187         5.83674         6.71653
     2021.66461         6.89250         6.66038
     2021.66735         6.92126         6.63719
     2021.67008         6.94701         6.74094
     2021.67282         4.03277         6.97528
     2021.67556        -0.89947         7.02532
     2021.67830        -4.37571         6.89838
     2021.68104         5.72005         6.72141
     2021.68377         3.37980         6.77511
     2021.68651         6.01556         7.22670
     2021.68925         8.14432         6.76168
     2021.69199         2.15308         6.91547
     2021.69472         3.86484         6.70676
     2021.69746         5.56460         6.68479
     2021.70020        10.31135         6.66526
     2021.70294         5.85811         6.65306
     2021.70568         1.66587         6.75558
     2021.70841        11.48863         6.81539
     2021.71115         2.46139         6.70554
     2021.71389        -0.66886         6.88252
     2021.71663        -1.95810         6.75436
     2021.71937         5.18166         6.70310
     2021.72210         0.03242         6.65672
     2021.72484        -0.97582         6.86543
     2021.72758         3.46094         6.72873
     2021.73032        -4.11931         7.02410
     2021.73305         4.60345         6.71408
     2021.73579        10.80821         6.75314
     2021.73853         5.46697         6.93012
     2021.74127         7.70773         6.72385
     2021.74401         2.98448         6.66770
     2021.74674         8.83124         6.81417
     2021.74948        10.26700         6.85322
     2021.75222         6.93476         6.70554
     2021.75496        10.43852         6.77511
     2021.75770         2.40027         6.70676
     2021.76043         0.88203         7.25478
     2021.76317         9.65479         6.78243
     2021.76591         4.36255         6.74704
     2021.76865        -3.25669         6.69578
     2021.77138         3.87707         6.63719
     2021.77412         9.69382         6.76901
     2021.77686        10.99158         6.78243
     2021.77960         2.14234         6.76657
     2021.78234        -1.16790         6.75924
     2021.78507         8.62686         6.67137
     2021.78781         5.85361         6.63231
     2021.79055         7.48737         6.67015
     2021.79329         6.08313         6.74948
     2021.79603         8.15889         6.63719
     2021.79876        10.03865         6.88618
     2021.80150         4.28540         6.90693
     2021.80424         4.23016         7.38903
     2021.80698         0.37792         6.78610
     2021.80971         2.23168         6.76291
     2021.81245        11.08944         7.30238
     2021.81519        13.28320         6.80318
     2021.81793         5.94695         6.74948
     2021.82067         5.37171         6.92279
     2021.82340         7.24047         6.74338
     2021.82614         1.79823         6.79098
     2021.82888        10.21599         6.97039
     2021.83162        10.31674         6.85078
     2021.83436        11.56150         6.92035
     2021.83709         1.70626         6.79220
     2021.83983         7.15402         6.91669
     2021.84257         6.40978         7.07048
     2021.84531         4.85853         6.91181
     2021.84804         6.56829         6.93866
     2021.85078         1.19005         6.84834
     2021.85352         1.78881         6.65916
     2021.85626        12.17457         6.81417
     2021.85900         2.39433         6.64818
     2021.86173         7.29408         6.65306
     2021.86447         0.58384         6.83736
     2021.86721        -0.87640         6.94720
     2021.86995         4.24636         7.07536
     2021.87269        11.34312         7.09977
     2021.87542         1.91187         6.74704
     2021.87816        -5.56837         6.67015
     2021.88090        -7.44661         7.09489
     2021.88364        -1.94985         6.72141
     2021.88637        -2.47609         6.64329
     2021.88911        -4.72334         6.63597
     2021.89185        -3.29158         6.70554
     2021.89459        -2.43682         6.84102
     2021.89733        -3.06206         6.67015
     2021.90006        -4.97930         6.69211
     2021.90280        -5.32954         6.79464
     2021.90554        -9.17179         6.68479
     2021.90828         2.86697         6.65794
     2021.91102         3.53473         6.71775
     2021.91375        -0.55151         6.72995
     2021.91649         3.77325         6.64574
     2021.91923         4.07300         6.86543
     2021.92197        -5.45124         6.97772
     2021.92470        -6.83548         6.78365
     2021.92744        -1.91972         6.93134
     2021.93018        -9.18996         6.87641
     2021.93292         4.56879         7.02288
     2021.93566         9.57955         7.09245
     2021.93839        -2.21269         6.91791
     2021.94113         4.72607         7.11564
     2021.94387         6.44183         6.94964
     2021.94661         1.03859         6.85811
     2021.94935         0.75734         6.83247
     2021.95208         1.88510         6.86787
     2021.95482         1.41286         6.97772
     2021.95756         5.96162         6.97894
     2021.96030        -1.08262         6.96673
     2021.96303         3.28113         6.95941
     2021.96577         5.62589         6.97161
     2021.96851         9.75865         7.08390
     2021.97125        -3.67459         7.05217
     2021.97399         8.11617         7.05583
     2021.97672         4.52892         7.08390
     2021.97946         1.47668         6.94232
     2021.98220         1.41044         6.95209
     2021.98494        -1.41680         7.03386
     2021.98767        -6.69604         6.96185
     2021.99041         2.00772         6.81051
     2021.99315         1.25147         6.82637
     2021.99589         1.17223         6.77389
     2021.99863        -8.06801         6.92401
     2022.00136         0.63675         6.75924
     2022.00410         0.75551         6.83125
     2022.00684        -1.21674         6.92401
     2022.00958       -15.63298         6.84590
     2022.01232       -14.23522         7.01921
     2022.01505         2.17154         6.84834
     2022.01779        -0.08470         6.91181
     2022.02053        -4.53894         6.81295
     2022.02327        -6.10119         7.25966
     2022.02600        -8.48443         6.92890
     2022.02874        -6.46667         7.01067
     2022.03148       -13.52191         6.85444
     2022.03422        -4.50315         6.99725
     2022.03696        -6.43740         6.80440
     2022.03969       -12.71564         6.83125
     2022.04243        -3.83088         6.74094
     2022.04517        -4.46112         6.84468
     2022.04791        -5.29336         6.81295
     2022.05065        -6.03861         6.83980
     2022.05338       -11.33085         6.92645
     2022.05612       -12.83509         6.86665
     2022.05886       -14.73633         6.76779
     2022.06160       -12.11657         6.82759
     2022.06433        -6.36381         6.78243
     2022.06707        -8.85506         6.89716
     2022.06981        -3.53730         6.84834
     2022.07255       -12.25354         6.71653
     2022.07529        -7.08378         6.66893
     2022.07802        -5.02502         6.72873
     2022.08076        -0.88627         6.75558
     2022.08350        -0.90851         6.78487
     2022.08624        -3.03075         6.72751
     2022.08898        -0.60499         6.80562
     2022.09171       -10.90023         6.73361
     2022.09445        -8.45848         6.73727
     2022.09719       -11.06372         6.69700
     2022.09993        -7.30996         6.89106
     2022.10266       -14.06420         6.98260
     2022.10540        -4.53144         6.82027
     2022.10814        -0.54668         6.93866
     2022.11088        -6.11293         6.71164
     2022.11362         0.34283         6.67381
     2022.11635        -0.82641         6.70676
     2022.11909        -3.01065         6.79342
     2022.12183       -12.29589         6.83614
     2022.12457         1.63886         6.85811
     2022.12731        -5.61238         6.81173
     2022.13004        -8.42962         6.69089
     2022.13278        -8.72086         6.84346
     2022.13552        -4.79810         6.69578
     2022.13826        -6.26535         6.71408
     2022.14099        -8.08859         6.74948
     2022.14373        -7.91783         6.68723
     2022.14647        -3.52207         6.69578
     2022.14921         0.73569         6.96795
     2022.15195        -7.98055         7.01921
     2022.15468        -1.19280         6.74460
     2022.15742        -3.39804         6.79952
     2022.16016        -1.54528         6.80562
     2022.16290        -0.78152         6.82759
     2022.16564        -1.67576         6.64818
     2022.16837        -1.45401         6.70188
     2022.17111        -5.18025         6.66526
     2022.17385        -5.12549         6.67259
     2022.17659        -4.17073         6.72751
     2022.17932        -5.08397         6.68479
     2022.18206        -2.87822         6.82149
     2022.18480        -7.99346         6.71897
     2022.18754        -0.40570         6.87763
     2022.19028       -10.02894         6.81661
     2022.19301         2.65382         6.89960
     2022.19575        -0.85242         6.71042
     2022.19849        -8.02367         6.69089
     2022.20123         0.17709         6.77511
     2022.20397         1.84185         6.67869
     2022.20670        -1.92839         6.89228
     2022.20944        -3.79463         6.89716
     2022.21218         0.70112         6.74948
     2022.21492        -8.16912         6.69089
     2022.21765        -5.39336         6.68845
     2022.22039        -3.91060         6.72263
     2022.22313        -3.36184         6.79952
     2022.22587        -3.99409         6.90571
     2022.22861        -4.20533         6.91303
     2022.23134         2.00943         6.77877
     2022.23408         5.38119         6.75924
     2022.23682         2.19195         6.86421
     2022.23956        -3.36929         6.74094
     2022.24230        -2.67254         6.81417
     2022.24503         7.62522         6.84468
     2022.24777         6.54298         6.91913
     2022.25051        -6.45426         6.78365
     2022.25325        -0.16550         6.72995
     2022.25598        -6.85075         6.79708
     2022.25872        -0.13999         6.69822
     2022.26146        -0.41523         6.69944
     2022.26420         2.29853         6.77633
     2022.26694         6.42629         6.94476
     2022.26967         1.34405         6.71897
     2022.27241         5.88480         6.82271
     2022.27515        -2.93144         7.04240
     2022.27789         0.30832         6.84468
     2022.28062        -8.59492         6.76413
     2022.28336         0.84784         6.71775
     2022.28610        -0.95141         7.11686
     2022.28884         2.48135         6.83492
     2022.29158        -8.78089         6.77999
     2022.29431        -1.90913         6.76413
     2022.29705        -3.82937         7.07414
     2022.29979         0.39138         6.84956
     2022.30253         2.82514         6.85078
     2022.30527         0.00490         6.89228
     2022.30800        -3.69634         6.82027
     2022.31074        -1.69558         6.85078
     2022.31348         2.07918         6.77023
     2022.31622        -3.12607         6.71408
     2022.31895       -19.64731         7.18765
     2022.32169        -3.47355         9.91673
     2022.32443        -6.94579         6.81295
     2022.32717        -3.47603         6.87397
     2022.32991        -2.77528         9.95701
     2022.33264       -12.83752         7.16446
     2022.33538        -0.69276         6.93866
     2022.33812        -2.05800         6.94232
     2022.34086         3.04576         6.68601
     2022.34360        -0.68849         6.87031
     2022.34633        -1.99173         6.77877
     2022.34907        -4.71297         6.68845
     2022.35181        -3.47021         6.67625
     2022.35455        -3.21045         6.63719
     2022.35728        -5.92369         6.64574
     2022.36002        -4.29094         6.77023
     2022.36276         3.37182         6.70676
     2022.36550        -3.19242         6.64451
     2022.36824         0.20434         6.77023
     2022.37097        -6.43890         6.63719
     2022.37371        -7.74915         6.73727
     2022.37645       -10.91439         6.85566
     2022.37919        -0.04863         6.86909
     2022.38193        -2.84687         6.80928
     2022.38466        -9.09411         6.87275
     2022.38740       -23.43536         6.99480
     2022.39014       -10.34560         6.82515
     2022.39288        -9.73984         6.77145
     2022.39561       -10.68908         6.93378
     2022.39835        -5.38432         6.71408
     2022.40109        -9.55056         6.67259
     2022.40383        -2.16381         6.65428
     2022.40657        -4.25405         6.57617
     2022.40930       -10.87029         6.74216
     2022.41204         2.37147         6.74826
     2022.41478        -6.62177         6.69822
     2022.41752         0.16798         6.80806
     2022.42026       -11.93326         6.95087
     2022.42299         0.17550         6.61400
     2022.42573        -1.03174         7.03874
     2022.42847        -5.00498         6.60180
     2022.43121        -2.30423         6.80074
     2022.43394         2.89353         6.85811
     2022.43668        -4.78371         6.66893
     2022.43942        -4.57395         6.74216
     2022.44216        -4.61119         6.68967
     2022.44490         5.11457         6.92768
     2022.44763         6.37832         6.58105
     2022.45037        -1.89492         6.58227
     2022.45311        -6.10316         6.84346
     2022.45585        -4.42640         6.71897
     2022.45859       -18.04264         6.63841
     2022.46132        -7.59589         6.56762
     2022.46406       -14.14213         6.74826
     2022.46680        -3.36337         6.67015
     2022.46954       -11.65261         6.67625
     2022.47227       -13.49285         6.60424
     2022.47501         1.80790         6.72507
     2022.47775         3.35966         6.85811
     2022.48049        -6.82958         6.60668
     2022.48323         9.16318         6.72141
     2022.48596         4.08894         6.67259
     2022.48870        -7.80330         6.68235
     2022.49144        -5.65355         6.62255
     2022.49418        -8.83479         6.76779
     2022.49692        -2.66803         6.62865
     2022.49965       -11.75127         6.73972
     2022.50239       -21.90751         6.68723
     2022.50513        -6.13076         7.09489
     2022.50787         2.65200         7.08268
     2022.51060       -11.95524         6.87641
     2022.51334        -1.45748         6.71653
     2022.51608        -8.05472         6.75436
     2022.51882       -10.41597         6.63841
     2022.52156        -8.61621         6.78854
     2022.52429         2.28255         6.62377
     2022.52703         1.64131         6.63353
     2022.52977         4.35707         6.86543
     2022.53251        -1.13617         6.71286
     2022.53525       -10.71742         6.76291
     2022.53798       -10.61966         6.92645
     2022.54072        -5.22890         6.60668
     2022.54346         1.25886         6.60668
     2022.54620        -2.21838         6.75314
     2022.54893        -1.53763         6.62743
     2022.55167        -0.75987         6.64818
     2022.55441        -2.52611         6.76291
     2022.55715        10.79465         6.88862
     2022.55989         4.71141         6.62499
     2022.56262         1.91117         6.70554
     2022.56536       -10.64208         6.64574
     2022.56810        -0.47232         6.63597
     2022.57084        -3.34556         6.69944
     2022.57357         0.19920         6.75558
     2022.57631        -4.15204         6.66404
     2022.57905        -7.14929         6.62132
     2022.58179         1.35747         6.65428
     2022.58453        11.64723         6.93988
     2022.58726        -2.52901         6.83492
     2022.59000         0.74375         6.91303
     2022.59274        -8.49050         6.59813
     2022.59548        -0.39274         6.76779
     2022.59822        -9.09398         6.58471
     2022.60095       -10.17822         6.68845
     2022.60369         2.16454         6.60180
     2022.60643         2.81430         6.62499
     2022.60917        -1.49095         6.72263
     2022.61190         7.54981         6.67747
     2022.61464         4.96657         6.62255
     2022.61738         7.56133         6.64329
     2022.62012        -0.77091         6.69211
     2022.62286         4.24784         6.64818
     2022.62559         2.86360         6.54565
     2022.62833         5.44336         6.60546
     2022.63107         3.34912         6.65428
     2022.63381         8.57088         6.60058
     2022.63655         6.08363         6.55664
     2022.63928         5.96439         6.61644
     2022.64202         3.00015         7.02898
     2022.64476         9.70991         7.11442
     2022.64750        10.29467         6.69211
     2022.65023         7.47743         6.82393
     2022.65297        16.56018         6.92890
     2022.65571         8.95394         6.88374
     2022.65845         8.96970         6.53101
     2022.66119         4.98546         6.53345
     2022.66392         8.25922         6.53467
     2022.66666         5.49997         6.49561
     2022.66940        15.27573         6.50782
     2022.67214         5.65949         6.60668
     2022.67488         5.72025         6.49439
     2022.67761        10.90901         6.56396
     2022.68035        13.95876         6.56762
     2022.68309        15.95952         6.70188
     2022.68583        16.72928         6.90937
     2022.68856        10.91504         6.68723
     2022.69130        17.01880         6.74826
     2022.69404         7.24456         6.88740
     2022.69678         8.88131         6.83125
     2022.69952         1.69707         6.63597
     2022.70225        11.87983         6.80440
     2022.70499        10.71959         6.78243
     2022.70773         8.27935         6.67503
     2022.71047         9.84010         6.53467
     2022.71321        16.08286         6.50293
     2022.71594        13.25962         6.55542
     2022.71868         9.49538         6.63719
     2022.72142        13.04414         6.62255
     2022.72416         6.82189         6.64329
     2022.72689        15.79265         6.62621
     2022.72963        14.28741         6.55298
     2022.73237         8.49617         6.58715
     2022.73511         6.52693         6.53589
     2022.73785         9.16669         6.57372
     2022.74058         4.27944         7.14005
     2022.74332        12.49820         6.84590
     2022.74606        13.45396         6.64818
     2022.74880         8.35372         6.51026
