# ================= DQRFIT RESULTS ================
# INPUT FILE: series/ASBU.rad
# OUTPUT: LDETRENDED
# FILTER FUNCTION: f(t)
# f(t)=+line(t)+annual(t)
# line(t)=+P 1+P 2*t
# annual(t)=+P 3*sin(2*pi*t+P 4)
# heav(t)=(t<0?0:1)
# TOTAL OBSERVATIONS MTOT= 3420
# INITIAL TIME INTERVAL= 2022.7488 - 2011.6304 = 11.1184
# TOTAL OBSERVATIONS AFTER PREFILTER M= 3413
# TIME-SPAN= 2022.7488 - 2011.6304 = 11.1184
# OBSERVATIONS: USED M=  3413 REJECTED MTOT-M=     7 %USED=   99.7953
# N=  4 PARAMETERS
# MAXSIG= 175.00000
# MAXRES=  30.60918
# SCALE FACTOR FOR LENGTHS: SCL=  10.00000
# SCALE FACTOR FOR SIGMAS: SCLSIG=   1.00000
# CHI^2=   4198.791 DOF=  3409 CHI^2/DOF=   1.23168
# RMS=      6.613 SDEV=      6.613 MEAN=    0.15042
#  P #       PARAMETER +-    SIGMA %error PARAMETER NAME
# P 1 =      2039.00605 +-   69.947   3.43 YZERO                              
# P 2 =        -1.01128 +-    0.035   3.43 SLOPE                              
# P 3 =         5.20890 +-    0.158   3.04 ANNUAL AMPLITUDE                   
# P 4 =         3.02533 +-    0.043   1.41 ANNUAL PHASE                       
#       T            LDETRENDED       SIG_OBS
     2011.63039         7.31875         6.83865
     2011.63312         8.23252         7.23041
     2011.63586         8.75529         6.86306
     2011.63860         4.04605         7.14607
     2011.64134         3.25082         7.18269
     2011.64407         9.66559         6.98847
     2011.64681        -7.66864         7.05839
     2011.64955         7.47013         7.16493
     2011.65229        -0.01510         7.01178
     2011.65503        -1.22033         6.96961
     2011.65776         1.01944         6.90635
     2011.66050         0.22520         7.22264
     2011.66324         1.72197         7.07393
     2011.66598         0.20574         6.93187
     2011.66872         1.06151         7.02954
     2011.67145         7.14428         6.90302
     2011.67419         8.43205         6.86417
     2011.67693        15.60682         7.24373
     2011.67967         5.37359         7.02066
     2011.68240        11.94835         7.03509
     2011.68514         5.15712         6.91523
     2011.68788        11.49189         6.96406
     2011.69062        11.02966         6.99069
     2011.69337        10.35845         6.91412
     2011.69609         3.10820         6.86195
     2011.69883         5.82097         6.93076
     2011.70157         6.32074         6.95407
     2011.70431        10.31850         6.95074
     2011.70705        -4.54573         7.09723
     2011.70978         7.98604         7.02288
     2011.71252        -2.30719         6.87194
     2011.71526        -4.91342         7.21265
     2011.71800         4.10935         7.00956
     2011.72073         3.80512         6.92299
     2011.72347         8.67989         6.85974
     2011.72621         8.41065         6.82866
     2011.72895        11.36042         6.73322
     2011.73169        19.67719         7.00068
     2011.73442         4.46996         6.89747
     2011.73716         8.38373         6.86306
     2011.73990        -3.98650         6.73988
     2011.74264         9.92627         6.82422
     2011.74538        13.61103         6.92299
     2011.74811        13.71280         6.85752
     2011.75085        10.51457         6.76873
     2011.75359         7.35934         6.72767
     2011.75633         4.24711         6.78538
     2011.75906        23.75088         6.91856
     2011.76180         9.42565         6.77206
     2011.76446         0.49634         7.13164
     2011.76728         2.47418         6.66441
     2011.77002         1.75395         6.87416
     2011.77275        17.08772         7.15716
     2011.77549        16.96149         6.96295
     2011.77823        -1.75674         6.76873
     2011.78097         2.91003         7.06172
     2011.78371         8.24280         6.81312
     2011.78644        17.23257         6.79093
     2011.78918        23.40233         6.96406
     2011.79192         3.99010         7.01400
     2011.79466         2.02187         7.00179
     2011.79739        10.87664         6.95074
     2011.80013         9.22341         6.71657
     2011.80287         2.97318         6.77539
     2011.80561         0.36995         6.95740
     2011.80835        -4.41028         6.93409
     2011.81108        13.11848         6.95629
     2011.81382        -2.36375         6.79315
     2011.81656        -0.07898         6.66885
     2011.81930         5.29679         6.94519
     2011.82203         7.55056         6.93298
     2011.86858        10.54863         6.83088
     2011.87132        -0.45660         6.71990
     2011.87405         1.06117         6.67995
     2011.87679        12.91193         6.85752
     2011.87953         5.22570         6.71324
     2011.88227         4.99647         6.73211
     2011.88501        11.32224         6.64665
     2011.88774         3.37301         6.72989
     2011.89048        14.75578         7.02399
     2011.89322         7.19355         6.81423
     2011.89596         2.62432         6.86639
     2011.89869         3.02908         6.99513
     2011.90023       -19.44936        21.35052
     2011.90306        -3.08750        17.96560
     2011.90691         0.08539         6.75652
     2011.90965        -4.61984         6.80424
     2011.91200        12.66754         8.56551
     2011.91404        -7.74940        15.99791
     2011.91786        -0.11353         7.04951
     2011.91969         0.29232        11.97596
     2011.92334        -5.56700         6.79204
     2011.92607        -1.74223         6.71990
     2011.92881        -0.39146         6.92077
     2011.93155         1.33431         6.96517
     2011.93429        -1.51992         6.85197
     2011.93702         7.12285         6.74432
     2011.93976        10.75562         6.64443
     2011.94250         6.91638         6.72323
     2011.94524         3.20815         6.52013
     2011.94798         7.44592         6.54011
     2011.95071         7.50069         6.68550
     2011.95345        10.41646         6.88082
     2011.95893         0.47100         6.72101
     2011.96167         0.56577         6.86750
     2011.96440         8.64753         6.67662
     2011.96714         7.86330         6.56120
     2011.96988         6.77907         6.52013
     2011.97262         1.89884         6.47796
     2011.97535        -1.33339         6.68550
     2011.97809         0.87338         6.63111
     2011.98073         5.98105         6.84198
     2011.98631         7.52768         6.76096
     2011.98904        16.43045         6.87305
     2011.99178        14.44522         6.86195
     2011.99452        11.82399         6.78316
     2011.99726        -6.82924         6.55898
     2012.00273        12.31630         6.78094
     2012.00547         3.37407         6.78316
     2012.00821         4.71083         6.61891
     2012.01095         9.83860         6.62446
     2012.01368         6.16737         6.56342
     2012.30870       -19.26929        10.25242
     2012.31211         8.99716         7.11166
     2012.31485         2.99293         6.87527
     2012.31759         4.14170         6.79648
     2012.32032        -3.91553         6.89858
     2012.32306        -9.83976         6.79204
     2012.32580        -8.79199         6.72767
     2012.32854         0.87278         6.83532
     2012.33128        -6.21245         6.73322
     2012.33401        -3.00369         6.84420
     2012.33675        -5.67592         6.91967
     2012.33949        -2.26815         6.61336
     2012.34223        -8.06538         6.72767
     2012.34496        -5.54461         6.75652
     2012.34770        -9.07184         6.80646
     2012.35019       -15.12733         7.48900
     2012.35318       -12.44830         6.88415
     2012.35592        -6.37554         6.63666
     2012.35865        -2.22577         6.56009
     2012.36139        -4.17600         6.72101
     2012.36413        -5.96623         6.68328
     2012.36687        -8.35546         6.73877
     2012.36961        -0.34269         6.63222
     2012.37234         1.21408         6.75430
     2012.37508         3.46485         6.59671
     2012.37711        -8.24410         9.41785
     2012.38056        -7.43662         6.57673
     2012.38278       -11.93637         8.63543
     2012.38603        -5.54908         6.84864
     2012.38877         5.21069         7.05617
     2012.39151       -11.47454         6.94408
     2012.39425         2.96023         6.78094
     2012.39698        -6.00101         7.04618
     2012.39972         0.81876         6.86085
     2012.40144       -24.35550        14.27881
     2012.40520        -5.41170         6.57895
     2012.40794        -7.83693         6.74321
     2012.41067        -4.47516         6.77761
     2012.41341        -7.08739         6.69215
     2012.41615        -4.21262         6.79093
     2012.41889         6.64314         6.86528
     2012.42162         4.59691         6.75319
     2012.42436         9.50268         6.85863
     2012.42710        -0.50955         6.81756
     2012.42984         3.64322         6.65442
     2012.43258        -4.31901         6.79315
     2012.43531        -2.21824         6.68217
     2012.43805        -4.73047         6.74986
     2012.44061       -10.39089         7.15494
     2012.44353       -10.15194         6.79426
     2012.44626        -4.59517         6.90191
     2012.44900        -8.20140         6.78871
     2012.45169        -2.37068         6.94408
     2012.45436        -3.99998         7.05839
     2012.45721        -4.34710         6.88193
     2012.45995         2.23968         7.06283
     2012.46269        -3.53356         6.69437
     2012.46543        -3.55979         6.58117
     2012.46817        -0.37002         6.72989
     2012.47091        -0.25025         6.88859
     2012.47364        -0.88848         6.77095
     2012.47638        -2.25971         6.85308
     2012.47844       -11.33663         9.58210
     2012.48186        -3.04517         6.83532
     2012.48364        -8.75237        13.08910
     2012.48733       -12.40964         6.71990
     2012.49007        -2.24687         6.86639
     2012.49281         1.43190         6.70103
     2012.49555         3.10667         6.80313
     2012.49828        -4.17556         6.93742
     2012.50102        -3.67979         6.84420
     2012.50376         0.93398         6.84087
     2012.50650         0.89474         6.68550
     2012.50924         6.55651         6.75763
     2012.51197        -3.07572         6.82422
     2012.51471        -1.32395         6.97959
     2012.51745         4.51682         7.02066
     2012.52019        -6.82041         7.18602
     2012.52292         0.23236         6.86972
     2012.52566         4.34113         6.82089
     2012.52840         6.10689         7.00068
     2012.53114        -1.85034         7.02621
     2012.53388         7.07043         6.94519
     2012.53661         7.07120         6.92521
     2012.53935         1.64997         6.79648
     2012.54209         4.21274         6.87971
     2012.54483         1.82351         6.68217
     2012.54757        -1.27572         6.95629
     2012.55030         3.38704         6.86639
     2012.55304         8.48681         6.86528
     2012.55578         5.78858         6.87416
     2012.55852        -5.20365         6.65442
     2012.56125         1.91612         6.73211
     2012.56399        -4.54411         6.73544
     2012.56673         1.70666         6.74099
     2012.56947        10.04343         6.73655
     2012.57221         2.80319         6.81090
     2012.57494        -4.98304         6.70214
     2012.57768        -1.38427         6.84753
     2012.58042        -1.62850         6.99291
     2012.58316        -5.58973         6.80203
     2012.58590        -0.83996         6.82977
     2012.58863         2.33281         6.65886
     2012.59137        -0.06742         6.75652
     2012.59411         3.57434         6.75208
     2012.59636       -10.16038         9.15815
     2012.59958         3.35688         6.88304
     2012.60232         2.68265         6.93298
     2012.60506         3.49042         6.75430
     2012.60780         3.15019         6.75430
     2012.61054         8.90996         6.71657
     2012.61327         3.17273         6.80868
     2012.61601         5.89449         6.78538
     2012.61875        13.30826         6.75985
     2012.62149        14.33603         6.89303
     2012.62423        10.19880         6.80203
     2012.62696        -0.89343         6.81645
     2012.62970         2.45434         6.86861
     2012.63244         6.45411         6.72101
     2012.63518        11.63488         6.85419
     2012.63791         2.82964         6.89636
     2012.64065         6.22641         6.76873
     2012.64339        10.81518         6.83088
     2012.64613        11.50395         6.78094
     2012.64887        10.36072         6.70658
     2012.65160         8.67649         6.81867
     2012.65434        -0.60974         7.11721
     2012.65708         5.90403         6.95851
     2012.65982         4.39179         6.97183
     2012.66256         9.49056         6.75652
     2012.66529        10.59433         6.82644
     2012.66803        -1.20990         6.74210
     2012.67077         7.32487         6.71102
     2012.67351        10.83364         6.82755
     2012.67624         5.00141         6.65775
     2012.67898        15.12218         6.69770
     2012.68172         8.96394         6.69992
     2012.68446         2.00571         6.79093
     2012.68720        12.65748         6.65442
     2012.68993        14.07225         6.66108
     2012.69267         6.40002         6.83976
     2012.69541        -1.21021         6.69992
     2012.69815        -1.45244         6.72545
     2012.70089        -0.74067         6.68660
     2012.70362         5.24809         6.75319
     2012.70636         9.48286         6.69992
     2012.70910        10.66563         6.75430
     2012.71184         4.49740         6.82755
     2012.71457         6.84217         6.60448
     2012.71731        13.54094         6.70436
     2012.72005        12.73271         6.67662
     2012.72279         6.19047         6.72434
     2012.72553         9.64324         6.66663
     2012.72826         7.75701         6.77650
     2012.73100         4.44678         6.78094
     2012.73374         2.99855         6.73433
     2012.73648         4.73132         6.50904
     2012.73921         8.03009         6.57673
     2012.74195        10.41386         6.61669
     2012.74469        12.67262         6.63444
     2012.74743        15.02939         6.62779
     2012.75017         6.27716         6.65553
     2012.75290         6.97493         6.80092
     2012.75564         0.09970         6.48462
     2012.75838         6.21547         6.72878
     2012.76112         9.12724         6.48018
     2012.76386         9.56401         6.60004
     2012.76659        11.12477         6.57340
     2012.76933         7.43354         6.63777
     2012.77207         6.63631         6.59671
     2012.77478        10.31105         6.57895
     2012.77742        10.46272         6.72545
     2012.78028        10.99662         6.62446
     2012.78302         9.92639         6.69992
     2012.78576        -0.19484         6.75874
     2012.78850        26.47992         6.71879
     2012.79123        29.44169         7.33029
     2012.79397        11.24746         6.71768
     2012.79671         6.12523         6.72434
     2012.79945        13.75700         6.95629
     2012.80219        23.81877         6.71102
     2012.80492         6.54454         6.52901
     2012.80766        13.62931         6.90302
     2012.81040         9.63207         6.71213
     2012.81314         3.37184         6.68439
     2012.81587        -3.94439         6.68660
     2012.81861         5.15838         6.80313
     2012.82135        19.95115         6.98847
     2012.82409        24.52092         6.96628
     2012.82683         6.25069         6.81978
     2012.82956         8.11946         6.73988
     2012.83230         7.08222         6.82422
     2012.83504        13.12299         6.91634
     2012.83778         7.74676         6.91856
     2012.84052         8.74753         6.80203
     2012.84325         2.03530         6.98625
     2012.84599         3.30807         6.89858
     2012.84873         2.79584         6.94852
     2012.85147         2.66461         7.13164
     2012.85420         5.51637         6.70880
     2012.85694       -17.85086         6.96406
     2012.85968        -8.07909         6.80313
     2012.86242        -2.79832         6.64665
     2012.86516        16.14545         6.74764
     2012.86789        10.98622         7.02621
     2012.87063        12.08499         6.74653
     2012.87337         5.01876         6.84087
     2012.87611         3.67452         6.78427
     2012.87885        11.61429         6.70880
     2012.88158         0.97106         6.63111
     2012.88432        11.58883         6.82422
     2012.88706        16.88260         7.07171
     2012.88980        24.27637         6.99846
     2012.89253         7.06314         6.70103
     2012.89527         4.87791         6.97405
     2012.89801        12.97267         6.96184
     2012.90075        19.12344         7.01622
     2012.90349         4.74521         6.70325
     2012.90622         8.94298         6.78871
     2012.90896        14.60775         7.09280
     2012.91170         4.27452         6.84975
     2012.91444        17.40429         6.97072
     2012.91718         8.41806         6.88526
     2012.91991        19.85382         6.87194
     2012.93086        -2.19810         6.91634
     2012.93360        -2.47733         6.70436
     2012.93634        -1.98756         6.72434
     2012.93908        -2.40879         6.73988
     2012.94182         5.42797         6.77539
     2012.94455        13.03374         6.72989
     2012.94729        10.04951         6.72989
     2012.95003         6.37028         6.64887
     2012.95277         7.79805         6.47685
     2012.95551         8.21882         6.44023
     2012.96098        17.09136         7.03287
     2012.96372         1.92712         6.63777
     2012.96646         7.57989         6.46242
     2012.96919         6.16666         6.69437
     2012.97193         3.58243         6.68993
     2012.97467         8.12820         6.74653
     2012.97741         2.60197         6.54788
     2012.98015        -4.27326         6.59560
     2012.98836         2.74704         6.60781
     2012.99110         1.00281         6.57118
     2012.99931        -1.43288         6.49905
     2013.00479        -0.47934         6.54677
     2013.01026         3.23719         6.68328
     2013.01300         5.43496         6.52457
     2013.01848         8.85450         6.86085
     2013.02121        12.60127         6.92854
     2013.02395         3.09904         6.86861
     2013.02669         4.65481         6.81201
     2013.02943        -3.63643         6.56120
     2013.03216        -7.00466         6.46242
     2013.03490        -2.14789         6.51347
     2013.03639        10.53362        28.80512
     2013.04038        -7.30435         6.61114
     2013.04312        -6.41658         7.07282
     2013.04585        -3.81981         6.94519
     2013.04859        -5.34505         6.87416
     2013.05133        -4.67128         6.80313
     2013.05407        -4.69351         6.74321
     2013.05681        -2.74174         6.60115
     2013.05954        -2.50997         6.77428
     2013.06228         1.78480         6.89525
     2013.06388        29.14241        17.15322
     2013.06776         1.82034         6.98403
     2013.07049        -1.01690         6.85752
     2013.07323        -0.81613         6.54677
     2013.07597        -5.31036         6.54122
     2013.07871        -1.83259         6.67773
     2013.08145         5.89618         6.79315
     2013.08418        -2.73405         6.74986
     2013.08692        -2.12428         6.85419
     2013.08966        -5.90551         6.81645
     2013.09240        -2.09475         6.88970
     2013.09514        -0.87798         6.88859
     2013.09787         9.45279         7.15383
     2013.10061        -1.70644         7.23818
     2013.10335        -4.59167         6.80868
     2013.10609        -3.26890         6.53012
     2013.10882        -3.45913         6.71546
     2013.11156       -14.61036         6.75763
     2013.11430        -2.88560         6.67662
     2013.11704        -4.99983         6.84864
     2013.11978       -11.56906         6.99180
     2013.12251        -9.58129         6.88526
     2013.12525       -10.21652         6.87749
     2013.12799        -7.95475         6.93631
     2013.13073        -1.68098         6.78427
     2013.13347        -0.80421         6.61114
     2013.13620         0.90955         6.63777
     2013.13894        -3.98668         6.72767
     2013.14168        -6.34291         6.85752
     2013.14442        -3.01814         7.00734
     2013.14715        -2.34537         6.79315
     2013.14989       -10.57460         6.62889
     2013.15263       -11.13283         6.75874
     2013.15537       -18.86206         6.79981
     2013.15811       -10.92630         6.71213
     2013.16084       -11.71453         6.79426
     2013.16358       -10.81276         6.79315
     2013.16632        -9.67899         6.58228
     2013.16906        -3.91122         6.89081
     2013.17180        -7.55045         6.59671
     2013.17453        -2.18068         6.69770
     2013.18001        -7.50315         6.65220
     2013.18275        -8.55538         6.58672
     2013.18548       -12.38461         6.65886
     2013.18822        -9.66284         6.68993
     2013.19096         0.02993         6.70547
     2013.19370        -8.38030         6.71102
     2013.19644        -7.65853         6.87194
     2013.19917        -8.32676         6.75208
     2013.20191        -3.35200         6.70769
     2013.20465        -3.21723         6.68106
     2013.20739        -5.60246         6.73322
     2013.21013        -2.26769         6.47241
     2013.21286        -2.01492         6.67773
     2013.21560         3.03885         6.73544
     2013.21834        -2.72538         6.57340
     2013.22108        -2.58761         6.55121
     2013.22381        -6.92985         6.49572
     2013.22655        -8.49508         6.61447
     2013.22929        -1.97631         6.65220
     2013.23203        -3.53954         6.86750
     2013.23477        10.03723         6.88526
     2013.23750        -2.94000         6.93520
     2013.24024        -8.57823         6.85752
     2013.24298        -7.45246         6.86085
     2013.24572         3.65130         7.04840
     2013.24846         6.78807         7.00290
     2013.25119        -0.41216         6.70214
     2013.25393        -6.24039         6.76207
     2013.25667        -9.45962         7.00623
     2013.25941         7.98015         6.85086
     2013.26214         8.25792         6.78871
     2013.26762         2.85145         6.58228
     2013.27036        -5.76778         6.73433
     2013.27310        -4.21501         7.13053
     2013.27583        -3.09124         6.81423
     2013.27857         0.78253         6.94186
     2013.28131         7.37530         6.86306
     2013.28405         0.56907         6.47241
     2013.28679        -4.68116         6.71213
     2013.28952        -9.81740         6.58561
     2013.29226        -8.65363         6.77983
     2013.29500        -2.11086         6.68660
     2013.29774       -15.07509         6.94519
     2013.30047        -2.97532         6.84531
     2013.30321       -13.47755         6.76429
     2013.30595        -6.27278         6.77317
     2013.30869        -4.51401         6.99402
     2013.31143        -3.25625         6.67107
     2013.31416         1.30452         6.70103
     2013.31690        -1.37271         6.76318
     2013.31964        -3.14294         6.95074
     2013.32238        -0.84017         6.79870
     2013.32512         1.06460         7.06949
     2013.32785        -3.76063         6.56786
     2013.33059        -4.95286         6.57118
     2013.33333        -4.82910         6.77872
     2013.33607        -5.71633         6.70436
     2013.33880        -5.30256         6.70769
     2013.34154        -2.51479         6.64332
     2013.34428        -2.51602         6.89747
     2013.34702         0.30475         6.93409
     2013.34976        -0.12248         6.92410
     2013.35249         3.51929         6.89636
     2013.35523        -8.51695         7.04729
     2013.35797        -7.40418         7.13275
     2013.36071        -3.40741         7.01955
     2013.36344         2.38336         6.97405
     2013.36618        -3.54887         6.69215
     2013.36892        -4.95610         6.73988
     2013.37166        -1.74933         6.83976
     2013.37440         4.58443         6.81867
     2013.37713        -7.31380         6.77872
     2013.37987        -1.76003         6.89192
     2013.38261        -6.07126         6.84087
     2013.38535        -4.57749         6.95185
     2013.38809        -3.86472         6.59782
     2013.39082        -3.21295         6.70880
     2013.39356        -0.94518         6.83754
     2013.39630        -4.25042         6.77539
     2013.39904         3.46335         6.87194
     2013.40177         3.44512         6.91190
     2013.40451         2.61489         6.85974
     2013.40725        11.15766         7.06172
     2013.40999        -0.89957         6.98181
     2013.41273         1.38320         6.94186
     2013.41546         2.96597         7.13497
     2013.41820        -1.19327         7.05839
     2013.42094         0.25050         6.92965
     2013.42368        -4.31373         6.84531
     2013.42642         0.43704         6.88970
     2013.42915         5.49081         6.91967
     2013.43189        -0.59542         6.97848
     2013.43463        -6.31465         6.73877
     2013.43737        -1.72388         6.75652
     2013.44010         1.69188         6.78427
     2013.44284         4.72665         6.87527
     2013.44558        -2.14858         7.09169
     2013.44832       -10.31581         6.61447
     2013.45106        -1.63104         6.61336
     2013.45379         2.32373         6.67662
     2013.45653         3.23450         6.85641
     2013.45927        -8.81873         6.84864
     2013.46201         3.88403         6.86085
     2013.46475         0.91580         6.65553
     2013.46748        -0.74643         6.76540
     2013.47296        -1.93389         6.89081
     2013.47570         2.44288         6.85752
     2013.47843         6.44465         6.87416
     2013.48117         8.08842         6.84642
     2013.48391        11.26818         6.94519
     2013.48939        -0.91528         6.88970
     2013.49212        -8.66551         6.99402
     2013.49486        -4.38574         6.98847
     2013.49760         4.26903         6.88970
     2013.50034        -4.33020         6.92632
     2013.50308         1.89257         6.96961
     2013.50581         2.22333         6.70769
     2013.50855         6.00810         6.87749
     2013.51129         3.87087         6.74210
     2013.51403         6.16164         6.90413
     2013.51676         5.00941         6.81534
     2013.51950        -0.75782         6.98847
     2013.52224         2.02195         6.82866
     2013.52498        -1.13028         6.90302
     2013.52772         2.84648         6.77095
     2013.53045         0.66125         6.84087
     2013.53319        -2.48898         6.97959
     2013.53593        -2.12721         6.99069
     2013.53867         2.19056         6.86750
     2013.54141         0.27333         6.89303
     2013.54688         2.98387         6.91301
     2013.55236         1.52040         6.87527
     2013.55509        -1.69083         6.79426
     2013.55783         8.21594         6.98958
     2013.56057         4.81771         6.99513
     2013.56331         1.46948         6.95962
     2013.56605        -1.55575         7.07171
     2013.56878         8.87502         6.89081
     2013.57152         8.07278         6.78205
     2013.57426        13.10755         6.75652
     2013.57700        11.04232         6.93409
     2013.57974         4.32409         6.89192
     2013.58247        17.20586         6.97627
     2013.58521         2.02063         6.75208
     2013.58795         7.23440         6.86750
     2013.59069         4.76117         6.86750
     2013.59342         5.66293         6.78760
     2013.59616        -1.69930         6.93298
     2013.59890         4.98147         6.90191
     2013.60164         2.95424         6.95407
     2013.60438         2.78201         6.94852
     2013.60711         5.48178         6.98958
     2013.60985         3.71555         6.88637
     2013.61259         8.80132         6.88526
     2013.61533         6.69108         7.12276
     2013.61807        14.00585         7.15938
     2013.62080        12.26862         6.98070
     2013.62354         8.43039         6.81312
     2013.62628         8.94416         6.98625
     2013.62902         3.13993         6.87416
     2013.63175         1.72470         6.68328
     2013.63449        13.25147         6.98070
     2013.63723        12.13723         6.80424
     2013.63997         9.77000         6.83865
     2013.64271         6.52677         6.88304
     2013.64544        16.28054         6.69326
     2013.64818        11.14931         6.81645
     2013.65092        12.18308         6.89858
     2013.65366        10.14185         6.75208
     2013.65639        15.48762         6.82311
     2013.65913         1.74038         6.91523
     2013.66187         8.78415         6.67884
     2013.66461         4.49392         6.75985
     2013.66735         9.30469         6.66663
     2013.67008        13.84046         6.60448
     2013.67282        15.18523         6.99180
     2013.67556        10.65100         6.81312
     2013.67830        10.60977         6.58006
     2013.68104        10.88753         6.56231
     2013.68377         9.97730         6.58672
     2013.68651         3.05907         6.73655
     2013.68925         9.83384         6.69992
     2013.69199         7.91261         6.73211
     2013.69472        16.26138         6.60559
     2013.69746        10.46615         6.59338
     2013.70020        13.25991         6.49905
     2013.70294         8.57968         6.59116
     2013.70568         8.80245         6.86528
     2013.70841        11.95622         6.56009
     2013.71115         7.08999         6.86861
     2013.71389        15.84376         6.58339
     2013.71663        10.57753         6.60115
     2013.71937        14.00930         6.68660
     2013.72210        23.26406         6.80535
     2013.72484        17.44283         6.68217
     2013.72758        18.03760         6.87971
     2013.73032        15.08637         6.72101
     2013.73305        11.29014         6.63555
     2013.73579        12.14491         6.66774
     2013.73853         5.98668         6.37697
     2013.74127        12.69145         6.60781
     2013.74401        18.81721         6.89636
     2013.74674        18.06498         6.70658
     2013.74948        10.16875         6.77872
     2013.75496         2.05429         6.52790
     2013.75770         1.14706         6.60226
     2013.76043         3.67983         6.76651
     2013.76317         8.09160         6.84864
     2013.76591        12.56836         6.87416
     2013.76865         4.77813         6.74764
     2013.77138         6.75390         6.74099
     2013.77412        10.62267         6.74764
     2013.77686         5.81044         6.74764
     2013.77960         6.32221         6.77539
     2013.78234         5.25198         6.82311
     2013.78781        -4.33549         6.77317
     2013.79055         4.92928         6.74210
     2013.79329         7.41705         6.64443
     2013.79603         4.21082         6.69548
     2013.79876         3.31659         6.75541
     2013.80150         5.70136         6.77983
     2013.80424         2.10813         6.84198
     2013.80698         4.82990         6.73100
     2013.80971         9.32466         6.70214
     2013.81245         8.30743         6.72878
     2013.81519         3.63520         6.66996
     2013.81793        -0.81403         6.67551
     2013.82067        -0.01326         6.78427
     2013.82614         5.93428         6.68882
     2013.82888        13.09405         6.63333
     2013.83162        11.25181         6.70547
     2013.83436        12.70458         6.90857
     2013.83709         9.43535         7.09391
     2013.83983        10.64212         6.81312
     2013.84257        -0.53011         6.61225
     2013.84531        10.60866         6.78871
     2013.84804        12.42243         6.81756
     2013.85078         4.88420         6.92299
     2013.85352         0.75996         6.88637
     2013.85626         3.44973         6.69437
     2013.85900         4.52250         6.69215
     2013.86173         6.84027         6.70880
     2013.86447         1.86004         6.75097
     2013.86721         6.66281         6.87194
     2013.86995         3.06258         6.65442
     2013.87269         3.26535         6.61114
     2013.87816         5.72388         6.76984
     2013.88090        12.09065         6.86085
     2013.88364        22.35742         7.07948
     2013.88637        13.33319         6.84642
     2013.88911        -2.83004         6.54233
     2013.89185        -5.14427         6.54788
     2013.89459        -3.28450         6.53345
     2013.89733         7.38726         6.80868
     2013.90006        -0.15997         6.77095
     2013.90280        -3.75620         6.78427
     2013.90554         1.57557         6.77095
     2013.90828         8.31834         6.81756
     2013.91102         4.35411         6.72656
     2013.91375         2.97988         6.82311
     2013.91649        12.89865         6.89303
     2013.91923        13.31741         7.08947
     2013.92197         9.90118         6.59449
     2013.92470        -2.28405         6.45133
     2013.92744         0.58972         6.53567
     2013.93018        -2.81351         6.23491
     2013.93292       -15.54174         6.28818
     2013.93566        -6.70997         6.37031
     2013.93839         0.69080         6.41914
     2013.94113         2.00956         6.47574
     2013.94387         3.95233         6.56786
     2013.94661        -0.27090         6.49461
     2013.94935         2.61687         6.69326
     2013.95208         5.38064         6.72323
     2013.95482         5.92841         6.71324
     2013.95756         0.08218         6.56786
     2013.96303         4.68971         6.91634
     2013.96577        -3.30352         6.72989
     2013.96851         2.61525         6.51791
     2013.97125        18.18502         6.72878
     2013.97399        10.39479         6.77650
     2013.97672        -1.02244         6.82089
     2013.97946         0.99333         6.79315
     2013.98220         0.64910         6.78760
     2013.98494         5.52986         6.76762
     2013.98767        -0.29437         6.71435
     2013.99041         4.00040         6.69770
     2013.99315        -7.49783         6.64776
     2013.99589        -2.31006         6.74542
     2013.99863         1.19571         6.70436
     2014.00410         0.64225         6.72434
     2014.00684         4.58001         6.95629
     2014.00958        -2.37522         6.54899
     2014.01232        -4.37045         6.72878
     2014.01505        -6.15268         6.85863
     2014.01779         7.09009         6.88082
     2014.02053        11.01786         6.60448
     2014.02327         4.54163         6.91634
     2014.02600        10.32839         6.88526
     2014.02874         8.78716         6.89192
     2014.03148         9.32093         6.73433
     2014.03422         5.22270         6.82977
     2014.03696         3.34247         6.75985
     2014.03969        -0.67076         6.73100
     2014.04243         3.92901         6.97183
     2014.04517         7.63478         7.00068
     2014.04791         9.75954         6.73877
     2014.05065        12.03231         6.56231
     2014.05338         0.46608         6.72656
     2014.05612        -3.93415         6.75652
     2014.05886        -1.45638         6.78982
     2014.06160         7.90539         6.57451
     2014.06433         7.20216         6.74321
     2014.06981         2.35469         6.76096
     2014.07255         2.04046         6.70325
     2014.07529         5.14223         6.69659
     2014.07802        12.28900         6.91967
     2014.08076         1.19877         6.74653
     2014.08350         3.28154         6.69770
     2014.08624         2.45231         6.69992
     2014.08898        -1.43492         6.89192
     2014.09171        -4.59816         6.83310
     2014.09445        -3.20339         6.59227
     2014.09719        -2.12462         6.52679
     2014.09993         5.48115         6.40582
     2014.10266        -3.25308         6.79204
     2014.10540       -18.92431         6.97627
     2014.10814        10.18746         6.92077
     2014.11088        -4.10477         6.95518
     2014.11362         1.71299         6.88970
     2014.11635         9.21076         6.94186
     2014.11909         3.44253         7.06394
     2014.12183         4.48330         6.99069
     2014.12457        10.95107         6.70547
     2014.12731        19.01984         6.77095
     2014.13004         8.28861         6.64332
     2014.13278         1.91238         6.99402
     2014.13552         0.44114         6.89636
     2014.13826        -2.46809         6.66330
     2014.14373         1.86145         6.74986
     2014.14647         2.46522         6.86306
     2014.14921         5.86699         7.06061
     2014.15195         5.30976         6.86639
     2014.15468         0.22153         6.79537
     2014.15742         7.64629         6.74653
     2014.16016         6.61806         6.96961
     2014.16290         1.67083         6.88415
     2014.16564         6.84260         6.86528
     2014.16837         3.68637         7.06505
     2014.17111         6.81114         7.18491
     2014.17385         1.33791         7.15051
     2014.17932        15.73444         7.20489
     2014.18206         2.49521         7.06061
     2014.18480        13.46098         6.84864
     2014.18754         1.22575         7.00956
     2014.19301         6.87729         6.94741
     2014.19575         8.07406         6.85641
     2014.19849         2.13783         7.03287
     2014.20123         3.56659         6.82311
     2014.20397        -6.08364         6.72212
     2014.20670        -2.62487         6.92743
     2014.20944         4.02990         6.75763
     2014.21218        12.43867         6.62668
     2014.21492         5.02344         6.86639
     2014.21765         0.89921         6.63444
     2014.22039        -0.37302         6.76873
     2014.22313         4.08674         6.95407
     2014.22587         4.66551         6.77317
     2014.22861         5.31928         6.77650
     2014.23134         9.56105         6.70658
     2014.23408        -0.37218         6.71657
     2014.23682         5.81759         6.93853
     2014.23956         1.56436         7.10722
     2014.24777         1.68866         7.16271
     2014.25325         1.36720         7.06949
     2014.25598         4.70597         7.02954
     2014.26146         9.94551         7.24817
     2014.26420        -2.69172         6.90413
     2014.26694        -1.40496         6.84198
     2014.26967        -8.55319         7.01289
     2014.27241         3.56558         7.02843
     2014.27515        -0.62465         7.33362
     2014.27789         2.96712         7.07282
     2014.28062         8.52389         6.86861
     2014.28336         0.77166         6.78205
     2014.28610         3.35043         6.97072
     2014.28884         3.83719         7.30588
     2014.29158         0.80396         7.05395
     2014.29431         7.14473         6.96739
     2014.29705         1.29250         6.85419
     2014.29979        -2.89573         6.72545
     2014.30253        -0.07196         7.04507
     2014.30527        -1.53119         6.95962
     2014.30800         8.10058         7.01178
     2014.31074         4.34934         6.89303
     2014.31348        -1.10189         6.98181
     2014.31622        -1.73412         6.73433
     2014.31895        -0.00935         6.96295
     2014.32169         0.04142         7.19490
     2014.32443        -4.06481         7.09945
     2014.32717        -6.79304         6.93298
     2014.32989         1.60971         6.97848
     2014.33264        -0.81651         6.81423
     2014.33538         0.65826         6.96850
     2014.33812         4.53403         6.91079
     2014.34086        -1.31920         6.94519
     2014.34360         0.69857         6.94297
     2014.34907        -5.59889         6.93187
     2014.35181        11.95887         6.99513
     2014.35455         1.82464         7.01067
     2014.35728        -2.03659         6.98403
     2014.36002        -8.09882         6.85530
     2014.36276        -5.63505         6.67662
     2014.36550        -3.39428         6.76651
     2014.36824        -2.91751         6.86528
     2014.37097         3.38826         6.93409
     2014.37371        -8.79598         6.98625
     2014.37645         2.43579         6.86085
     2014.37919         0.30256         6.69548
     2014.38193        -6.45267         6.99402
     2014.38466         0.14010         6.86639
     2014.38740         2.46787         6.82755
     2014.39014        -5.01436         6.63888
     2014.39288        -3.86359         6.68993
     2014.39561        -5.02783         6.77761
     2014.39835         7.00094         7.02843
     2014.40383       -12.59852         6.62002
     2014.40657       -11.52375         6.66441
     2014.40930        -6.35298         6.63111
     2014.41204        -8.58921         6.95407
     2014.41478        -8.59844         6.83976
     2014.41752        -4.65168         6.75652
     2014.42026        -8.18691         6.71435
     2014.42299       -10.28814         6.76318
     2014.42573        -5.51137         6.86085
     2014.42847        -6.53360         7.03841
     2014.43121        -8.58483         6.82866
     2014.43394       -12.90706         6.75541
     2014.43668       -10.58729         6.80646
     2014.43942        -5.32753         6.96628
     2014.44216        -6.06376         6.85863
     2014.44490        -2.55799         7.11832
     2014.44763        -2.65522         7.03287
     2014.45037       -13.32345         6.65886
     2014.45311        -5.12768         6.74542
     2014.45585        -6.54691         6.65442
     2014.45859       -10.18814         6.75319
     2014.46132        -3.36938         6.73766
     2014.46406        -8.65361         6.71657
     2014.46680        -7.24384         6.92743
     2014.46954        -7.10307         6.83865
     2014.47227        -6.02830         6.66663
     2014.47501        -3.83253         6.76318
     2014.47775        -2.95376         6.95740
     2014.48049        -4.53999         6.62224
     2014.48323         3.36577         7.00623
     2014.48596         2.88154         7.09612
     2014.48870        -0.60169         6.91745
     2014.49144        -5.38092         6.77206
     2014.49418        -5.71115         6.83310
     2014.49692        -6.91238         6.76540
     2014.49965         0.34139         6.91412
     2014.50239       -13.51484         6.81756
     2014.50513        -7.06808         6.94408
     2014.50787        -4.40431         6.70436
     2014.51060        -9.46954         6.75652
     2014.51334         1.30623         6.89969
     2014.51608         2.04800         6.73544
     2014.51882         5.33577         7.04396
     2014.52156         2.37954         6.91634
     2014.52429        -1.17869         6.71546
     2014.52703         7.05707         6.81201
     2014.52977        -0.02116         6.95407
     2014.53251        -6.36939         6.79426
     2014.53525        -0.51262         6.75652
     2014.53798         0.72315         6.73877
     2014.54072         3.42692         6.81534
     2014.54346         4.55469         6.74986
     2014.54620         3.57346         6.66108
     2014.54893        -0.46878         6.56231
     2014.55167         3.17199         7.00512
     2014.55441         6.80976         7.09501
     2014.55715         7.22753         7.11166
     2014.55989        -4.48670         6.82866
     2014.56262        -1.96993         6.71657
     2014.56536         5.20384         6.76540
     2014.56810        -0.16739         6.81867
     2014.57084        -7.47763         6.85863
     2014.57357        -2.62686         6.89747
     2014.57631         5.21891         6.98958
     2014.57905         2.77868         6.74542
     2014.58179         6.12745         7.04174
     2014.58453         4.18622         7.06838
     2014.58726        -1.93401         7.07837
     2014.59000         5.92676         6.76873
     2014.59274        -1.84848         7.06172
     2014.59548         4.33129         6.57340
     2014.59822         7.08206         6.80313
     2014.60095         2.79583         6.79870
     2014.60369        -1.13340         6.96073
     2014.60643        -0.30863         6.66441
     2014.60917         9.77614         6.68328
     2014.61190         0.75191         6.93298
     2014.61464        -2.19933         6.84864
     2014.61738        13.18844         6.99069
     2014.62012         5.77621         7.06394
     2014.62286         9.71898         6.82755
     2014.62559         4.53875         6.71879
     2014.62833         8.27652         7.12831
     2014.63107         5.94629         7.21376
     2014.63381         9.85106         7.14052
     2014.63655         2.71182         7.00845
     2014.63928        -4.82841         6.86528
     2014.64202        -2.98864         6.82755
     2014.64476        -6.50587         6.81756
     2014.64750         4.33490         6.92299
     2014.65023        -7.02133         6.92521
     2014.65297         2.21444         6.81534
     2014.65571        -0.30779         6.90080
     2014.65845         4.03697         6.62779
     2014.66119        -0.83726         7.00734
     2014.66392         7.78851         6.85863
     2014.66666        11.79128         6.79426
     2014.66940         2.27405         6.74764
     2014.67214        -3.19118         6.88526
     2014.67488        -2.22041         6.67995
     2014.67761         0.85235         6.79759
     2014.68035         5.43112         6.52235
     2014.68309        -2.29011         6.72656
     2014.68583        -3.43534         6.64554
     2014.68856        -0.13757         6.59782
     2014.69130         0.96020         6.66330
     2014.69404         2.44597         6.51236
     2014.69678        -2.43826         6.50238
     2014.69952         0.62450         6.53012
     2014.70225        -2.39773         6.55898
     2014.70499         2.33704         6.58339
     2014.70773         7.89481         6.59116
     2014.71047         8.81658         6.56231
     2014.71321         8.37235         6.58006
     2014.71594        -1.42188         6.71990
     2014.71868         2.79589         6.64776
     2014.72142         8.41265         6.61780
     2014.72416         1.83142         6.71990
     2014.72689         9.51719         6.53456
     2014.72963        19.07396         6.63999
     2014.73237        11.90173         7.03620
     2014.73511         3.94650         6.78871
     2014.73785         5.24427         6.76207
     2014.74058         4.97604         6.81090
     2014.74332         5.70480         6.80979
     2014.74606         1.93157         6.78649
     2014.74880         7.45034         6.70991
     2014.75154         2.57311         7.00179
     2014.75427         4.06788         6.58450
     2014.75701         3.94365         6.68882
     2014.75975         3.62242         6.58561
     2014.76249         4.73419         6.62889
     2014.76522        -0.63405         6.66108
     2014.76796         6.93272         6.75874
     2014.77070         1.68049         6.67218
     2014.77344         2.30826         6.64332
     2014.77618        11.42403         6.72434
     2014.77891         2.22880         6.67884
     2014.78165         0.40457         6.70436
     2014.78439         1.14034         6.85308
     2014.78713        11.24110         6.74432
     2014.78987         8.34787         6.63111
     2014.79260         6.34964         6.61114
     2014.79534         5.19741         6.55232
     2014.79808        10.30918         6.79093
     2014.80082        -2.95505         6.79093
     2014.80355         7.19572         6.84975
     2014.80629         9.54749         6.81201
     2014.80903        10.97125         6.68328
     2014.81177        24.34702         6.99624
     2014.81451        11.34579         6.71213
     2014.81724         9.94256         6.35144
     2014.81998         5.74133         6.26266
     2014.82272         2.17310         6.44134
     2014.82546         6.76887         6.29262
     2014.82820        -2.30436         6.30039
     2014.83093        -0.60660         6.34811
     2014.83367         3.20317         6.27930
     2014.83641         0.13794         6.29928
     2014.83915         0.75771         6.25378
     2014.84188         4.42648         6.30039
     2014.84462         4.44125         6.36476
     2014.84736        -2.16998         6.47130
     2014.85010         1.55479         6.47019
     2014.85284        -4.08945         6.23824
     2014.85557         2.13232         6.41026
     2014.85831         0.45209         6.26155
     2014.86105        -7.62514         6.14280
     2014.86379        -5.85837         6.07510
     2014.86653       -16.09760         6.30372
     2014.86926        -3.73283         6.33258
     2014.87200        -6.87906         6.20384
     2014.87474        -9.75130         6.16056
     2014.87748        -4.55853         6.14391
     2014.88021         3.47524         6.27487
     2014.88295        -0.57499         6.34589
     2014.88569         2.34978         6.44245
     2014.88843         6.66255         6.55010
     2014.89117        11.51632         6.67773
     2014.89390        -4.73591         6.59671
     2014.89664        -3.33215         6.52457
     2014.89938         0.24562         6.46797
     2014.90212       -21.14661         6.44689
     2014.90485        -7.63784         6.43357
     2014.90759         9.56593         6.40138
     2014.91033         1.29570         6.41248
     2014.91307         3.37347         6.26710
     2014.91581        -0.11776         6.33258
     2014.91854         7.89500         6.28596
     2014.92128        -6.93323         6.18608
     2014.92402         7.69054         6.25045
     2014.92676        -4.35769         6.29262
     2014.92950        -7.82992         6.31704
     2014.93223       -12.54715         6.28152
     2014.93497       -13.90638         6.18941
     2014.93771        -7.27161         6.25378
     2014.94045        -8.08485         6.29040
     2014.94318        -1.49108         6.48795
     2014.94592        -8.17431         6.14724
     2014.94866       -11.79254         6.16056
     2014.95140       -12.99477         5.98742
     2014.95414        -9.63800         6.12504
     2014.95687        -4.77323         6.20717
     2014.95961        -1.55046         6.11172
     2014.96235        -9.64370         6.13059
     2014.96509        -4.54193         6.39140
     2014.96783        -2.90016         6.20939
     2014.97056         9.01361         6.21383
     2014.97330         5.69938         6.20717
     2014.97604       -16.16585         6.17054
     2014.97878       -13.18608         6.20495
     2014.98151        -7.89831         6.27154
     2014.98425       -11.62755         6.07066
     2014.98699        -5.86978         6.03515
     2014.98973        -8.56701         6.11061
     2014.99247       -16.28624         6.06178
     2014.99520       -17.69847         6.01073
     2014.99794       -11.88770         6.08842
     2015.00068        -7.03893         6.00407
     2015.00342       -12.93417         6.02849
     2015.00616       -17.84240         6.10950
     2015.00889       -17.18963         6.16388
     2015.01163        -8.73786         6.38252
     2015.01437       -10.08509         6.29928
     2015.01711        -4.09132         6.21716
     2015.01984        -6.66055         6.18497
     2015.02258        -6.42878         6.32592
     2015.02532        -0.76102         6.28152
     2015.02806        -4.72225         6.23047
     2015.03080        -4.62248         6.16166
     2015.03353        -9.70171         6.16832
     2015.03627       -10.77094         6.18053
     2015.03901        -3.99317         6.29262
     2015.04175         9.82760         6.42802
     2015.04449        -3.56763         6.38696
     2015.04722         4.36613         6.33923
     2015.04996        -7.29210         6.23047
     2015.05270       -11.98133         6.19607
     2015.05544        -9.95956         6.21605
     2015.05817        -3.44579         6.30927
     2015.06091        -5.04902         6.33701
     2015.06365        -6.00625         6.51791
     2015.06639        -9.10848         6.26377
     2015.06913        -9.02972         6.29151
     2015.07186       -10.31395         6.25933
     2015.07460       -10.63618         6.27265
     2015.07734       -12.12141         6.27043
     2015.08008       -19.29664         6.24934
     2015.08282       -11.50587         6.16056
     2015.08555        -2.02510         6.21827
     2015.08829         2.49467         6.34367
     2015.09103         0.85143         6.30483
     2015.09377        -5.91880         6.17720
     2015.09650       -10.29303         6.34922
     2015.09924         5.63574         6.39140
     2015.10198        -0.08249         6.11394
     2015.10472        -5.94172         6.14835
     2015.10746         5.07305         6.26710
     2015.11019       -14.44418         6.33590
     2015.11293       -15.91842         6.33590
     2015.11567       -15.45765         6.13392
     2015.11841       -11.59288         6.20495
     2015.12115        -6.45511         6.16277
     2015.12388        -9.73834         6.14391
     2015.12662       -15.90257         6.08287
     2015.12936       -12.31480         6.10063
     2015.13210       -14.79203         6.13614
     2015.13483        -8.63727         6.14946
     2015.13757        -9.99650         6.10839
     2015.14031       -14.60173         6.08620
     2015.14305       -12.40996         6.05179
     2015.14579       -13.59019         6.06844
     2015.14852        -9.36442         6.16277
     2015.15126        -7.46265         6.18386
     2015.15400       -11.08488         6.22492
     2015.15674        -1.74912         6.20495
     2015.15948       -12.01135         6.14613
     2015.16221        -6.98958         6.14502
     2015.16495        -5.45181         6.18386
     2015.16769       -10.36204         6.16610
     2015.17043        -8.41127         6.21161
     2015.17316       -10.56750         6.34367
     2015.17590       -10.80573         6.30816
     2015.17864        -8.51197         6.19718
     2015.18138        -7.35920         6.19385
     2015.18412        -6.13443         6.17942
     2015.18685        -6.95566         6.11061
     2015.18959        -6.37889         6.24268
     2015.19233        -4.74612         6.34700
     2015.19507        -8.11935         6.11616
     2015.19780        -4.51758         6.30483
     2015.20054         0.87018         6.24601
     2015.20328       -13.30605         6.13281
     2015.20602        -6.79228         6.29040
     2015.20876        -6.92551         6.27819
     2015.21149       -11.92774         6.21494
     2015.21423       -19.06197         6.54566
     2015.21697       -11.83520         6.11838
     2015.21971       -10.92943         6.25600
     2015.22245       -14.19867         6.29928
     2015.22518       -10.28690         6.17609
     2015.22792        -9.90213         6.15612
     2015.23066       -11.91136         6.08731
     2015.23340        -6.95959         6.24490
     2015.23613        -3.64482         6.44134
     2015.23887        -5.53105         6.45576
     2015.24161        -8.10428         6.42247
     2015.24435        -1.59152         6.50349
     2015.24709        -9.65075         6.22714
     2015.24982       -11.81198         6.15834
     2015.25256       -10.72721         6.14946
     2015.25530       -12.20244         6.19163
     2015.25804        -6.18467         6.22381
     2015.26078        -6.74890         6.10617
     2015.26351        -4.74213         6.12726
     2015.26625       -12.03737         6.16721
     2015.26899       -11.92560         6.19274
     2015.27173        -0.08383         6.25711
     2015.27446        -3.25406         6.32259
     2015.27720        -0.51729         6.14835
     2015.27994       -10.36752         6.19607
     2015.28268       -11.75375         6.25822
     2015.28542       -14.03498         6.30705
     2015.28815       -14.72322         6.42469
     2015.29089       -10.00845         6.20939
     2015.29363        -7.61068         6.22825
     2015.29637       -12.52591         6.25600
     2015.29911        -7.93914         6.22492
     2015.30184        -2.64837         6.22825
     2015.30458        -7.20960         6.25933
     2015.30732        -7.98283         6.08509
     2015.31006        -6.98407         6.11283
     2015.31279       -16.06230         6.10395
     2015.31553       -14.52853         6.11949
     2015.31827       -14.21776         6.24268
     2015.32101        -7.61699         6.17165
     2015.32375        -3.69022         6.04292
     2015.32648       -14.95245         6.23380
     2015.32922       -10.83969         6.31149
     2015.33196        -8.13892         6.17720
     2015.33470        -6.26815         6.14169
     2015.33744       -10.96238         6.09286
     2015.34017       -17.28961         6.15945
     2015.34291       -13.50684         6.13503
     2015.34565       -18.43607         6.11394
     2015.34839        -9.34930         6.13392
     2015.35112       -10.42954         6.15168
     2015.35386        -2.61277         6.14613
     2015.35660        -6.66700         6.28041
     2015.35934        -9.67923         6.31593
     2015.36208        -8.83946         6.22825
     2015.36481        -5.82969         6.15612
     2015.36755        -1.75592         6.18275
     2015.37029        -8.31215         6.17276
     2015.37303        -9.77539         6.19496
     2015.37577        -8.68762         6.13836
     2015.37850        -4.15185         6.36476
     2015.38124       -11.32408         6.19829
     2015.38398        -5.05031         6.14391
     2015.38672       -10.11254         6.28374
     2015.38945       -10.13777         6.19163
     2015.39219        -5.92600         6.38807
     2015.39493        -9.95524         6.28929
     2015.39767       -18.17347         6.21050
     2015.40041        -9.98870         6.21050
     2015.40314       -10.33693         6.47130
     2015.40588       -13.20516         6.29706
     2015.40862        -7.16539         6.45244
     2015.41136       -11.17262         6.24490
     2015.41410       -11.42985         6.32814
     2015.41683        -6.34709         6.35255
     2015.41957       -10.69032         6.28707
     2015.42231       -12.13655         6.29817
     2015.42505       -13.28378         6.39472
     2015.42778       -10.17301         6.24379
     2015.43052       -10.75424         6.25933
     2015.43326        -8.30247         6.33590
     2015.43874       -14.45694         6.33258
     2015.44147       -11.38717         6.35255
     2015.44421        -8.21940         6.28929
     2015.44695       -10.06263         6.29706
     2015.44969        -8.83286         6.41581
     2015.45243        -7.68309         6.49572
     2015.45516       -14.38732         6.38474
     2015.45790       -10.12655         6.46464
     2015.46064        -0.82179         6.66663
     2015.46338        -7.75102         6.58228
     2015.46611        -7.21125         6.30816
     2015.46885        -2.15848         6.33147
     2015.47159        -9.42371         6.25489
     2015.47433       -17.61694         6.35033
     2015.47707        -6.20817         6.39362
     2015.47980        -8.09440         6.63666
     2015.48254        -8.64264         6.37697
     2015.48528        -2.60987         6.42469
     2015.48802        -5.04010         6.28263
     2015.49076        -8.92833         6.69770
     2015.49623        -2.36879         6.41692
     2015.49897        -4.90502         6.42247
     2015.50171        -5.96425         6.35810
     2015.50444        -9.55349         6.29151
     2015.50718        -9.07572         6.26932
     2015.50992         1.27005         6.27598
     2015.51266         2.42682         6.42025
     2015.51540        -3.41641         6.33590
     2015.51813         0.36636         6.33701
     2015.52087         0.85513         6.39805
     2015.52361         1.35190         6.34478
     2015.52635       -10.08034         6.51236
     2015.52908         0.18943         6.35588
     2015.53182        -1.50980         6.24823
     2015.53456        -1.27803         6.31704
     2015.53730         2.21874         6.28263
     2015.54004        -2.15049         6.30150
     2015.54277        -9.48072         6.28152
     2015.54551         0.01105         6.24490
     2015.54825        -7.65619         6.29484
     2015.55099        -0.36942         6.37697
     2015.55373         2.03235         6.45022
     2015.55646         4.70012         6.39362
     2015.55920        -0.01111         6.22492
     2015.56194        -1.01234         6.36698
     2015.56468        -1.47257         6.25711
     2015.56741        -2.71580         6.28818
     2015.57015         3.26196         6.55454
     2015.57289        -3.10327         6.29595
     2015.57563        -5.24450         6.20828
     2015.57837         0.43227         6.43579
     2015.58110         2.90104         6.34922
     2015.58384         4.70881         6.48906
     2015.58658         6.16058         6.49017
     2015.58932        -0.01465         6.44800
     2015.59206        -2.65289         6.55454
     2015.59479         0.99888         6.46242
     2015.59753         3.91665         6.53234
     2015.60027        -2.33758         6.42913
     2015.60301         6.37519         6.64110
     2015.60574         5.70796         6.48240
     2015.60848         2.96373         6.54566
     2015.61122         2.74350         6.36587
     2015.61396         6.61426         6.40249
     2015.61670        -2.63997         6.30705
     2015.61943         2.11980         6.29040
     2015.62217         3.79857         6.26488
     2015.62491        10.13334         6.31371
     2015.62765         3.28411         6.25156
     2015.63039         1.89888         6.29817
     2015.63312        -1.90935         6.25267
     2015.63586         5.06941         6.31371
     2015.63860         0.81318         6.30927
     2015.64134         6.88895         6.38474
     2015.64407        -6.48228         6.34589
     2015.64681         2.45949         6.38030
     2015.64955        -1.44074         6.26821
     2015.65229        -3.48997         6.27265
     2015.65503         4.21479         6.21827
     2015.65776         3.87556         6.28041
     2015.66050         4.75933         6.22603
     2015.66324         5.22610         6.25267
     2015.66598         6.66887         6.31815
     2015.66872         5.33464         6.35699
     2015.67145        -3.35959         6.22825
     2015.67419         2.09418         6.27930
     2015.67693         7.15794         6.19274
     2015.67967         2.83071         6.24712
     2015.68240        -1.77752         6.20717
     2015.68514        -3.87475         6.30816
     2015.68788         2.06602         6.27819
     2015.69062         3.27579         6.34700
     2015.69336         0.40856         6.46353
     2015.69609         1.92533         6.17942
     2015.69883         3.50909         6.32037
     2015.70157         3.33386         6.29262
     2015.70431         2.09663         6.23380
     2015.70705         3.73540         6.26710
     2015.70978         6.25217         6.21827
     2015.71252        -3.75806         6.22048
     2015.71526        -2.42329         6.21161
     2015.71800         1.30548         6.14169
     2015.72073         6.02524         6.23491
     2015.72347         0.86901         6.13392
     2015.72621        -3.12222         6.24712
     2015.72895         0.97755         6.26044
     2015.73169        -0.95568         6.27709
     2015.73442        -5.53291         6.26155
     2015.73716         5.47886         6.11949
     2015.73990         3.92763         6.29484
     2015.74264         3.20239         6.35810
     2015.74538         3.05716         6.54899
     2015.74811         2.33793         6.52568
     2015.75085        -3.99930         6.13836
     2015.75359         1.29147         6.18719
     2015.75633         3.90224         6.04957
     2015.75906         3.13701         6.16943
     2015.76308        11.17707        24.61780
     2015.76454        10.89454         6.27709
     2015.76728         6.31431         6.18053
     2015.77002         5.91208         6.36365
     2015.77275        12.23785         6.59005
     2015.77549        11.48662         6.45022
     2015.77823        16.43339         6.42691
     2015.78097        15.74516         6.30483
     2015.78371        16.53293         6.32259
     2015.78644        19.10669         6.32259
     2015.78918        10.58346         6.39805
     2015.79192        18.84023         6.37253
     2015.79466        17.33900         6.36698
     2015.79739        14.10277         6.31038
     2015.80013        10.84954         6.37808
     2015.80287        10.52131         6.36143
     2015.80561        10.15108         6.37586
     2015.80835        11.22984         6.23935
     2015.81108         6.86161         6.30039
     2015.81382        10.97838         6.36254
     2015.81656        11.55215         6.53900
     2015.81930        13.64192         6.44911
     2015.82203        13.82769         6.38141
     2015.82477        18.00146         6.30483
     2015.82751         6.85523         6.45909
     2015.83025        25.51899         6.67218
     2015.83299        19.48876         6.56786
     2015.83572         5.82353         6.29928
     2015.83846         7.11830         6.29040
     2015.84120         6.32207         6.26932
     2015.84394         3.38184         6.34145
     2015.84668         5.53661         6.29484
     2015.84941         9.69938         6.45133
     2015.85215        26.64114         6.60337
     2015.85489        12.94691         6.37808
     2015.85763         5.75068         6.40582
     2015.86036        11.39445         6.69326
     2015.86310         9.58822         6.43246
     2015.86584        11.28999         6.62002
     2015.86858         5.52476         6.49461
     2015.87132        17.53053         6.56342
     2015.87405         6.18629         6.38474
     2015.87679         9.96606         6.93409
     2015.87953        14.97683         6.87527
     2015.88227        23.75260         6.73988
     2015.88501         5.80537         6.54233
     2015.88774         5.19914         6.53789
     2015.89048        14.07591         6.48462
     2015.89322        10.73268         6.57562
     2015.89596        12.20344         6.56675
     2015.89869       -17.81779         6.36143
     2015.90417        -6.21525         6.33036
     2015.90691         5.19752         6.33036
     2015.90965         6.49029         6.36365
     2015.91238         6.42606         6.30816
     2015.91512         4.96383         6.42358
     2015.91786        10.50059         6.67884
     2015.92060        11.28936         6.99069
     2015.92334         9.78913         6.58228
     2015.92607         4.17090         6.38918
     2015.92881         5.01367         6.57451
     2015.93155        14.80544         7.18602
     2016.08213        -0.33728         6.43690
     2016.08761        -7.65774         6.31149
     2016.09034        -6.22098         6.35477
     2016.09308        -5.08521         6.40582
     2016.09582        -5.47144         6.62335
     2016.09856       -12.82767         6.57118
     2016.10130       -13.88290         6.43579
     2016.10403       -14.88113         6.49017
     2016.10677       -12.92736         6.42469
     2016.10951        -9.98959         6.63222
     2016.11225        -7.74083         6.69104
     2016.11498        -0.00806         6.78205
     2016.11772        -5.08729         6.56342
     2016.12046        -6.97852         6.40471
     2016.12320         5.82925         6.59560
     2016.12594        -7.21798         6.69326
     2016.12867         1.36079         6.56453
     2016.13141        -4.94244         6.66219
     2016.13415        -3.55968         6.50682
     2016.13689        -6.99191         6.30594
     2016.13963        -2.97714         6.53567
     2016.14236       -15.94037         6.46908
     2016.14510        -8.04960         6.49350
     2016.14784        -7.09383         6.52568
     2016.15058        -5.93806         6.37475
     2016.15331        -0.19029         6.56453
     2016.15605         2.18247         6.73766
     2016.15879        -2.58676         6.91634
     2016.16153        -8.60499         6.69770
     2016.16427        -4.22922         6.74986
     2016.16700        -6.09645         6.52790
     2016.16974        -4.92768         6.90857
     2016.17248        -4.86891         6.71213
     2016.17522        -1.81614         6.69659
     2016.17796         7.79562         6.50904
     2016.18069        -1.01661         6.44911
     2016.18343        -1.91484         6.65997
     2016.18617         0.04893         6.57895
     2016.18891        -3.71930         6.70880
     2016.19164        -1.79253         6.27709
     2016.19438         2.02924         6.44911
     2016.19712        -3.90799         6.48906
     2016.19986        -5.31723         6.71102
     2016.20260       -11.63746         6.49461
     2016.20533       -10.42569         6.91190
     2016.20807        -4.80192         6.74653
     2016.21081        -9.06915         6.41692
     2016.21355        -4.67038         6.48240
     2016.21629        -3.76861         6.61114
     2016.21902        -7.58584         6.58783
     2016.22176        -4.03108         6.33480
     2016.22450       -14.71131         6.34034
     2016.22724       -17.26154         6.68439
     2016.22997        -8.89677         6.29373
     2016.23271        -6.95300         6.25822
     2016.23545        -2.56423         6.50682
     2016.23819        -5.76846         6.20606
     2016.24093        -3.61069         6.39805
     2016.24366        -6.13093         6.36698
     2016.24640        -3.45816         6.36920
     2016.24914        -5.69939         6.35699
     2016.25188        -6.49762         6.43357
     2016.25462        -5.83885         6.35144
     2016.25735        -9.93808         6.45909
     2016.26009       -10.38831         6.29151
     2016.26283       -10.94754         6.26044
     2016.26557        -2.57678         6.37475
     2016.26830        -6.41001         6.45909
     2016.27104        -5.39524         6.34922
     2016.27378        -1.25247         6.36032
     2016.27652        -6.61170         6.39583
     2016.27926        -2.78893         6.38807
     2016.28199        -8.88716         6.38918
     2016.28473        -5.26539         6.54566
     2016.28747        -6.19563         6.25378
     2016.29021       -10.97186         6.33590
     2016.29295        -3.09809         6.47907
     2016.29568        -2.11432         6.32592
     2016.29842        -2.87555         6.56120
     2016.30116        -5.98578         6.63666
     2016.30390       -11.82601         6.52013
     2016.30663        -1.35025         6.56897
     2016.30937        -0.32648         6.41359
     2016.31211       -12.64871         6.38252
     2016.31485        -6.73594         6.37697
     2016.31759        -3.41717         6.31149
     2016.32032        -3.91040         6.41470
     2016.32306       -10.23363         6.38696
     2016.32580       -10.59986         6.45244
     2016.32854       -12.21110         6.32592
     2016.33128        -6.76833         6.41692
     2016.33401        -9.63356         6.53456
     2016.33675        -6.70679         6.53900
     2016.33949        -1.22302         6.64998
     2016.34223        -3.40225         6.64221
     2016.34496        -5.02148         6.75319
     2016.34770        -2.84071         6.48684
     2016.35044        -9.36795         6.87749
     2016.35318        -8.31518         6.48684
     2016.35592       -14.46441         6.43468
     2016.35865       -15.08564         6.47574
     2016.36139        -8.18387         6.59671
     2016.36413        -7.98310         6.56897
     2016.36687         3.06967         6.52568
     2016.36961         5.94844         6.43024
     2016.37234         3.33420         6.49683
     2016.37508        -1.20103         6.37919
     2016.37782       -10.49826         6.43135
     2016.38056        -1.66149         6.63000
     2016.38329        -1.35372         6.41137
     2016.38603         3.38105         6.44356
     2016.38877         6.17682         6.47130
     2016.39151        -3.43541         6.37031
     2016.39425        -2.48065         6.41470
     2016.39698        -3.03088         6.34256
     2016.39972         0.80989         6.52124
     2016.40246        -9.61834         6.68550
     2016.40520        -8.11457         6.45687
     2016.40794       -13.71980         6.71657
     2016.41067       -13.55803         6.65997
     2016.41341       -10.93526         6.51902
     2016.41615        -3.27850         6.84420
     2016.41889       -11.10373         6.76540
     2016.42162        -5.62396         6.53567
     2016.42436       -11.58119         6.75985
     2016.42710        -7.74742         6.63999
     2016.42984        -5.76065         6.57562
     2016.43258        -0.26588         6.53345
     2016.43531        -1.14711         6.99402
     2016.43805        -5.95435         6.67551
     2016.44079        -8.67058         6.63999
     2016.44353        -9.07881         6.43690
     2016.44626        -9.62904         6.52790
     2016.44900        -1.55227         6.75319
     2016.45174        -0.57850         6.66663
     2016.45448        -1.98373         6.54344
     2016.45722        -1.92196         6.48795
     2016.45995        -2.25320         6.45465
     2016.46269         5.91557         6.45687
     2016.46543        -6.96866         6.56675
     2016.46817        -2.05789         6.56009
     2016.47091         5.29088         6.48462
     2016.47364        -7.50935         6.61003
     2016.47638         0.25342         6.68106
     2016.47912        -0.54281         6.63444
     2016.48186         0.49795         6.54455
     2016.48459        -1.09828         6.54899
     2016.48733        -1.41951         6.79426
     2016.49007        -0.72174         6.76429
     2016.49281        -0.88497         6.66663
     2016.49555        -2.95020         6.60337
     2016.49828        -0.67743         6.67218
     2016.50102        -0.93466         6.80979
     2016.50376        -6.77590         6.95296
     2016.50650         0.87387         6.78982
     2016.50924         2.15464         6.59782
     2016.51197        -5.62059         6.72323
     2016.51471        -0.89282         6.61447
     2016.51745         2.47295         6.82644
     2016.52019         4.04572         6.76540
     2016.52292        -2.95551         6.80313
     2016.52566        -0.07275         6.67773
     2016.52840        -5.30798         6.84642
     2016.53114        -1.71021         6.73322
     2016.53388        -2.66644         6.68993
     2016.53661         1.62233         6.74764
     2016.53935        -1.63190         6.73877
     2016.54209         0.41787         6.80979
     2016.54483        -0.71436         6.95296
     2016.54757         3.73740         6.85308
     2016.55030        -4.66483         6.88970
     2016.55304         0.93094         6.77095
     2016.55578        -1.57429         6.97405
     2016.55852        -4.44652         6.72434
     2016.56125         3.66725         6.62113
     2016.56399         0.69002         6.95185
     2016.56673         0.75279         7.07726
     2016.56947        -0.55345         6.80757
     2016.57221         1.38132         6.73433
     2016.57494         2.34809         6.93964
     2016.57768         5.29686         6.78094
     2016.58042         3.55863         6.80203
     2016.58316        -1.60360         6.79870
     2016.58590        -4.53783         6.82533
     2016.58863        -2.41306         6.75652
     2016.59137        -7.62630         6.84087
     2016.59411         5.10647         6.97516
     2016.59685        -0.18176         6.82644
     2016.59958        -5.69399         6.91856
     2016.60232         1.98778         6.81534
     2016.60506        -3.96045         6.71102
     2016.60780         2.16132         6.80424
     2016.61054        -0.04892         6.77761
     2016.61327        -0.81315         6.70547
     2016.61601        -4.82938         6.76096
     2016.61875         0.20239         6.83199
     2016.62149         1.81016         6.80535
     2016.62423        -3.76307         6.84642
     2016.62696         1.49770         6.66441
     2016.62970        -1.15153         6.60448
     2016.63244        -3.29277         6.71879
     2016.63518         2.17800         6.70214
     2016.63791         5.84077         6.67440
     2016.64065         8.39954         6.93520
     2016.64339        -2.43969         6.65220
     2016.64613         1.80208         6.62557
     2016.64887        -2.73815         6.63444
     2016.65160         3.00962         6.78649
     2016.65434         4.46738         6.78094
     2016.65708         2.68815         6.77317
     2016.65982        -2.98708         6.90857
     2016.66256         0.78069         6.75097
     2016.66529         2.06746         6.70436
     2016.66803         9.54623         6.85863
     2016.67077         6.99000         6.87860
     2016.67351         8.07077         6.72878
     2016.67624        10.45153         6.68217
     2016.67898         6.53930         6.69548
     2016.68172         3.35907         6.72323
     2016.68446         9.17684         7.09612
     2016.68720         3.91561         7.22708
     2016.68993         9.99238         6.79426
     2016.69267         1.45315         6.64776
     2016.69541         5.82392         6.76540
     2016.69815         9.93868         6.63666
     2016.70089         6.70245         6.66885
     2016.70362         5.15422         6.82644
     2016.70636         2.46599         6.98625
     2016.70910         9.74276         7.07615
     2016.71184         4.02853         6.49794
     2016.71457        12.59730         6.49461
     2016.71731        10.21907         6.54788
     2016.72005         4.69883         6.33036
     2016.72279         7.33660         6.47574
     2016.72553         7.09037         6.66996
     2016.72826        10.60814         6.60892
     2016.73100         9.87691         6.60004
     2016.73374         0.97668         6.35255
     2016.73648         5.49045         6.42469
     2016.73921         0.83522         6.52457
     2016.74195         9.67198         6.52124
     2016.74469         4.76475         6.74210
     2016.74743         0.69352         6.54566
     2016.75017         4.59629         6.47574
     2016.75290         5.07106         6.39472
     2016.75564         9.00483         6.46686
     2016.75838        16.00360         6.66885
     2016.76112        10.73637         6.62446
     2016.76386         6.42313         6.41137
     2016.76659         9.00490         6.65664
     2016.76933         6.14267         6.40027
     2016.77207         5.22144         6.60670
     2016.77481         9.42421         6.57118
     2016.77754        10.42398         6.46020
     2016.78028         2.13875         6.38474
     2016.78302         5.16952         6.60670
     2016.78576        22.35428         6.58450
     2016.78850        20.50305         6.87416
     2016.79123        22.92382         6.79537
     2016.79397        12.71959         6.63444
     2016.79671         9.65436         6.43357
     2016.79945        -4.30187         6.35810
     2016.80219         3.41490         6.71435
     2016.80492         4.41067         6.55787
     2016.80766         6.06343         6.60115
     2016.81040        -1.02980         6.36587
     2016.81314         2.43597         6.78316
     2016.81587         9.24874         6.39472
     2016.81861         7.73251         6.70325
     2016.82135         9.21328         6.74653
     2016.82409         6.64805         6.63999
     2016.82683         9.16982         6.61780
     2016.82956        13.91258         6.75208
     2016.83230         6.57635         6.60781
     2016.83504         3.81512         6.31482
     2016.83778        -0.42411         6.65331
     2016.84052        -4.05734         6.40471
     2016.84325         2.59643         6.51458
     2016.84599        -1.05180         6.48129
     2016.84873        12.64897         6.69215
     2016.85147        -1.69027         6.69437
     2016.85420        -1.61650         6.54233
     2016.85694         1.96327         6.56786
     2016.85968        -0.18296         6.74321
     2016.86242         2.07581         6.77428
     2016.86516         9.96058         6.90080
     2016.86789         1.43435         6.58672
     2016.87063         4.05812         6.63444
     2016.87337        13.06288         6.91079
     2016.87611        -0.96635         6.42247
     2016.87885        -1.72058         6.48351
     2016.88158        -5.23281         6.43690
     2016.88432         6.32396         6.71879
     2016.88706         5.36173         6.58006
     2016.88980         6.65250         6.43912
     2016.89253         1.56927         6.39251
     2016.89527         2.42203         6.40471
     2016.89801        -0.83520         6.72656
     2016.90075        -0.93743         6.76651
     2016.90349         0.36934         6.67440
     2016.90622         3.58611         6.30594
     2016.90896         4.60488         6.27598
     2016.91170        -0.47835         6.14502
     2016.91444         0.26242         6.45133
     2016.91718        -3.74082         6.37919
     2016.91991        -8.10105         6.28707
     2016.92265        -9.90028         6.49794
     2016.92539         1.63049         6.54455
     2016.92813        -9.91974         6.27154
     2016.93086        -2.19897         6.18053
     2016.93360         1.08480         6.18275
     2016.93634        -2.54443         6.20051
     2016.93908         5.42033         6.85752
     2016.94182         7.62710         6.48906
     2016.94455        -4.04613         6.46575
     2016.94729        -3.90236         6.26044
     2016.95003        -3.94759         6.16388
     2016.95277        -2.36882         6.09397
     2017.59175        20.61937        17.65708
     2017.59342        -2.33194         6.46908
     2017.59616        -0.62517         6.47352
     2017.59890        -2.54840         6.43912
     2017.60164        -5.94063         6.59671
     2017.60438        -1.66286         6.52901
     2017.60711         2.17991         6.70214
     2017.60985        -0.27233         6.71435
     2017.61259         6.79144         6.63222
     2017.61533        -5.09579         6.84420
     2017.61807         7.01298         6.58228
     2017.62080        -2.24625         6.51902
     2017.62354        -2.18748         6.56564
     2017.62628        -5.74471         6.71435
     2017.62902         3.28006         6.92410
     2017.63175        -3.50018         6.52901
     2017.63449        -1.68341         6.45354
     2017.63723        -4.54764         6.38252
     2017.63997        -2.94287         6.56120
     2017.64271        -2.28810         6.59116
     2017.64544        -4.26333         6.61447
     2017.64818        -1.07356         6.55787
     2017.65092        -2.54979         6.41359
     2017.65366         2.11097         6.50016
     2017.65639         3.13374         6.41137
     2017.65913         2.03251         6.46908
     2017.66187        -2.59772         6.54122
     2017.66461         4.39405         6.55454
     2017.66735        -1.59118         6.58117
     2017.67008        -1.79641         6.74986
     2017.67282        -0.10864         6.53012
     2017.67556        -3.88988         6.56786
     2017.67830         2.23289         6.59560
     2017.68104         4.06366         6.46797
     2017.68377        -2.96757         6.99291
     2017.68651        12.08620         6.57784
     2017.68925         3.75497         6.39362
     2017.69199         2.12374         6.55787
     2017.69472         5.60851         6.55343
     2017.69746         5.41027         6.46242
     2017.70020        -0.35596         6.45909
     2017.70294         5.86681         6.41803
     2017.70568         0.58258         6.32814
     2017.70841         5.38635         6.42913
     2017.71115         2.46012         6.64554
     2017.71389         7.27689         6.61447
     2017.71663        21.75566         6.49461
     2017.71937         6.08142         6.50016
     2017.72210         9.02219         6.52457
     2017.72484         3.27696         6.42025
     2017.72758         1.91573         6.49239
     2017.73032         1.27250         6.46464
     2017.73305         3.06827         6.47796
     2017.73579        -2.40296         6.41248
     2017.73853        -0.99419         6.48351
     2017.74127         0.55557         6.38807
     2017.74401         1.91234         6.34922
     2017.74674         2.21211         6.48573
     2017.74948        -9.35512         6.53567
     2017.75222         0.26565         6.50571
     2017.75496         1.82242         6.49128
     2017.75770         2.34119         6.50904
     2017.76043        -1.30104         6.47463
     2017.76317         1.59072         6.57451
     2017.76591         7.81049         6.51236
     2017.76865         9.34726         6.53456
     2017.77138        -1.23497         6.45465
     2017.77412        -0.23520         6.48906
     2017.77686         1.11157         6.57562
     2017.77960         0.92834         6.56786
     2017.78234         7.92611         6.59116
     2017.78507        -0.00713         6.30483
     2017.78781        -1.10136         6.45465
     2017.79055        -4.44159         6.56675
     2017.79329        -0.89182         6.70103
     2017.79603        -0.34505         6.55898
     2017.79876         6.05672         6.88415
     2017.80150         6.35449         6.75763
     2017.80424         8.54526         6.79537
     2017.80698         4.82102         6.82533
     2017.80971        -2.69421         6.64332
     2017.81245        -4.19744         6.61891
     2017.81519         0.32733         6.46908
     2017.81793         2.02610         6.65775
     2017.82067         2.37387         6.73544
     2017.82340        -0.22736         6.52679
     2017.82614         1.63041         6.49239
     2017.82888        -3.24683         6.46131
     2017.83162         1.87194         6.51680
     2017.83436        -2.74329         6.54677
     2017.83709         2.12948         6.71102
     2017.83983        -1.82175         6.47463
     2017.84257        -2.72998         6.33812
     2017.84531        -6.18221         6.49461
     2017.84804        -9.03244         6.38363
     2017.85078        -5.12268         6.35921
     2017.85352         2.02809         6.51680
     2017.85626        11.07386         6.78094
     2017.85900         6.71763         6.73211
     2017.86173         4.78640         6.78427
     2017.86447        -3.31683         6.68106
     2017.86721        10.09794         6.66108
     2017.86995        -8.02529         6.60781
     2017.87269         4.47747         6.59782
     2017.87542         7.56724         6.45909
     2017.87816        -3.02399         6.41137
     2017.88090        -1.78222         6.24601
     2017.88364        -4.95645         6.53567
     2017.88637        11.88632         6.78427
     2017.88911        10.64809         6.54899
     2017.89185        -5.08214         6.71657
     2017.89459         5.06362         6.80757
     2017.89733        10.96239         6.65442
     2017.90006         0.05016         6.55010
     2017.90280         3.99293         6.71879
     2017.90554        10.27470         6.38807
     2017.90828        -3.54853         6.45465
     2017.91102        -4.82476         6.61225
     2017.91375       -11.09300         6.50238
     2017.91649        -1.94123         6.60781
     2017.91923         5.39054         6.47796
     2017.92197         0.11731         6.38918
     2017.92470        -8.02692         6.27930
     2017.92744        -8.96415         6.28152
     2017.93018        -9.28038         6.31149
     2017.93292        -7.14661         6.27930
     2017.93566        -3.10985         6.37031
     2017.93839        -4.91708         6.29706
     2017.94113        -7.44531         6.30039
     2017.94387        -4.44854         6.22936
     2017.94661         1.13623         6.55232
     2017.94935        -0.18900         6.47352
     2017.95208        -1.55323         6.56786
     2017.95482        -4.97546         6.41581
     2017.95756        -2.83470         6.30150
     2017.96030        -2.41993         6.42025
     2017.96303         0.42584         6.41248
     2017.96577         1.69061         6.75763
     2017.96851        -2.84762         6.28374
     2017.97125        -7.19585         6.20384
     2017.97399        -0.73708         6.31482
     2017.97672        -0.73931         6.24379
     2017.97946        -7.40055         6.23935
     2017.98220        -6.55778         6.51125
     2017.98494        -8.29801         6.15057
     2017.98767        -4.62424         6.56120
     2017.99041        -8.73647         6.39362
     2017.99315        -2.92970         6.49461
     2017.99589        -1.15593         6.53012
     2017.99863        -6.57416         6.36587
     2018.00136       -15.83440         6.48906
     2018.00410       -13.68263         6.41248
     2018.00684       -10.97886         6.47130
     2018.00958        -1.77009         6.37919
     2018.01232        -4.42232         6.65775
     2018.01505        -2.06655         6.40360
     2018.01779         0.11122         6.43024
     2018.02053        -2.91001         6.47796
     2018.02327         9.17475         6.56231
     2018.02600        -1.57148         6.29151
     2018.02874         2.16929         6.65997
     2018.03148       -12.02794         6.87305
     2018.03422       -12.33317         6.50904
     2018.03696       -10.15940         6.54344
     2018.03969        -6.27763         6.48129
     2018.04243        -3.31486         6.73322
     2018.04517        -8.54810         6.70214
     2018.04791        -1.88733         6.64221
     2018.05065        -5.70956         6.36365
     2018.05338        -7.15079         6.24157
     2018.05612       -10.52102         6.42136
     2018.05886        -8.06825         6.40360
     2018.06160        -6.00748         6.35366
     2018.06433         0.93229         6.75541
     2018.06707        -1.46295         6.54344
     2018.06981       -13.00718         6.43690
     2018.07255        -3.24641         6.64665
     2018.07529        -5.83664         6.72878
     2018.07802       -12.72887         6.62335
     2018.08076        -8.38910         6.77539
     2018.08350       -12.48933         6.32037
     2018.08624        -6.87456         6.54677
     2018.08898        -6.70280         6.79759
     2018.09171        -1.87103         6.77206
     2018.09445        -9.14926         6.61558
     2018.09719       -10.75149         6.60781
     2018.09993       -13.43872         6.57562
     2018.10266       -14.81295         6.70436
     2018.10540       -13.09418         6.84531
     2018.10814         0.44359         6.56786
     2018.11088        -5.15365         6.45798
     2018.11362        -5.67388         6.52346
     2018.11635       -15.26411         6.22936
     2018.11909       -10.18634         6.35033
     2018.12183        -1.81757         6.75874
     2018.12457        -6.13680         6.30705
     2018.12731        -6.77003         6.39140
     2018.13004         2.60074         6.62779
     2018.13278        -3.88250         6.51347
     2018.13552        -3.40373         6.17387
     2018.13826        -2.78296         6.18275
     2018.14099        -7.87619         6.26266
     2018.14373       -15.89042         6.26377
     2018.14647       -10.87865         6.61003
     2018.14921        -5.71988         6.42247
     2018.15195        -6.03511         6.36476
     2018.15468        -7.29535         6.33369
     2018.15742        -6.86158         6.28929
     2018.16016        -9.31281         6.42136
     2018.16290        -7.13104         6.66885
     2018.16564        -9.74527         6.36365
     2018.16837        -9.42350         6.45133
     2018.17111        -7.04273         6.23713
     2018.17385       -12.11196         6.43912
     2018.17659        -6.83820         6.45687
     2018.17932        -1.81143         6.58561
     2018.18206        -3.14066         6.96295
     2018.18480         0.80811         6.64332
     2018.18754        -3.40212         6.47130
     2018.19028        -9.32435         6.39694
     2018.19301       -10.91258         6.67107
     2018.19575         6.46419         6.82533
     2018.19849        -3.38605         6.54233
     2018.20123         0.52172         6.45798
     2018.20397         0.56749         6.22936
     2018.20670        -4.79974         6.39694
     2018.20944        -2.70897         6.40471
     2018.21218        -5.73420         6.39029
     2018.21492       -15.56943         6.44467
     2018.21765         4.66434         6.48684
     2018.22039         8.40410         6.61336
     2018.22313        -6.36813         6.43468
     2018.22587        -8.60136         6.42580
     2018.22861       -11.55359         6.41470
     2018.23134        -9.43582         6.42025
     2018.23408        -7.93205         6.56120
     2018.23682        -5.86628         6.53123
     2018.23956       -12.94252         6.48018
     2018.24230       -10.16575         6.47574
     2018.24503        -6.34998         6.50127
     2018.24777        -1.48221         6.55343
     2018.25051         0.47356         6.46020
     2018.25598        -6.10990         6.54677
     2018.25872        -3.00513         6.73655
     2018.26146         6.20763         6.74653
     2018.26420         1.18640         6.87305
     2018.26694        -8.36283         6.69548
     2018.26967       -11.15306         6.45909
     2018.27241        -0.57629         6.50904
     2018.27515         2.67248         6.48018
     2018.27789        -3.22475         6.47796
     2018.28062        -6.35998         6.67662
     2018.28336        -7.69422         6.76873
     2018.28610         1.71655         6.72212
     2018.28884         2.38932         6.60781
     2018.29158        -0.72491         6.77872
     2018.29431        -5.69614         6.63888
     2018.29705       -11.41437         6.47463
     2018.29979        -7.68260         6.33590
     2018.30253       -11.11183         6.61669
     2018.30527        -8.04907         6.37475
     2018.30800        -6.72230         6.43357
     2018.31074        -8.40353         6.46242
     2018.31348        -8.22076         6.56453
     2018.31622        -3.45999         6.55898
     2018.31895        -3.53922         6.98070
     2018.32169        -2.96745         6.36254
     2018.32443         0.41132         6.42136
     2018.32717        -9.07692         6.49350
     2018.32991        -5.38515         6.94408
     2018.33264        -3.49438         6.62889
     2018.33538        -9.03961         6.75874
     2018.33812        -7.47384         6.92410
     2018.34086        -6.35707         6.71768
     2018.34360        -7.26830         6.44578
     2018.34633        -4.13153         6.48906
     2018.34907        -7.10977         6.46908
     2018.35181         5.28300         6.51015
     2018.35455        -2.31323         6.60670
     2018.35728        -3.62046         6.48684
     2018.36002        -3.99969         6.55898
     2018.36276         1.87608         6.46242
     2018.42853         3.80759         6.64110
     2018.43121         0.75830         6.70991
     2018.43394        -4.05093         6.55676
     2018.43668        11.65683         6.53012
     2018.43942        -2.20640         6.51125
     2018.44216         6.98437         6.47907
     2018.44490         1.63414         6.60115
     2018.44763         2.13191         6.73877
     2018.45037        -1.52632         6.55565
     2018.45311         6.78345         6.50904
     2018.45585         9.54722         6.53456
     2018.45859         8.28698         6.63888
     2018.46680        -1.11471         6.65442
     2018.47227         3.91883         6.92410
     2018.47775         5.87937         6.64887
     2018.48049        -0.21387         6.61447
     2018.48323        -2.23910         6.41692
     2018.48596        -3.89033         6.66774
     2018.49418         1.98198         6.48462
     2018.49692         2.80375         6.58339
     2018.49965         2.97952         6.59671
     2018.50239        -1.32872         6.55676
     2018.50513        -3.80195         6.58450
     2018.50787         0.51982         6.77539
     2018.51060        -7.50741         6.62113
     2018.51334        -1.13664         6.52901
     2018.51608         1.60413         6.58006
     2018.51882        -4.55010         6.86085
     2018.52156         4.38967         6.67773
     2018.52977         0.84197         6.76096
     2018.53251         2.77974         6.63000
     2018.53525        10.69751         6.57562
     2018.53798         2.56728         6.98181
     2018.54072         9.76105         6.51125
     2018.54620         6.84258         6.51569
     2018.54893        -0.82965         6.56453
     2018.55441         0.66589         6.57784
     2018.55989        -5.55157         6.90857
     2018.56262        -0.58580         6.68328
     2018.56810         2.52873         6.67662
     2018.57084         0.36850         6.53789
     2018.57357         2.40427         6.77539
     2018.57631         0.16904         6.78538
     2018.57905        -3.04219         7.02288
     2018.58179         5.98058         6.79537
     2018.58453         1.17635         6.97959
     2018.58726         6.11811         6.66219
     2018.59000         4.69588         6.70214
     2018.59274        10.18065         6.76429
     2018.59548         7.78142         6.72212
     2018.59822         5.15419         6.74321
     2018.60369         4.36473         6.78871
     2018.60643        10.25950         6.86861
     2018.60917         7.94926         6.71435
     2018.61190         3.36003         6.59782
     2018.61464         3.35680         6.50571
     2018.62286        13.35611         7.05950
     2018.62559         3.82388         6.79426
     2018.62833        -2.83335         6.54899
     2018.63107         7.45741         6.54677
     2018.63381         7.76118         6.86195
     2018.64476         2.26026         6.79537
     2018.64750         3.75203         6.71768
     2018.65085        11.49742         9.08934
     2018.65297        11.94256         6.62224
     2018.65571         6.43033         6.61225
     2018.65845         6.45610         6.52790
     2018.66119         9.60887         6.58894
     2018.66392         9.84864         6.57895
     2018.66666         6.44641         6.58117
     2018.66940         5.94418         6.49461
     2018.67214         2.42895         6.51569
     2018.67488         3.64271         6.46353
     2018.68035         5.95625         6.72434
     2018.68309        -3.38998         6.72434
     2018.68856         1.85356         6.59560
     2018.69130         1.88033         6.71213
     2018.69678         5.46286         6.47352
     2018.69952         3.07963         6.46353
     2018.76522        10.78008         6.66330
     2018.78713         0.07223         6.50349
     2018.79260        -1.79923         6.43468
     2018.79534         6.81854         6.44467
     2018.80629         6.07661         6.68217
     2018.80903         6.96638         6.64887
     2018.81177         1.61215         6.94186
     2018.81724         8.34869         6.57673
     2018.82272        20.79323         6.69548
     2018.82546        11.82200         6.84642
     2018.82820         5.35176         6.42913
     2018.83093         6.08053         6.52568
     2018.83367         8.81030         6.40582
     2018.83641         4.47607         6.70880
     2018.83915         3.30684         6.69992
     2018.84188         6.09361         6.97183
     2018.84462        -1.23362         6.56453
     2018.84736         2.54015         6.53678
     2018.85010         2.51891         6.40915
     2018.85557        -5.27655         6.52013
     2018.85831        -2.65678         6.51125
     2018.86379         1.32176         6.51015
     2018.92515        10.10881        16.48845
     2018.92676         4.93244         6.21494
     2018.92950         6.83121         6.37586
     2018.93497         3.38674         6.51569
     2018.93771         6.82551         6.52346
     2018.94045        11.56228         6.45244
     2018.94318         5.52205         6.58006
     2018.94592        12.63982         6.56453
     2018.94866         6.22959         6.95740
     2018.95140        10.25236         7.07060
     2018.95414        12.82313         6.70880
     2018.95687         5.24589         6.78205
     2018.95961        16.19966         6.57451
     2018.96509         0.51820         6.73766
     2018.96783         5.31597         6.74321
     2018.97056         5.89074         6.56564
     2018.97330        -3.68849         6.32148
     2018.97604         4.54628         6.73988
     2018.97878         0.08904         6.75763
     2018.98151        -7.78119         6.71435
     2018.98425         0.04258         6.86639
     2018.98973        -0.23388         6.58894
     2018.99247         2.56989         6.76984
     2018.99520         3.19866         6.95740
     2018.99794       -10.41157         6.51347
     2019.00068        -9.68081         6.64110
     2019.00342        -6.98304         6.67773
     2019.00616        -5.97227         6.84531
     2019.00889         0.08650         6.79093
     2019.01163        -1.72873         6.65997
     2019.01437         2.01904         6.61003
     2019.01711        10.16281         6.45022
     2019.01984        -2.87242         6.67329
     2019.02258        -1.64466         7.03398
     2019.02532         7.92211         6.83532
     2019.02806        -2.31112         6.61669
     2019.03080        -0.44235         6.67218
     2019.03353         2.68142         6.64665
     2019.03627        -5.49981         6.41803
     2019.03901        -3.10704         6.50349
     2019.04175        -0.50627         6.61114
     2019.04449         7.79849         6.82866
     2019.04722        -2.89174         7.02954
     2019.04996         6.42603         7.26482
     2019.05270        14.51580         7.20711
     2019.05544        -3.68743         6.86195
     2019.05817        -3.86966         6.87305
     2019.06091         1.78611         6.94852
     2019.06365        -3.18612         6.68771
     2019.06639         1.08164         6.66219
     2019.06913        -3.65759         6.76096
     2019.07186        -2.62782         6.77095
     2019.07460        -2.93005         6.61891
     2019.07734         1.94172         6.61003
     2019.08008         3.22749         6.58450
     2019.08282         4.29126         6.72767
     2019.08555         1.95703         6.85086
     2019.08829        10.70079         6.65775
     2019.09103        17.17956         6.75652
     2019.09377         5.24233         6.68550
     2019.09650         1.30610         6.43579
     2019.09924        -0.27613         6.35588
     2019.10198        -4.16336         6.33812
     2019.10472         0.91641         6.44689
     2019.10746        -3.04982         6.47907
     2019.11019       -10.43406         6.30372
     2019.11293         2.49071         6.70880
     2019.11567         3.55848         6.97183
     2019.11841        13.02125         6.52346
     2019.12388        10.58279         6.70103
     2019.12662         7.72756         6.50571
     2019.12936        -0.88467         6.31371
     2019.13210        -2.75191         6.43357
     2019.13483        -5.70814         6.31815
     2019.13757        -2.64337         6.45022
     2019.14031        -9.60060         6.42691
     2019.14305       -11.84283         6.37919
     2019.14579         5.15494         6.51125
     2019.14852        -1.52729         6.61336
     2019.15126         3.14948         6.52901
     2019.15400        -3.50776         6.31038
     2019.15674        -4.91399         6.33812
     2019.15948       -13.20922         6.43579
     2019.16221       -13.14645         6.53456
     2019.16495        -6.58368         6.30816
     2019.16769       -12.95791         6.17165
     2019.17316        -9.42637         6.36587
     2019.17590        -2.76061         6.61891
     2019.17864        -2.67084         6.42913
     2019.18138        -7.75907         6.37475
     2019.18412       -11.36330         6.34256
     2019.18685        -7.45953         6.33590
     2019.18959        -8.25676         6.35810
     2019.19233        -0.34599         6.57895
     2019.19507        -9.44622         6.47019
     2019.19780       -12.31446         6.45022
     2019.20054        -7.25969         6.74321
     2019.20328       -11.27492         6.63777
     2019.20602       -10.88915         6.40471
     2019.20876       -12.93938         6.56786
     2019.21149       -11.61761         6.48129
     2019.21423        -3.38284         6.72656
     2019.21697         5.47292         6.66996
     2019.21971        -7.11731         6.71213
     2019.22245         3.90946         6.56009
     2019.22518        -5.06577         6.44134
     2019.22792        -6.32400         6.68771
     2019.23066        -9.79223         6.49350
     2019.23340         1.37954         6.60892
     2019.23613        -7.69369         6.52346
     2019.23887        -9.73393         6.41581
     2019.24161        -6.85816         6.71768
     2019.24435        -7.90239         6.72101
     2019.24709        -2.08362         6.68439
     2019.24982        10.26815         6.59782
     2019.25256        -0.36708         6.67773
     2019.25530        -3.02731         6.59893
     2019.25804        11.50446         6.61558
     2019.26078        -4.44978         6.61669
     2019.26351        14.24699         6.79537
     2019.27545       -10.15193        12.85160
     2019.27831        -8.59904        16.24096
     2019.27994         0.56461         6.61558
     2019.28268         3.03837         6.51458
     2019.28542         3.68514         6.46353
     2019.28815        -1.89609         6.61780
     2019.29089        -8.87932         6.58672
     2019.29363        -6.12255         6.58117
     2019.29637        -4.76778         6.69881
     2019.29911        10.86499         6.54677
     2019.30184         1.22176         6.60004
     2019.30458       -11.32148         6.65775
     2019.30732       -13.62271         6.45909
     2019.31006        -2.56494         6.53012
     2019.31279        -9.81717         6.64221
     2019.31553        -5.02940         6.54899
     2019.31827        -4.71963         6.62113
     2019.32101        -9.49286         6.52790
     2019.32375       -10.85709         6.64332
     2019.32648        -7.20533         6.62002
     2019.32922        -8.86956         6.55010
     2019.33196        -8.81979         6.80535
     2019.33470        -8.71102         6.75652
     2019.33744        -4.59725         6.63888
     2019.34017        -7.86748         6.68660
     2019.34291        -4.48571         6.73211
     2019.34565        -5.91894         6.67773
     2019.34839       -10.57018         6.52235
     2019.35112        -8.65541         6.63444
     2019.35386        -7.26364         6.56453
     2019.35660        -2.79687         6.63444
     2019.35934        -2.42310         6.57562
     2019.36208         1.91267         6.56231
     2019.36481        -4.84656         6.58672
     2019.36755         6.69321         6.35699
     2019.37029         2.81397         6.78649
     2019.37303        -0.85026         6.69770
     2019.37577        -0.93749         6.81978
     2019.37850        11.63828         6.57340
     2019.38124        12.41905         6.62446
     2019.38398         7.58782         6.69104
     2019.38672        12.86659         6.57340
     2019.38945         3.75436         6.64110
     2019.39219         0.07512         6.74764
     2019.39493        -1.93111         6.70991
     2019.39767         9.53166         6.58672
     2019.40041        13.49043         6.68660
     2019.40314         8.17320         6.58228
     2019.40588         2.33997         6.70769
     2019.40862        -5.60626         6.74432
     2019.41136        -1.15449         6.70325
     2019.41410        -6.43773         6.47463
     2019.41683         2.24304         7.00623
     2019.41957        -1.42819         6.90413
     2019.42221        -5.10052         6.69104
     2019.42505        -2.82965         6.12726
     2019.42778         1.92812         6.39140
     2019.43025         2.20261         6.70214
     2019.43326        -8.29734         6.15279
     2019.43600       -10.06158         6.18386
     2019.43874        -6.60581         6.25489
     2019.44147       -11.96804         6.21383
     2019.44421        -2.88227         6.46908
     2019.44695        -5.01150         6.24823
     2019.44969        -3.03173         6.47463
     2019.45243        -5.49996         6.29373
     2019.45516        -5.19219         6.16832
     2019.45790        -7.05043         6.27265
     2019.46064        -7.34766         6.31815
     2019.46338        -6.90289         6.60892
     2019.46611         9.71788         6.59116
     2019.46885        -1.63735         6.43246
     2019.47159        -6.21058         6.29706
     2019.47433         0.96919         6.34700
     2019.47707         2.68396         6.34589
     2019.47980        -1.03728         6.33480
     2019.48254        -6.47851         6.46464
     2019.48528         6.24726         6.24157
     2019.48802        -3.32597         6.26155
     2019.49076        -7.42620         6.32148
     2019.49349         9.08357         6.26377
     2019.49623        -1.65366         6.34367
     2019.49899         0.74513         6.29151
     2019.50171        -3.99013         6.15945
     2019.50444        -5.32736         6.20051
     2019.50718        -8.25259         6.18497
     2019.50992        -0.45882         6.58450
     2019.51266         2.13695         6.34478
     2019.51540        -6.66028         6.18053
     2019.51813        -3.90051         6.33701
     2019.52087        -6.64874         6.27154
     2019.52361         0.15802         6.32814
     2019.52635         0.41579         6.30816
     2019.52908         0.14956         6.63111
     2019.53182        -2.86567         6.48795
     2019.53456        -4.24390         6.42247
     2019.53730        -1.30213         6.50127
     2019.54004        -5.34136         6.66663
     2019.54277         3.94540         6.42358
     2019.54551         2.42017         6.75319
     2019.54825         1.69494         6.27265
     2019.55099        -2.49829         6.39916
     2019.55373        -0.58852         6.49572
     2019.55646        -0.29675         6.52568
     2019.55920        -6.68498         6.60115
     2019.56194        -3.98821         6.30594
     2019.56468        -3.31245         6.43579
     2019.56741        -7.08868         6.35699
     2019.57015        -0.98091         6.22825
     2019.57289         5.95786         6.46575
     2019.57563         2.04263         6.37586
     2019.57837         5.09040         6.48462
     2019.58110        -0.15683         6.43801
     2019.58384        -3.76506         6.37364
     2019.58658        -1.90230         6.23158
     2019.58932         4.96347         6.34367
     2019.59206         2.84624         6.43135
     2019.59479         3.91901         6.45465
     2019.59753         5.57178         6.57673
     2019.60027         2.82855         6.65442
     2019.60301         7.67132         6.36587
     2019.60574         5.59409         6.58339
     2019.60848        14.07485         6.50349
     2019.61122        -2.37138         6.30705
     2019.61396        -0.91061         6.38474
     2019.61670         2.12916         6.29817
     2019.61943        12.07293         6.28152
     2019.62217         4.82970         6.47241
     2019.62491         4.31747         6.27265
     2019.62765         7.38524         6.24157
     2019.63312         1.55077         6.37586
     2019.63586        11.15554         6.48906
     2019.63860        13.92031         6.42802
     2019.64134         1.83808         6.33701
     2019.64407         1.52385         6.35921
     2019.64681        -6.73638         6.30483
     2019.64955        -0.24061         6.26266
     2019.65229         3.41215         6.27265
     2019.65503         1.22492         6.43246
     2019.65776        -6.10031         6.49017
     2019.66050        14.46746         6.57229
     2019.66324        -1.99477         6.22159
     2019.66598        -1.07000         6.38030
     2019.66872        -0.52923         6.35810
     2019.67145         1.06154         6.40249
     2019.67419         2.98830         6.43135
     2019.67715        11.00229         7.40465
     2019.67967        16.37284         6.66663
     2019.68240        -0.65839         6.39029
     2019.68514        -5.83062         6.41692
     2019.68788        18.55515         6.44134
     2019.69062        14.02092         6.30150
     2019.69336         3.22069         6.16721
     2019.69609         1.52845         6.15168
     2019.69883        -2.92578         6.31371
     2019.70157        -0.31701         6.26710
     2019.70431        -1.27624         6.20939
     2019.70705         7.66653         6.17720
     2019.70978         7.99630         6.25156
     2019.71209        16.89163         7.92293
     2019.71526        17.54484         6.27043
     2019.71800         7.58260         6.44578
     2019.72073         0.90437         6.57007
     2019.72347         1.96414         6.15057
     2019.72621         9.17591         6.20939
     2019.72895         6.41368         6.34256
     2019.73169         7.06145         6.34589
     2019.73442         1.06122         6.27376
     2019.73716        16.96999         6.40027
     2019.73990        13.79775         6.47130
     2019.74264         3.51952         6.33147
     2019.74538         8.22129         6.21494
     2019.74811         6.45106         6.36476
     2019.75485        16.46688        24.05291
     2019.75633         1.42237         6.29595
     2019.75906        -2.57386         6.11061
     2019.76180        -1.29710         6.09286
     2019.76454         1.04367         6.14502
     2019.76728        -0.59856         6.18497
     2019.77002         3.35421         6.13836
     2019.77275        -2.25702         6.22270
     2019.77549         0.72875         6.14058
     2019.77823         1.36552         6.10839
     2019.78097         3.12629         6.16721
     2019.78371         5.16505         6.12060
     2019.78644         1.93882         6.18053
     2019.78918         3.02859         6.23158
     2019.79192        18.73836         6.25378
     2019.79466         9.46213         6.15390
     2019.79739        11.20190         6.28707
     2019.80013        17.34367         6.12060
     2019.80287         2.47544         6.17054
     2019.80561        -5.82880         6.28818
     2019.80835        -5.27703         6.15501
     2019.81108        -3.66126         6.12393
     2019.81382        -0.21349         6.11505
     2019.81656         1.42728         6.19940
     2019.81930        -1.75695         6.10063
     2019.82203        -2.12918         6.12060
     2019.82477        -4.46941         6.09064
     2019.82751        -6.58665         6.12282
     2019.83025        -1.73088         6.26599
     2019.83299         1.69789         6.32592
     2019.83572         1.45366         6.16056
     2019.83846         3.81743         6.10728
     2019.84120         3.37420         6.13059
     2019.84394        -0.21203         6.30150
     2019.84668        -5.31526         6.20717
     2019.84941         1.38150         6.22159
     2019.85215         0.13527         6.21494
     2019.85489        -2.03296         6.21161
     2019.85763        -2.85519         6.21050
     2019.86036         0.37058         6.17498
     2019.86310        -2.06665         6.25156
     2019.86584         7.12212         6.43801
     2019.86858         2.51888         6.21383
     2019.87132        -2.05135         6.44911
     2019.87405         9.78242         6.13614
     2019.87679        -3.49881         6.26377
     2019.87953         9.95196         6.24601
     2019.88227        24.87573         6.22603
     2019.88687         1.16339        10.23578
     2019.89048         7.47803         6.16832
     2019.89322         9.69180         6.20162
     2019.89596         1.25157         6.23491
     2019.89771         6.70434        11.73402
     2019.90115        -4.63218         6.93076
     2019.90417         1.08288         6.03071
     2019.90691        -8.93035         6.00407
     2019.90965        -9.52558         6.07510
     2019.91238        -0.54282         6.00740
     2019.91512         6.75895         6.11394
     2019.91786        13.55172         6.11172
     2019.92060         9.85749         6.17609
     2019.92493        14.64387        15.50737
     2019.92881         1.63080         6.14058
     2019.93075         8.52776         9.93391
     2019.93429        14.34933         6.13725
     2019.93702        -1.52490         6.13836
     2019.93976        -1.24513         6.10617
     2019.94250        -1.05836         6.12171
     2019.94427        -9.15257        11.53869
     2019.94798        -7.63082         6.09841
     2019.94983        -6.74494        11.19021
     2019.95345         3.50372         6.04735
     2019.95619         0.93648         6.03071
     2019.95893        -4.28275         6.03515
     2019.96167         0.30002         6.05845
     2019.96339       -11.45724        12.75838
     2019.96714         1.85556         6.29373
     2019.96988         0.17133         6.15279
     2019.97195        -5.49858         8.97059
     2019.97473        -6.96677         8.67760
     2019.97809        -5.40637         6.06400
     2019.98083        -3.58960         6.06955
     2019.98276        -5.64364         9.87509
     2019.98631        -5.30406         6.06067
     2019.98904        -8.36429         6.07288
     2019.99178         1.86248         6.12504
     2019.99452        -5.04575         6.07843
     2019.99726         1.06102         6.18497
     2020.00000        16.63178         6.26377
     2020.00273         5.72555         6.30816
     2020.00547        -1.94368         6.33480
     2020.00821         4.98109         6.31149
     2020.01095        -2.30314         6.20162
     2020.01368        -8.91437         6.19607
     2020.01521         7.73317        21.72564
     2020.01916        -9.11383         6.06511
     2020.02190        -9.92907         6.16388
     2020.02415        -7.98879         7.80307
     2020.02737        -5.22053         6.12948
     2020.02890        -9.96898        20.76343
     2020.03285       -17.89999         6.08842
     2020.03559        -9.75422         5.95413
     2020.03833        -2.07545         5.94081
     2020.04106         0.15632         6.18275
     2020.04380        -7.58892         6.05845
     2020.04654        -6.84315         6.02405
     2020.04928        -3.56238         5.96301
     2020.05201        -8.41461         5.97633
     2020.05475        -3.90284         5.98742
     2020.05749        -1.31907         6.03071
     2020.06023        -0.92230         6.04735
     2020.06297        -0.72353         6.09730
     2020.06570         0.43923         6.12726
     2020.06823         6.08179         6.65331
     2020.07118        -0.02623         6.16943
     2020.07392         8.00654         6.25156
     2020.07666        -6.98869         6.00518
     2020.07861         2.95429         9.84290
     2020.08213        -4.49915         6.04846
     2020.08487        -5.04838         6.10284
     2020.08761         0.58038         6.02627
     2020.09034        -5.85985         5.97744
     2020.09308        -9.21208         5.86867
     2020.09582       -10.52331         5.95524
     2020.09856         7.68446         6.09619
     2020.10036       -10.28071        12.13910
     2020.10403        -6.81200         6.13059
     2020.10677       -11.95723         5.97522
     2020.10951       -13.15047         6.02960
     2020.11225       -12.80970         6.07288
     2020.11498        -7.23693         6.04181
     2020.11772       -11.19616         6.23158
     2020.12046       -10.68939         6.33036
     2020.12307       -15.94175         6.35144
     2020.12594       -10.96185         6.14835
     2020.12867       -11.93608         6.00407
     2020.13141       -12.09232         5.94747
     2020.13415       -14.92055         5.94969
     2020.13689        -8.71478         6.14946
     2020.13963        -7.02701         6.20828
     2020.14236        -7.87524         6.10174
     2020.14510        -4.08747         6.10063
     2020.14661        17.49405        23.21500
     2020.15058       -12.03993         6.05401
     2020.15331       -12.79917         6.16277
     2020.15605       -12.76240         6.13947
     2020.15879        -7.90263         6.11616
     2020.16153        -6.64086         6.04070
     2020.16427        -6.25109         6.00407
     2020.16700        -3.81832         6.04624
     2020.16974        -9.02455         6.12393
     2020.17124       -16.29604        24.80536
     2020.17522        -7.19702         6.07510
     2020.17796        -4.30125         6.05512
     2020.18062        -8.24256         6.31815
     2020.18343        -6.80171         5.96856
     2020.18591       -17.70221         6.70436
     2020.18891        -8.80117         6.13947
     2020.19164        -7.11540         6.11949
     2020.19438        -6.69864         6.16056
     2020.19629        -8.18170        10.41113
     2020.19929       -14.24267         8.23146
     2020.20260       -13.69533         6.04070
     2020.20533       -10.30956         6.13170
     2020.20807        -0.74479         6.10506
     2020.20981        -4.13404        13.74278
     2020.21355        -7.95225         6.63777
     2020.21629        -6.10949         6.43024
     2020.21902        -8.90772         6.30927
     2020.22176        -5.57995         6.11949
     2020.22450        -3.69718         6.15834
     2020.22643        -1.53723         9.97497
     2020.22931        -2.60031         8.63321
     2020.23162        -3.18598        15.25656
     2020.23518        -5.61538         6.79537
     2020.23819        -4.86834         6.11061
     2020.24043         3.55593         7.70541
     2020.24296        -1.59151         8.91399
     2020.24528         1.57384        17.51613
     2020.24914        -6.69126         6.16388
     2020.25188       -12.92149         6.07843
     2020.25462       -10.21772         6.10063
     2020.25735        -4.04095         6.09397
     2020.26009         5.95781         6.17165
     2020.26210         1.89084         9.14150
     2020.26557        -8.28165         6.15723
     2020.26830        -9.11888         6.08620
     2020.27104        -7.47511         6.17942
     2020.27378        -7.18334         6.17498
     2020.27652        -9.89757         6.20939
     2020.27926        -5.13980         6.16832
     2020.28199        -8.54704         6.18608
     2020.28473       -12.72027         6.18608
     2020.28747        -1.22850         6.25711
     2020.28956        -6.78339         8.68093
     2020.29295        -9.79396         6.14502
     2020.29568        -4.01419         6.13725
     2020.29842        -3.18442         6.18053
     2020.30116        -4.32265         6.19052
     2020.30390        -6.30489         6.10506
     2020.30663        -2.94812         6.17609
     2020.30937        -1.54035         6.51458
     2020.31211        -4.87258         6.30927
     2020.31485         1.26219         6.19274
     2020.31759        -6.47004         6.12726
     2020.31969        -4.45992         8.13491
     2020.32211         0.01853        11.56422
     2020.32500        -6.25955         9.31796
     2020.32854        -9.09497         6.05512
     2020.33128       -10.41520         6.05512
     2020.33401        -2.12643         6.10063
     2020.33582         8.01740        10.98490
     2020.33949       -10.58289         6.10395
     2020.34223       -13.53112         6.17831
     2020.34496       -13.28035         6.19163
     2020.34770       -10.06559         6.04957
     2020.35044        -8.94682         6.15168
     2020.35318       -13.14705         6.15723
     2020.35592        -8.89728         6.25489
     2020.35865        -5.18351         6.11949
     2020.36139        -5.02674         6.08731
     2020.36413         4.31203         6.06067
     2020.36687         5.77880         6.17054
     2020.36961        -3.63344         6.17387
     2020.37112        -1.59291        21.10637
     2020.37431        -3.25368         9.13485
     2020.37782         8.11687         6.04513
     2020.38056        -2.72936         5.95746
     2020.38329        -3.08859         5.93859
     2020.38603        -2.15282         6.02072
     2020.38877        -7.54805         6.12393
     2020.39151       -11.34929         6.02183
     2020.39425       -10.17752         6.01628
     2020.39698       -10.74075         6.01073
     2020.39972       -12.92698         6.01406
     2020.40246       -11.70821         5.99297
     2020.40520       -11.84344         6.12504
     2020.40794        -3.29167         6.19163
     2020.41010        -7.74548         7.82860
     2020.41341        -4.94514         6.00851
     2020.41615       -16.10237         5.97966
     2020.41889        -8.72960         5.96523
     2020.42162        -8.08283         6.12948
     2020.42436       -13.82006         6.27154
     2020.42656        -7.22484         7.94513
     2020.42984        -5.72352         6.12504
     2020.43258        -6.59975         6.05068
     2020.43531       -10.35599         6.11172
     2020.43805        -8.21522         6.22492
     2020.44079       -11.83845         6.21605
     2020.44353        -1.79468         6.24490
     2020.44626       -12.89391         6.01406
     2020.44900        -6.98614         6.08398
     2020.45174        -2.02037         6.05734
     2020.45448        -7.80960         5.96301
     2020.45722       -10.30584         6.05845
     2020.45995        -4.81607         5.98299
     2020.46269       -15.37530         6.11505
     2020.46543        -9.29953         6.03515
     2020.46817        -6.32176         6.07954
     2020.47091        -6.70699         6.10063
     2020.47364       -11.58822         5.97966
     2020.47638        -4.06245         6.13392
     2020.47912        -6.69769         6.19163
     2020.48186        -7.36192         6.06844
     2020.48459        -8.41015         6.13170
     2020.48733        -4.84238         6.43468
     2020.49281        -1.07784         6.16166
     2020.49828        -5.34630         6.02960
     2020.53388        -6.12831         6.19829
     2020.53661        -7.38754         6.11283
     2020.53935        -7.51277         6.10839
     2020.54209        -9.26901         6.39251
     2020.54483        -7.97524         6.22714
     2020.54757        -3.99747         6.22936
     2020.55030        -2.06470         6.22381
     2020.55304        -1.46393         6.17165
     2020.55578        -5.62016         6.29484
     2020.55852         3.77961         6.30261
     2020.56125        -3.64962         6.20939
     2020.56399        -0.44086         6.18830
     2020.56673        -2.79009         6.12282
     2020.56947        -4.73232         6.17498
     2020.57221        -7.85855         6.43357
     2020.57494         4.88322         6.48240
     2020.57768        -4.64501         6.40582
     2020.58042         0.81476         6.21272
     2020.58316       -10.36147         6.30594
     2020.58590        -6.55271         6.40582
     2020.59137        -4.59817         6.21161
     2020.59411         4.24760         6.22048
     2020.59685        18.80037         6.69881
     2020.59958        -5.54586         6.33812
     2020.60232        -8.71609         6.21937
     2020.60506        -7.59632         6.16832
     2020.61054         2.64921         6.18164
     2020.61327        -6.74902         6.20828
     2020.61601        -3.12525         6.22603
     2020.61875        -6.90948         6.21937
     2020.62149        -7.60871         6.19940
     2020.62423         1.28106         6.40249
     2020.62696        -8.93117         6.25600
     2020.62970        -7.93841         6.28263
     2020.63518         1.08513         6.38696
     2020.63791         0.31490         6.43579
     2020.64339        -7.16756         6.34034
     2020.64613        -3.26379         6.39140
     2020.64887        -5.40702         6.32592
     2020.65160        -0.81326         6.18941
     2020.65434         0.35151         6.19385
     2020.65708        -3.86272         6.15612
     2020.65982        -4.44495         6.15168
     2020.66256        -3.23618         6.20051
     2020.66529         2.56459         6.24823
     2020.66803         1.28836         6.25933
     2020.67351        -2.31011         6.29151
     2020.67624        -3.87534         6.19274
     2020.67898        -3.48257         6.23824
     2020.68172        -1.00380         6.16388
     2020.68446        -1.34503         6.20495
     2020.68720        -3.03726         6.18608
     2020.68993        -1.17449         6.18719
     2020.69267        -0.04572         6.31926
     2020.69541         1.05304         6.48351
     2020.69815         2.32381         6.31926
     2020.70089         0.73958         6.08731
     2020.70362        -3.50965         6.19940
     2020.70636        -7.09188         6.46020
     2020.70910        -1.60311         6.44023
     2020.71184        -1.99934         6.35255
     2020.71457         1.05843         6.38141
     2020.71731         9.33519         6.35144
     2020.72005        -0.94304         6.38363
     2020.72279        -1.90327         6.20051
     2020.89527         7.67816         6.40471
     2020.89801         6.85393         6.36032
     2020.90075        12.17070         6.25933
     2020.90349         6.88647         6.20384
     2020.90622         2.96124         6.21937
     2020.90896         4.88001         6.56675
     2020.91170         5.54777         6.51015
     2020.91444         9.20554         6.55010
     2020.91718        -1.79269         6.21827
     2020.91991        -3.16192         6.23380
     2020.92265        -0.07315         6.27043
     2020.92539        -2.07138         6.27487
     2020.92813        -5.48261         6.23713
     2020.93086         0.93416         6.27265
     2020.93360         1.60992         6.19163
     2020.93634         1.43269         6.31815
     2020.93908        -5.00154         6.28485
     2020.94182        -4.03677         6.15834
     2020.94455         0.32500         6.21383
     2020.94729        -5.67423         6.17276
     2020.95003        -2.13046         6.37808
     2020.95277       -10.92969         6.25267
     2020.95551         1.40907         6.24046
     2020.95824        -0.43416         6.33258
     2020.96098         8.67561         6.19718
     2020.96372        -4.63262         6.17831
     2020.96646         3.63915         6.48240
     2020.96919        16.17292         6.44800
     2020.97193         6.22369         6.32925
     2020.97467         4.05846         6.25711
     2020.97741        -2.73978         6.15723
     2020.98015        -5.72001         6.34478
     2020.98288         4.84476         6.42025
     2020.98562        10.61253         6.34145
     2020.98836        10.68130         6.12504
     2020.99110         4.24807         6.05845
     2020.99384         0.62184         6.08620
     2020.99657         3.65161         6.32481
     2020.99931        12.70437         6.26821
     2021.00205        -0.03586         6.22714
     2021.00479        11.31091         6.21716
     2021.00752        22.79768         6.23047
     2021.01026        20.61045         6.24268
     2021.01300         4.82122         6.15390
     2021.01574         5.71699         6.28818
     2021.01848         8.98876         6.22603
     2021.02121        -0.30748         6.09841
     2021.02395         0.83629         6.07066
     2021.02669        -0.32494         6.10063
     2021.02943         1.39283         6.16166
     2021.03216        10.01660         6.30372
     2021.03490        14.43537         6.32814
     2021.03764        -0.26986         6.20606
     2021.04038        -0.62909         6.29040
     2021.04312         1.04167         6.20939
     2021.04585        -2.48356         6.31482
     2021.04859         3.93121         6.21937
     2021.05133        -3.09802         6.09508
     2021.05407        -0.98925         6.35921
     2021.05681         1.17952         6.32148
     2021.05954        -3.58171         6.11727
     2021.06228        -1.54694         6.13836
     2021.06502        -0.73318         6.00407
     2021.06776         4.90959         6.04846
     2021.07049        -1.37164         6.02627
     2021.07323         5.21213         6.12171
     2021.07597        -2.47910         6.18608
     2021.07871        -0.79833         6.08842
     2021.08145        -3.67656         6.16721
     2021.08418        -8.73279         6.30039
     2021.08692        -0.52303         6.29040
     2021.08966         4.15274         6.35921
     2021.09240        -2.95049         6.19052
     2021.09514        -5.87372         6.26488
     2021.09787        -6.21995         6.48795
     2021.10061        -1.30918         6.31038
     2021.10335         3.11659         6.19829
     2021.10609        -5.33964         6.14946
     2021.10882        -4.11188         6.23824
     2021.11156        -8.04411         6.22048
     2021.11430        -4.62534         6.31482
     2021.11704         1.95743         6.07732
     2021.11978        -0.39880         6.14280
     2021.12251        -2.65703         6.18164
     2021.12525         3.51974         6.34034
     2021.12799        -6.45749         6.30705
     2021.13073        -5.42873         6.07843
     2021.13347        -2.94696         6.36365
     2021.13620         1.11481         6.25933
     2021.13894        -5.13442         6.13170
     2021.14168        -7.31465         6.08398
     2021.14442        -4.14688         6.36476
     2021.14715        -3.61311         6.27154
     2021.14989        -9.74434         6.10728
     2021.15263        -5.20658         6.46575
     2021.15537        13.05919         6.36920
     2021.15811        -2.63904         6.38030
     2021.16084        -0.85027         6.23713
     2021.16358         0.09150         6.31371
     2021.16632         0.27027         6.41803
     2021.16906         2.67304         6.20939
     2021.17180        -3.65420         6.18941
     2021.17453        -3.43143         6.43579
     2021.17727        -0.47966         6.41914
     2021.18001        -4.30789         6.34478
     2021.18275        -3.82912         6.49239
     2021.18548       -11.00135         6.11061
     2021.18822        -8.08758         6.08509
     2021.19096        -4.15081         6.08953
     2021.19370        -5.23505         6.28041
     2021.19644        -6.66928         6.31593
     2021.19917        -7.11051         6.20162
     2021.20191        -6.03974         6.07510
     2021.20465        -1.09097         6.08065
     2021.20739        -3.21820         6.22492
     2021.21013         5.14657         6.40915
     2021.21286        -5.78266         6.34478
     2021.21560        -1.26790         6.20162
     2021.21834        -4.90313         6.05401
     2021.22108         0.24464         6.36920
     2021.22381        -6.31359         6.14058
     2021.22655        -5.43782         6.36254
     2021.22929         5.82595         6.11727
     2021.23203         0.81772         6.04513
     2021.23477        -8.70351         6.19385
     2021.23750        -7.72575         6.34589
     2021.24024        -7.41698         6.25822
     2021.24298        -3.24921         6.08953
     2021.24572        -5.75344         6.18608
     2021.24846        -2.06967         6.37253
     2021.25119        -3.93290         6.28596
     2021.25393        -3.22913         6.27154
     2021.25667        -1.37636         6.18719
     2021.25941         3.93040         6.24046
     2021.26214        -1.54583         6.15390
     2021.26488         0.61994         6.18941
     2021.26762         0.63671         6.44134
     2021.27036        -1.58252         6.27376
     2021.27310        -6.26175         6.28485
     2021.27583        -3.71598         6.14724
     2021.27857        -4.80021         6.19829
     2021.28131        -1.79945         6.24490
     2021.28405        -2.26968         6.25378
     2021.28679        -2.27691         6.26044
     2021.28952         1.08486         6.27043
     2021.29226        -5.67537         6.30927
     2021.29500        -1.05060         6.28374
     2021.29774        -1.36683         6.44578
     2021.30047        -1.93006         6.37475
     2021.30321         4.56170         6.33369
     2021.30595         5.21147         6.45798
     2021.30869        13.78124         6.45465
     2021.31143        11.73701         6.32148
     2021.31416         5.61578         6.27265
     2021.31690         6.56355         6.26932
     2021.31964         0.04932         6.39362
     2021.32238        -0.48491         6.33480
     2021.32512        -9.38915         6.33369
     2021.32785        -0.24238         6.34145
     2021.33059        13.47739         6.41137
     2021.33333         9.10716         6.26710
     2021.33607        -5.16307         6.21161
     2021.33880        -4.21830         6.24934
     2021.34154        -2.08853         6.25711
     2021.34428         4.86424         6.55010
     2021.34702        -1.61600         6.30594
     2021.34976        -2.13323         6.34256
     2021.35249        -8.85446         6.23269
     2021.35523        -2.29969         6.30705
     2021.35797        -4.23292         6.28485
     2021.36071        -3.01215         6.33812
     2021.36344        -3.85338         6.33701
     2021.36618        -9.96561         6.28152
     2021.36892        -6.53485         6.27598
     2021.37166        -1.78108         6.39140
     2021.37440        -4.64531         6.56342
     2021.37713         6.37946         6.46686
     2021.37987        -3.40877         6.51902
     2021.38261        -4.01600         6.61558
     2021.38535        -2.51223         6.56342
     2021.38809        11.30954         6.54899
     2021.39082        16.07030         6.43912
     2021.39356        -6.92993         6.40471
     2021.39630         5.83684         6.46575
     2021.39904        -3.09439         6.38807
     2021.40177         1.89638         6.41248
     2021.40451        -0.49485         6.60337
     2021.40725        -1.87108         6.38474
     2021.40999         0.20869         6.32814
     2021.41273        -1.02755         6.43024
     2021.41546        -4.49878         6.42025
     2021.41820         1.59899         6.44800
     2021.42094        13.88676         6.43579
     2021.42368        -1.02347         6.51458
     2021.42642        -3.86770         6.57007
     2021.42915         8.26407         6.56786
     2021.43189         3.06584         6.37142
     2021.43463        14.40960         6.41470
     2021.43737         5.88037         6.43024
     2021.44010         4.95214         6.44689
     2021.44284         4.47691         6.50016
     2021.44558        15.31868         6.69326
     2021.44832        -1.47155         6.65220
     2021.45106         8.85722         6.72878
     2021.45379        18.09199         6.66441
     2021.45653        -2.19225         6.55676
     2021.45927         2.54652         6.36698
     2021.46201        -0.44571         6.39694
     2021.46475        -2.70894         6.53567
     2021.46748        -1.24717         6.39694
     2021.47022         5.03960         6.54233
     2021.47296         6.12537         6.84642
     2021.47570        -0.64986         6.64443
     2021.48117         0.21767         6.44023
     2021.48391        -6.58756         6.40471
     2021.48665        -5.10879         6.47352
     2021.48939        11.86098         6.47019
     2021.49212         8.22075         6.68550
     2021.49486         1.22552         6.50571
     2021.49760         5.01428         6.97959
     2021.50034        -1.87095         6.59005
     2021.50308         0.43482         6.67329
     2021.50581         2.48459         6.46464
     2021.50855         0.03236         6.52568
     2021.51129         8.05813         6.55787
     2021.51403        -4.65610         6.59005
     2021.51676         4.28467         6.56675
     2021.51950        -0.12657         6.60559
     2021.52224         2.96120         6.44356
     2021.52498         2.54597         6.39694
     2021.52772         5.62374         6.35255
     2021.53045        -2.77549         6.43912
     2021.53319         2.26628         6.40249
     2021.53593        -4.28295         6.70214
     2021.53867         1.47082         6.87305
     2021.54141         4.13558         6.56009
     2021.54414        -7.04265         6.54011
     2021.54688        -2.20088         6.58561
     2021.54962         2.90489         6.44911
     2021.55236         3.14866         6.55454
     2021.55509         2.67343         6.56897
     2021.55783        -7.97080         6.46131
     2021.56057        -0.76603         6.41026
     2021.56331         5.68973         6.36254
     2021.56605         8.32250         6.37142
     2021.56878         5.05927         6.42358
     2021.57152         1.17304         6.52790
     2021.57426        -1.42119         6.62557
     2021.57700         5.96958         6.81423
     2021.57974        -0.70565         6.36920
     2021.58247        -2.89188         6.53234
     2021.58521        -1.76112         6.88526
     2021.58795        -6.92735         6.47463
     2021.59069         2.84942         6.66552
     2021.59342         1.35619         6.46131
     2021.59616        -0.81404         6.53900
     2021.59890        -1.32427         6.35810
     2021.60164         1.39950         6.51791
     2021.60438         6.04227         6.29817
     2021.60711         3.70803         6.36809
     2021.60985        -0.42020         6.30594
     2021.61259         3.84157         6.42136
     2021.61533         5.26434         6.46464
     2021.61807         3.40511         6.29817
     2021.62080         4.61588         6.41581
     2021.62354        -3.07535         6.35144
     2021.62628         6.30242         6.60226
     2021.62902         5.44718         6.30927
     2021.63175         5.37695         6.30927
     2021.63723         9.61649         6.67107
     2021.63997         5.55726         6.50793
     2021.64271         1.83703         6.40915
     2021.64544         4.53280         6.33701
     2021.64818         4.63157         6.37364
     2021.65092        10.06433         6.36809
     2021.65366         8.26610         6.40249
     2021.65639         1.09487         6.35144
     2021.65913        -1.26636         6.32703
     2021.66187        -0.13759         6.36476
     2021.66461         0.93818         6.31371
     2021.66735        10.55195         6.33590
     2021.67008         3.81172         6.47574
     2021.67282         9.28748         6.63111
     2021.67556         4.90525         6.61003
     2021.67830         0.37602         6.51347
     2021.68104         4.46679         6.30483
     2021.68377        10.57856         6.29706
     2021.68651         3.46033         6.58561
     2021.68925         9.88410         6.52013
     2021.69199        17.73887         6.47907
     2021.69472         6.91963         6.33701
     2021.69746         7.37440         6.47463
     2021.70020        10.72317         6.37697
     2021.70294         4.91594         6.32370
     2021.70568         6.07971         6.41359
     2021.70841         4.70048         6.25933
     2021.71115         5.53425         6.33258
     2021.71389         9.23702         6.72323
     2021.71663        23.12878         6.48906
     2021.71937         5.78755         6.30483
     2021.72210        -3.98368         6.36365
     2021.72484        -4.91191         6.35033
     2021.72758         5.20886         6.33258
     2021.73032        -3.31937         6.62557
     2021.73305         8.80740         6.35033
     2021.73579         6.12717         6.33258
     2021.73853        11.64293         6.46686
     2021.74127        16.33770         6.33036
     2021.74401         5.64347         6.44356
     2021.74674         9.86924         6.36920
     2021.74948         7.70201         6.45022
     2021.75222         0.28178         6.36032
     2021.75496         6.35955         6.44245
     2021.75770         6.89632         6.34589
     2021.76043         9.25308         6.39583
     2021.76317         6.06985         6.50793
     2021.76591         4.39962         6.34478
     2021.76865         6.61239         6.36809
     2021.77138         6.39816         6.28818
     2021.77412         5.76993         6.35588
     2021.77686        13.83770         6.29484
     2021.77960        10.82347         6.34145
     2021.78234         6.70923         6.37253
     2021.78507        11.52900         6.28374
     2021.78781         6.65877         6.29595
     2021.79055         2.19554         6.34700
     2021.79329         4.91231         6.40804
     2021.79603        15.92308         6.23713
     2021.79876         8.84785         6.22492
     2021.80150        14.58862         6.48018
     2021.80424         7.48738         6.60004
     2021.80698        27.46515         6.45354
     2021.80971        22.24092         6.41137
     2021.81245        28.37969         6.65553
     2021.81519        21.47146         6.29151
     2021.81793        21.90623         6.37364
     2021.82067        10.84500         6.66552
     2021.82340        19.45376         6.44467
     2021.82614        11.02253         6.46464
     2021.82888        19.13130         6.45909
     2021.83162         3.71107         6.31815
     2021.83436        16.62984         6.46908
     2021.83709        22.29761         6.45244
     2021.83983        -0.26962         6.60892
     2021.84257        20.26315         6.57340
     2021.84531         4.39991         6.50127
     2021.84804        18.49968         6.50460
     2021.85078         6.47045         6.40027
     2021.85352        10.28022         6.31371
     2021.85626        15.15999         6.51347
     2021.85900         4.31976         6.32925
     2021.86173        11.60553         6.51015
     2021.86447         4.29930         6.62889
     2021.86721        10.32506         6.72212
     2021.86995         9.75283         6.59338
     2021.87269         3.82560         6.53900
     2021.87542         7.22537         6.64554
     2021.87816        -3.96186         6.20717
     2021.88090         0.83791         6.39583
     2021.88364        18.03068         6.46020
     2021.88637        -5.17655         6.26044
     2021.88911        -4.50779         6.25045
     2021.89185         0.52298         6.28818
     2021.89459        -1.01025         6.41803
     2021.89733         1.16152         6.22381
     2021.90006        -3.81071         6.39251
     2021.90280         2.59306         6.45022
     2021.90554         6.80483         6.39694
     2021.90828         1.36760         6.40693
     2021.91102         1.76036         6.37919
     2021.91375        -2.88487         6.37697
     2021.91649        -5.35510         6.23824
     2021.91923         4.82267         6.55232
     2021.92197        -4.77856         6.65886
     2021.92470         0.09721         6.46797
     2021.92744         1.40198         6.47796
     2021.93018        -1.39725         6.46242
     2021.93292        15.56851         6.69548
     2021.93566        21.79628         6.74653
     2021.93839         2.16405         6.46353
     2021.94113        11.19182         6.61336
     2021.94387        15.33359         6.56231
     2021.94661         2.48936         6.43024
     2021.94935         1.01413         6.39916
     2021.95208         4.44190         6.31482
     2021.95482         5.26166         6.47019
     2021.95756        11.06043         6.53567
     2021.96030         2.06520         6.58450
     2021.96303         3.90097         6.55232
     2021.96577        15.78174         6.67440
     2021.96851        14.47451         6.71213
     2021.97125         8.06228         6.71435
     2021.97399         9.07205         6.68882
     2021.97672        10.32981         6.61225
     2021.97946        11.49558         6.42580
     2021.98220         9.61335         6.46353
     2021.98494        12.95512         6.40471
     2021.98767         7.04289         6.33590
     2021.99041         7.82966         6.28596
     2021.99315         7.55543         6.34367
     2021.99589         8.44520         6.26266
     2021.99863        -3.27304         6.34589
     2022.00136         8.91973         6.30927
     2022.00410         1.91650         6.36365
     2022.00684        -3.52073         6.47241
     2022.00958        -1.37796         6.33036
     2022.01232         5.57081         6.60226
     2022.01505        14.77958         6.57229
     2022.01779        15.13235         6.53567
     2022.02053         3.42511         6.43357
     2022.02327        -0.80312         6.79870
     2022.02600        -6.34935         6.57562
     2022.02874        -1.26158         6.56675
     2022.03148        -5.69881         6.52790
     2022.03422         1.60696         6.53789
     2022.03696        -4.95327         6.39916
     2022.03969       -11.92850         6.42691
     2022.04243        -2.43574         6.39583
     2022.04517        -2.41097         6.42913
     2022.04791        -1.58820         6.49350
     2022.05065        -1.97943         6.46353
     2022.05338         4.60434         6.55010
     2022.05612       -12.62289         6.49128
     2022.05886       -11.90312         6.48462
     2022.06160        -8.55635         6.49683
     2022.06433        -1.37259         6.49794
     2022.06707        -9.38882         6.46464
     2022.06981        -0.27905         6.44467
     2022.07255       -11.44428         6.33923
     2022.07529        -6.98951         6.25489
     2022.07802        -3.76874         6.27709
     2022.08076         2.03003         6.31704
     2022.08350        -2.68720         6.35921
     2022.08624         1.94556         6.18719
     2022.08898         2.62633         6.24823
     2022.09171         1.12110         6.36476
     2022.09445        -6.17113         6.31038
     2022.09719        -7.45236         6.34034
     2022.09993        -6.06159         6.50793
     2022.10266        -8.29482         6.57118
     2022.10540        -5.71605         6.39805
     2022.10814         3.33671         6.55898
     2022.11088        -2.06252         6.28485
     2022.11362         1.73025         6.33812
     2022.11635         2.75702         6.35255
     2022.11909        -0.93421         6.35144
     2022.12183        10.73756         6.43912
     2022.12457         8.87633         6.43690
     2022.12731        -2.36290         6.23602
     2022.13004        -8.16414         6.33701
     2022.13278        -3.31137         6.38363
     2022.13552         1.04640         6.31371
     2022.13826         0.66217         6.41914
     2022.14099        -2.08206         6.16277
     2022.14373       -19.09229         6.16721
     2022.14647         1.82448         6.20939
     2022.14921         4.06024         6.52235
     2022.15195         1.46801         6.49905
     2022.15468        -4.52922         6.20273
     2022.15742        12.05255         6.42802
     2022.16016         4.23332         6.37031
     2022.16290         8.84609         6.42469
     2022.16564        10.65386         6.44134
     2022.16837         7.00263         6.38141
     2022.17111        -2.97561         6.23713
     2022.17385         0.22516         6.28818
     2022.17659         0.53993         6.29928
     2022.17932        -1.71030         6.40693
     2022.18206        -1.37253         6.39472
     2022.18480        -8.38476         6.22381
     2022.18754        -2.53499         6.29706
     2022.19028        -2.55522         6.50460
     2022.19301         1.49854         6.42247
     2022.19575         9.26831         6.32703
     2022.19849        -4.16292         6.43357
     2022.20123        15.60585         6.39251
     2022.20397         5.30762         6.33923
     2022.20670        -0.48461         6.56897
     2022.20944        -0.12484         6.49905
     2022.21218         4.49393         6.38363
     2022.21492        -3.16331         6.26821
     2022.21765         0.76246         6.30705
     2022.22039        -0.57977         6.40360
     2022.22313        -3.50800         6.41137
     2022.22587        -4.19623         6.50016
     2022.22861        -2.21546         6.53900
     2022.23134         4.69631         6.40693
     2022.23408         4.56808         6.39472
     2022.23682         5.83484         6.57007
     2022.23956         4.76761         6.36254
     2022.24230         2.51238         6.40804
     2022.24503        -0.53585         6.34145
     2022.24777         6.91492         6.35477
     2022.25051        -2.33131         6.38252
     2022.25325        -1.22554         6.40249
     2022.25598        12.99323         6.42136
     2022.25872         3.55499         6.40138
     2022.26146        -4.04924         6.34145
     2022.26420         0.12753         6.37586
     2022.26694         1.75230         6.53456
     2022.26967         2.49907         6.41137
     2022.27241         4.81884         6.34145
     2022.27515         8.41861         6.44689
     2022.27789         2.30538         6.27819
     2022.28062         0.48614         6.29262
     2022.28336        -1.55609         6.39472
     2022.28610         2.96968         6.45022
     2022.28884        -1.03955         6.39694
     2022.29158       -10.18178         6.31704
     2022.29431        -1.42601         6.34034
     2022.29705         0.95476         6.37031
     2022.29979        -0.42447         6.32925
     2022.30253         3.32229         6.58783
     2022.30527         4.98606         6.45687
     2022.30800        -2.59217         6.29040
     2022.31074        -1.10040         6.40360
     2022.31348        -6.94063         6.36476
     2022.31622        -2.20586         6.38474
     2022.31895       -17.05609         6.52124
     2022.32169         2.94068         6.40249
     2022.32443        -1.24156         6.41026
     2022.32717         3.78721         6.42802
     2022.32991        -3.31802         6.36365
     2022.33264         1.45075         6.56786
     2022.33538        -3.95048         6.51569
     2022.33812        -4.54171         6.53456
     2022.34086         8.07606         6.39472
     2022.34360         7.33083         6.53567
     2022.34633         9.52259         6.35477
     2022.34907        -5.20764         6.39140
     2022.35181         1.07813         6.26599
     2022.35455        -2.95410         6.31149
     2022.35728        -4.31433         6.30261
     2022.36002         3.16944         6.29484
     2022.36276         7.79421         6.36143
     2022.36550         7.08698         6.27043
     2022.36824         0.75174         6.33258
     2022.37097        -2.77649         6.37919
     2022.37371       -12.09172         6.27265
     2022.37645        -4.31795         6.46353
     2022.37919        -6.56518         6.45687
     2022.38193        -5.05641         6.42691
     2022.38466       -12.92464         6.30705
     2022.38740       -23.01887         6.23935
     2022.39014        -2.41111         6.34367
     2022.39288        -4.01134         6.36254
     2022.39561        -6.62657         6.39472
     2022.39835        -4.26980         6.42247
     2022.40109        -3.20103         6.51680
     2022.40383         8.41674         6.37253
     2022.40657        11.62251         6.31593
     2022.40930        -9.54072         6.47685
     2022.41204         4.51604         6.40360
     2022.41478        -9.11419         6.29817
     2022.41752        -0.43642         6.49350
     2022.42026         8.48535         6.45244
     2022.42299        11.07612         6.36698
     2022.42573        14.29889         6.67662
     2022.42847         5.64966         6.39916
     2022.43121         4.02243         6.42802
     2022.43394         6.13319         6.53123
     2022.43668        -8.86304         6.42580
     2022.43942        -2.21527         6.41248
     2022.44216        21.58750         6.52346
     2022.44490        15.99127         6.65664
     2022.44763         8.04104         6.34367
     2022.45037        -0.73819         6.35255
     2022.45311       -12.14242         6.36254
     2022.45585        -5.60766         6.36032
     2022.45859       -12.85689         6.34367
     2022.46132         9.17488         6.27043
     2022.46406        -5.52835         6.28485
     2022.46680       -11.90858         6.28707
     2022.46954        -3.88281         6.46908
     2022.47227       -13.56604         6.26932
     2022.47501        -0.81028         6.43135
     2022.47775        -1.44651         6.52346
     2022.48049        -4.02174         6.33480
     2022.48323         8.22003         6.40249
     2022.48596        10.91980         6.32370
     2022.48870        -6.35143         6.38474
     2022.49144        -9.86866         6.33812
     2022.49418        -5.55189         6.55565
     2022.49692        -1.93513         6.30261
     2022.49965         1.16964         6.40693
     2022.50239        -1.29159         6.45798
     2022.50513        16.47518         6.79648
     2022.50787        10.66295         6.81978
     2022.51060        -8.77928         6.57895
     2022.51334        -2.59351         6.40582
     2022.51608        -4.87574         6.40804
     2022.51882        -6.55598         6.48573
     2022.52156        -9.51821         6.49350
     2022.52429        -6.21144         6.34700
     2022.52703         3.19433         6.40915
     2022.52977         8.61910         6.42913
     2022.53251        -4.12113         6.74432
     2022.53525        -9.62536         6.68217
     2022.53798        -9.10259         6.56453
     2022.54072        -9.78883         6.49128
     2022.54346        -6.97306         6.43135
     2022.54620        -5.65829         6.50682
     2022.54893         2.38448         6.72767
     2022.55167        -7.25475         6.85419
     2022.55441        -7.91898         6.44356
     2022.55715         3.39679         6.50793
     2022.55989        -3.18344         6.49128
     2022.56262        -6.43668         6.54455
     2022.56536       -11.47291         6.55010
     2022.56810        -6.10814         6.54122
     2022.57084       -10.29637         6.60670
     2022.57357         1.58640         6.72878
     2022.57631        -9.49983         6.62002
     2022.57905        -3.63906         6.55010
     2022.58179        -1.03529         6.56009
     2022.58453         0.05147         6.90191
     2022.58726        -5.27676         6.74653
     2022.59000        -5.16499         6.73766
     2022.59274       -14.15522         6.49461
     2022.59548        -5.36745         6.57673
     2022.59822       -18.25668         6.43468
     2022.60095       -11.05891         6.59671
     2022.60369         1.81186         6.75097
     2022.60643        11.77562         6.61225
     2022.60917        -4.44961         6.62779
     2022.61190         5.96216         6.56120
     2022.61464         3.84893         6.47685
     2022.61738         4.92370         6.50349
     2022.62012        -9.20753         6.55121
     2022.62286        -0.25876         6.50460
     2022.62559        -3.69899         6.43690
     2022.62833        -4.21623         6.43468
     2022.63107         5.73054         6.44467
     2022.63381         2.49231         6.53567
     2022.63655         2.19208         6.56120
     2022.63928         4.30585         6.51569
     2022.64202        -0.13238         6.90857
     2022.64476         9.06339         6.89858
     2022.64750         6.60316         6.66441
     2022.65023         5.33092         6.71213
     2022.65297         0.81369         6.71213
     2022.65571         0.92546         6.67107
     2022.65845         9.26923         6.41581
     2022.66119         2.06900         6.33812
     2022.66392        10.46677         6.47352
     2022.66666         5.45754         6.48684
     2022.66940         5.44831         6.44911
     2022.67214         5.09807         6.44467
     2022.67488         4.47984         6.23824
     2022.67761        14.35061         6.45354
     2022.68035         9.66138         6.32592
     2022.68309        11.56115         6.31149
     2022.68583         8.96592         6.69104
     2022.68856         5.76869         6.34034
     2022.69130         7.79546         6.34589
     2022.69404        11.19522         6.31260
     2022.69678         5.57999         6.42691
     2022.69952         2.26776         6.44800
     2022.70225         6.00753         6.52457
     2022.70499         3.89130         6.54899
     2022.70773         9.10807         6.33036
     2022.71047         9.10484         6.36365
     2022.71594        23.05437         6.36032
     2022.71868         8.16214         6.13503
     2022.72142        19.07191         6.25711
     2022.72416        24.17468         6.38030
     2022.72689         9.39445         6.29706
     2022.72963        14.22922         6.35477
     2022.73237        11.22799         6.31704
     2022.73511         0.40476         6.22936
     2022.73785        12.14552         6.32592
     2022.74058        16.62129         6.63333
     2022.74332        24.90206         6.65220
     2022.74606        18.85983         6.36365
     2022.74880         1.62060         6.21161
