# ================= DQRFIT RESULTS ================
# INPUT FILE: series/ATLI.rad
# OUTPUT: LDETRENDED
# FILTER FUNCTION: f(t)
# f(t)=+line(t)+annual(t)
# line(t)=+P 1+P 2*t
# annual(t)=+P 3*sin(2*pi*t+P 4)
# heav(t)=(t<0?0:1)
# TOTAL OBSERVATIONS MTOT= 4009
# INITIAL TIME INTERVAL= 2022.7488 - 2011.7016 = 11.0472
# TOTAL OBSERVATIONS AFTER PREFILTER M= 4003
# TIME-SPAN= 2022.7488 - 2011.7016 = 11.0472
# OBSERVATIONS: USED M=  4003 REJECTED MTOT-M=     6 %USED=   99.8503
# N=  4 PARAMETERS
# MAXSIG= 175.00000
# MAXRES=  27.07053
# SCALE FACTOR FOR LENGTHS: SCL=  10.00000
# SCALE FACTOR FOR SIGMAS: SCLSIG=   1.00000
# CHI^2=   5731.779 DOF=  3999 CHI^2/DOF=   1.43330
# RMS=      6.753 SDEV=      6.754 MEAN=    0.00636
#  P #       PARAMETER +-    SIGMA %error PARAMETER NAME
# P 1 =    -20351.62742 +-   67.162   0.33 YZERO                              
# P 2 =        10.10602 +-    0.033   0.33 SLOPE                              
# P 3 =         6.52635 +-    0.149   2.29 ANNUAL AMPLITUDE                   
# P 4 =         2.79324 +-    0.030   1.09 ANNUAL PHASE                       
#       T            LDETRENDED       SIG_OBS
     2011.70157        14.50621         6.73907
     2011.70431        15.84554         6.71872
     2011.70705        14.63087         6.88274
     2011.70978        12.06320         7.91353
     2011.71252        16.76453         6.71154
     2011.71526         8.14486         6.79774
     2011.71800        21.81320         6.89711
     2011.72073        21.32853         6.75105
     2011.72347        27.39886         6.77379
     2011.72621        15.17219         6.73429
     2011.72895        24.02452         6.73309
     2011.73169        15.16485         6.75224
     2011.73442         7.66018         7.15570
     2011.73716        21.63651         6.85401
     2011.73990        12.56285         7.20479
     2011.74264        11.99318         6.77619
     2011.74538        10.14351         6.94739
     2011.74811        15.19184         6.80253
     2011.75085        10.12017         6.91506
     2011.75359         9.87150         6.78577
     2011.75633        13.57083         6.82527
     2011.75906        17.07416         7.23352
     2011.76180        12.67950         6.84203
     2011.76454        15.04883         6.96295
     2011.76728        12.73716         6.79175
     2011.77002         8.55749         6.99767
     2011.77275        18.36682         6.89471
     2011.77549        19.34515         6.75703
     2011.77823         9.17448         6.81689
     2011.78097         8.03681         6.79415
     2011.78371        10.78314         6.85999
     2011.78644         6.18648         6.80971
     2011.78918        14.90381         6.91267
     2011.79192        10.29814         6.76541
     2011.79466         6.85947         6.84323
     2011.79739        17.85580         6.92105
     2011.80013        15.05513         6.90429
     2011.80287        16.24846         6.83365
     2011.80561        11.17579         6.75224
     2011.80835        19.71413         6.82048
     2011.81108        13.25946         6.80372
     2011.81382        15.26679         8.23558
     2011.81656        20.44012         6.82886
     2011.81930        20.78445         6.77739
     2011.82203        11.51278         6.73189
     2011.82477        16.02611         6.78098
     2011.82751        23.15844         6.82288
     2011.83025         5.80178         6.85401
     2011.83299        11.04611         7.88241
     2011.83572         6.13844         7.02640
     2011.83846         0.74377         6.74506
     2011.84120         7.43910         6.82168
     2011.84394        14.23143         6.78098
     2011.84668        10.06376         6.72471
     2011.84941        17.85609         6.71752
     2011.85215        10.25243         6.85281
     2011.85489         5.06876         6.83725
     2011.85763        13.08709         6.92943
     2011.86036        12.79042         6.77739
     2011.86310        18.19175         6.66485
     2011.86584        19.27508         6.72591
     2011.86858        11.57341         6.73069
     2011.87132        11.10374         6.82048
     2011.87405         7.45908         6.75943
     2011.87679         6.04041         6.74267
     2011.87953        -2.10726         6.82767
     2011.88227        -1.61693         6.70675
     2011.88501         6.07840         6.77858
     2011.88774         7.65273         6.71513
     2011.89048         9.53506         6.78217
     2011.89322        14.05539         6.78577
     2011.89596        10.97672         6.68041
     2011.89869         9.84106         6.71752
     2011.90143         8.04039         6.71992
     2011.90417        10.35772         6.69598
     2011.90691         9.53505         6.71752
     2011.90965        23.55838         6.83485
     2011.91238         7.13871         7.02162
     2011.91512        18.53304         6.93422
     2011.91786         6.94337         6.86718
     2011.92060         6.48971         6.84682
     2011.92334         3.78104         6.90908
     2011.92607        20.96837         7.08028
     2011.92881         4.86470         6.83246
     2011.93109         4.48664         8.32537
     2011.93555         4.58163        28.41569
     2011.93702        13.40669         6.73907
     2011.93976         1.90902         6.70076
     2011.94250        -1.57364         6.72112
     2011.94524        12.82169         6.73309
     2011.94798        16.04502         6.69717
     2011.95071         5.21435         6.69478
     2011.95345         9.11568         6.89830
     2011.95619         7.88201         6.84682
     2011.95893         6.61934         6.69717
     2011.96167         5.47667         6.67443
     2011.96440        15.38001         6.70555
     2011.96714        12.24434         6.63133
     2011.96988        13.22667         6.65048
     2011.97262         7.19000         6.65527
     2011.97535         5.96433         6.72231
     2011.97809         0.29166         6.65766
     2011.98083         9.06299         6.58703
     2011.98357        10.38732         6.56668
     2011.98631        11.52266         6.56069
     2011.98904        11.35799         6.75105
     2011.99178         9.41032         6.67682
     2011.99452         8.57865         6.57147
     2011.99726        10.03898         6.57147
     2012.00273        14.90464         6.56309
     2012.00547         5.86797         6.60499
     2012.00821         0.88231         6.59541
     2012.01095         5.15164         6.58104
     2012.01368        -0.01603         6.55111
     2012.01642         7.06230         6.52358
     2012.01916         6.71563         6.60978
     2012.02190         5.24896         6.63971
     2012.02464        -3.46571         6.53675
     2012.02737        -3.93538         6.59541
     2012.03011         4.18995         6.58583
     2012.03285        -0.11871         6.58344
     2012.03559        -7.43338         6.61696
     2012.03833       -12.22305         6.61935
     2012.04106        -8.25472         6.60140
     2012.04380        -8.31639         6.57985
     2012.04654        -4.30606         6.58344
     2012.04928         1.76527         6.63133
     2012.05201         4.50960         6.60738
     2012.05475         4.87494         6.63252
     2012.05749         3.60927         6.97852
     2012.06023         8.57960         6.83246
     2012.06297         6.60293         6.63133
     2012.06570         4.26026         6.89232
     2012.06844        -0.82741         6.60020
     2012.07118         2.03792         6.56668
     2012.07392        -3.20575         6.62175
     2012.07666         3.57459         6.58823
     2012.07939         0.56392         6.62534
     2012.08213         5.31125         6.55949
     2012.08487         4.77558         6.60978
     2012.08761         6.47791         6.72112
     2012.09034        -4.83776         6.70076
     2012.09308         1.97357         6.70196
     2012.09582        -6.35810         6.60978
     2012.09856        -8.06476         6.53675
     2012.10130        -5.21443         6.74626
     2012.10403        -3.86710         6.61337
     2012.10677        -5.02877         6.67203
     2012.10951         1.76156         6.63971
     2012.11225        -4.82711         6.61576
     2012.11498         6.80022         6.63013
     2012.11772         3.91655         6.68281
     2012.12046         6.36489         6.66126
     2012.12320        -5.54278         7.58310
     2012.12594         3.01255         6.51759
     2012.12867        -4.84612         6.52238
     2012.13141        -6.02079         6.55710
     2012.13415        -0.12346         6.99528
     2012.13689         1.61587         6.67682
     2012.13963        16.28720         6.63731
     2012.14236         0.81453         6.62055
     2012.14510        -0.95313         6.54034
     2012.14784        -5.25980         6.51161
     2012.15058        -3.90747         6.59182
     2012.15331        -8.98314         6.53555
     2012.15605         0.81819         6.80133
     2012.15879        -0.76548         6.69837
     2012.16153        -2.96615         6.56069
     2012.16427        -0.02482         6.69957
     2012.16700         3.78652         6.67682
     2012.16974         1.36785         6.62773
     2012.17248         0.71718         6.58463
     2012.17522        -4.25049         6.57266
     2012.17796        -4.88616         6.59421
     2012.18069        -8.41883         8.19368
     2012.18343       -14.53850         6.92344
     2012.18617        -7.35217         8.47383
     2012.18891        -8.77183         6.59062
     2012.19164         6.51150         6.53914
     2012.19438         7.67583         6.85880
     2012.19712         7.21816         6.60499
     2012.19986         4.43949         6.59541
     2012.20260         1.32182         6.89591
     2012.20533         6.66515         6.80372
     2012.20807         0.18548         6.66245
     2012.21081        -0.21018         6.58463
     2012.21355         2.28115         6.59182
     2012.21629         1.84848         6.53555
     2012.21902         1.05281         6.48407
     2012.22176        -1.47986         6.60379
     2012.22450        -7.75853         6.55231
     2012.22724        -2.19120         6.59541
     2012.22997         1.07313         6.56548
     2012.23271         2.85947         6.51041
     2012.23545         0.01880         6.69837
     2012.23813         2.41370         6.92225
     2012.24093         7.97146         6.60978
     2012.24366         7.72479         6.58224
     2012.24640         1.62012         6.53555
     2012.24914         1.08345         6.54872
     2012.25188        -1.60722         6.58104
     2012.25462        -3.07888         6.57745
     2012.25735        -2.20455         6.59541
     2012.26009        -6.38222         6.98809
     2012.26283        -4.94989         6.53914
     2012.26557        -6.80856         6.81689
     2012.26830        -8.49823         6.57386
     2012.27104        -4.83190         6.73548
     2012.27378        -3.70457         6.56907
     2012.27652        -5.20624         6.54992
     2012.27926        -8.90090         6.71992
     2012.28199        -4.66557         6.77858
     2012.28473        -1.74824         6.56668
     2012.28747        -2.89991         6.55710
     2012.29021        -4.48258         6.48886
     2012.29295        -5.87325         6.54393
     2012.29568        -7.32192         6.48168
     2012.29842        -4.10459         6.51879
     2012.30116        -0.83725         6.55470
     2012.30390        -5.10492         6.55111
     2012.30663        -9.20159         6.65766
     2012.30937        -4.27526         6.76661
     2012.31211        -4.43293         7.46099
     2012.31485        -4.93560         6.90788
     2012.31759        -5.81127         6.55111
     2012.32032        -3.64994         6.75943
     2012.32306         0.13140         6.55710
     2012.32580        -3.52227         6.54034
     2012.32854        -2.57594         6.50562
     2012.33128        -1.44461         6.57745
     2012.33401        -3.41528         6.65168
     2012.33675        -3.84895         6.58344
     2012.33949        -2.00362         6.50083
     2012.34223        -8.14029         6.50083
     2012.34496        -6.59995         6.50921
     2012.34770        -6.17062         6.60738
     2012.35044         0.48671         6.58224
     2012.35318        -5.66196         6.94140
     2012.35592        -1.39463         6.53914
     2012.35865        12.33470         6.61097
     2012.36139        -3.25097         6.50682
     2012.36413        -4.54864         6.61457
     2012.36687        -1.95430         6.52477
     2012.36961        -5.23997         6.49125
     2012.37234        -7.74764         6.53555
     2012.37508       -12.04631         6.52837
     2012.37782        -7.14198         6.68161
     2012.38056        -7.13465         6.48168
     2012.38329        -4.58132         6.65288
     2012.38603        -4.19299         6.68640
     2012.38877        -8.56266         6.81210
     2012.39151        -4.69532         6.71992
     2012.39425        -7.81499         6.51639
     2012.39698        -8.21266         6.65766
     2012.39972        -2.50433         6.56907
     2012.40246        -5.97100         6.54393
     2012.40520        -4.43867         6.61457
     2012.40794        -0.86134         6.48646
     2012.41067         2.79999         6.50682
     2012.41341        -3.96767         6.50442
     2012.41615        -4.97434         6.53794
     2012.41889        -2.02901         6.71274
     2012.42162        -4.69168         6.77978
     2012.42436        -6.82335         7.00605
     2012.42710        -7.84402         6.65766
     2012.42984        -3.23469         6.57506
     2012.43258        -8.93936         6.55351
     2012.43531        -5.88802         6.63851
     2012.43805        -7.48169         6.52238
     2012.44079        -3.95036         6.54632
     2012.44353        -4.58403         6.71274
     2012.44626        -6.62870         6.63731
     2012.44900        -3.91737         6.53315
     2012.45174        -2.45904         6.54872
     2012.45448        -2.89671         6.51041
     2012.45722         3.71763         6.56668
     2012.45995        -3.61004         7.37719
     2012.46269        -1.86571         6.74985
     2012.46543        -9.64938         6.52837
     2012.46817        -6.03605         6.54632
     2012.47091        -5.79372         6.54752
     2012.47367        -6.13163         6.68041
     2012.47638        -8.43406         6.59421
     2012.47912        -2.46572         6.58344
     2012.48186         2.10661         6.57386
     2012.48459         1.46194         6.49604
     2012.48733         0.98327         6.61337
     2012.49007        -0.98440         6.60499
     2012.49281        -1.11607         6.59182
     2012.49555        -3.91974         6.89471
     2012.49828        -1.81741         6.50801
     2012.50102        -0.62007         6.64809
     2012.50376         1.85326         6.61816
     2012.50650        -1.84741         6.58104
     2012.50924        -1.99408         6.83844
     2012.51197         0.09025         6.72471
     2012.51471        -3.29942         6.53914
     2012.51745        -3.92109         6.58344
     2012.52019        -1.32576         7.30176
     2012.52292        -3.08943         6.82408
     2012.52566         2.41791         6.63133
     2012.52840        -1.66576         6.69717
     2012.53114        -3.97943         6.61097
     2012.53388        -6.82710         6.59421
     2012.53661        -5.64977        10.40253
     2012.53935        -3.52344         8.39122
     2012.54209         2.45389         6.94619
     2012.54483         3.62722         6.54154
     2012.54757         0.06256         6.57147
     2012.55030         3.77789         6.66365
     2012.55304         5.63122         6.63611
     2012.55578         0.18455         6.59062
     2012.55852         1.44388         6.58583
     2012.56125         1.92621         6.69837
     2012.56399         3.83754         6.57027
     2012.56673         5.75187         6.61457
     2012.56947         2.65921         6.68161
     2012.57221         4.00254         6.58224
     2012.57494         3.21187         6.52358
     2012.57768         3.99920         6.78098
     2012.58042         9.67753         6.56548
     2012.58316         0.27086         6.62654
     2012.58590         4.36619         6.72112
     2012.58863        18.70852         6.58463
     2012.59137         6.91086         6.53675
     2012.59411         9.77519         6.61816
     2012.59685        11.94152         6.59661
     2012.59958         7.55385         6.65527
     2012.60232         6.32118         6.80612
     2012.60506         2.04051         6.64689
     2012.60780         3.52984         6.56787
     2012.61054         2.81917         6.57147
     2012.61327         4.64251         6.56309
     2012.61601         8.33684         6.55590
     2012.61875         3.89517         6.53196
     2012.62149         4.70850         6.57985
     2012.62423         5.45383         6.63611
     2012.62696         3.74916         6.60499
     2012.62970        -4.74551         6.73069
     2012.63244         6.42482         6.74506
     2012.63518         7.62716         6.61217
     2012.63791         6.09949         6.64928
     2012.64065        10.50782         6.64450
     2012.64339        11.49815         6.63252
     2012.64613         1.05848         6.58823
     2012.64887         5.29681         6.54034
     2012.65160         9.24014         6.59062
     2012.65434         3.92447         6.60618
     2012.65708        16.96080         6.83365
     2012.65982         5.69714         6.80971
     2012.66256         6.03647         6.49245
     2012.66529         9.03180         6.57745
     2012.66803         5.12613         6.66006
     2012.67077        11.29146         6.81210
     2012.67351         6.92679         8.60672
     2012.67624        12.01312         6.81210
     2012.67898         5.22845         7.10303
     2012.68172         8.97479         6.83365
     2012.68446         4.87412         6.74267
     2012.68720         7.81245         6.68759
     2012.68993        11.62878         6.60259
     2012.69267         7.30211         6.73788
     2012.69541         4.91844         6.56069
     2012.69815        10.31977         6.78098
     2012.70089         7.40310         6.59302
     2012.70362        -1.60056         6.64689
     2012.70636         1.46977         6.58942
     2012.70910         7.56110         6.70795
     2012.71184        15.14343         6.77260
     2012.71457         6.14776         6.61217
     2012.71731         3.89609         6.67682
     2012.72005         1.70642         6.66964
     2012.72279         7.50175         6.59661
     2012.72553         8.77009         6.66006
     2012.72826        12.68242         6.86239
     2012.73100         8.62875         6.72112
     2012.73374         6.78708         6.68041
     2012.73648         8.98241         6.65048
     2012.73921         8.53974         6.76422
     2012.74195         7.65407         6.62654
     2012.74469         5.33940         6.55590
     2012.74743        25.01574         6.64330
     2012.75017         5.05807         7.85727
     2012.75290         0.93340         6.59421
     2012.75564        -0.83227         6.60259
     2012.75838        -3.10394         6.65766
     2012.76112        19.11839         6.63971
     2012.76386         3.99172         6.66964
     2012.76659         3.63505         6.60020
     2012.76933         1.02238         7.96262
     2012.77207        -6.05228         7.98058
     2012.77481         3.36105         6.63851
     2012.77754         1.06338         6.49006
     2012.78028        13.11071         6.54273
     2012.78302         8.92904         8.27270
     2012.78576        10.82437         6.90668
     2012.78850        18.08370         6.55470
     2012.79123        16.22703         6.51520
     2012.79397        21.59437         6.57506
     2012.79671        11.07570         6.52238
     2012.79945         8.73403         6.52477
     2012.80219         3.17536         6.50203
     2012.80492         2.05769         6.55710
     2012.80766         1.71902         6.56069
     2012.81040        -1.55465         6.69358
     2012.81314         0.77268         6.54992
     2012.81587        -2.73698         6.47689
     2012.81861        -1.04765         6.61097
     2012.82135         4.52668         6.57745
     2012.82409         2.09101         6.58463
     2012.82683         4.05634         6.54273
     2012.82956         7.63967         6.51879
     2012.83230        10.41900         6.52238
     2012.83504         7.23733         7.63458
     2012.83778         9.87567         6.56309
     2012.84052         9.33300         6.52477
     2012.84325        10.42833         6.49484
     2012.84599         9.32266         6.60259
     2012.84873         6.55899         6.83365
     2012.85147         6.98132         6.69119
     2012.85420         0.32665         6.62893
     2012.85694         1.21598         6.62893
     2012.85968         6.16832         6.65647
     2012.86242         5.31565         6.59062
     2012.86516         7.03598         6.60020
     2012.86789        -2.56169         6.92344
     2012.87063        -3.09136         8.45707
     2012.87337        10.53797         6.68999
     2012.87611         6.48430         6.63731
     2012.87885         7.63563         6.59302
     2012.88158        10.69797         6.58344
     2012.88432         6.01130         6.64569
     2012.88706         4.69463         6.92225
     2012.88980         8.58496         6.81091
     2012.89253         6.25829         6.56309
     2012.89527         1.86562         6.57027
     2012.89801        -2.11205         6.98809
     2012.90075         1.69728         6.63971
     2012.90349        -3.25039         6.66006
     2012.90622         1.20095         6.56189
     2012.90896         1.86328         6.68161
     2012.91170         0.33561         6.64330
     2012.91444         1.12994         6.67203
     2012.91718         5.32927         6.65407
     2012.91991         5.95460         6.67921
     2012.92265         3.05293         6.55710
     2012.92539         3.25826         6.54752
     2012.92813         5.46060         6.64689
     2012.93086         0.54093         6.84682
     2012.93360         0.64326         6.81330
     2012.93634         1.81959         6.55710
     2012.93908         6.84192         6.64450
     2012.94182         9.04525         6.71274
     2012.94455         9.75158         6.61816
     2012.94729         4.87091         6.74027
     2012.95003        17.19525         6.74506
     2012.95277        11.74058         6.54154
     2012.95551        15.33591         6.59421
     2012.95824        15.64624         6.61217
     2012.96098         3.14557         6.79175
     2012.96372         3.51790         6.71752
     2012.96646         8.05123         6.54992
     2012.96919        -2.33844         6.68879
     2012.97193        -3.59410         6.75105
     2012.97467        -2.98077         6.61217
     2012.97741        -0.96444         6.68161
     2012.98015        -7.38811         6.54393
     2012.98288        -7.01878         6.56428
     2012.98562        -5.03945         6.60379
     2012.98836        -0.61512         6.62773
     2012.99110         1.70321         6.61935
     2012.99384        -4.70145         6.58344
     2012.99657         6.95488         6.71872
     2012.99931         6.56121         6.58703
     2013.00205         5.26354         6.74626
     2013.00479        12.98387         7.15929
     2013.00752         1.40720         6.60858
     2013.01026         0.71053         6.59421
     2013.01300         3.01586         6.55111
     2013.01574         6.59319         6.58942
     2013.01848         2.68153         6.62055
     2013.02121         3.75486         6.64928
     2013.02395       -12.35881         6.62175
     2013.02669        -5.06848         6.76182
     2013.02943        -7.71315         6.57985
     2013.03216        -8.38182         6.67443
     2013.03490        -2.40049         6.74027
     2013.03764         4.33784         6.68041
     2013.04038        -6.65282         6.66245
     2013.04312        -7.63649         6.64090
     2013.04585        -5.08116         6.82408
     2013.04859         0.80917         6.83605
     2013.05133        -8.07150         6.59661
     2013.05407        -4.99417         6.60858
     2013.05681         0.29716         6.59302
     2013.06228       -11.21317         6.74267
     2013.06502         3.07816         6.84323
     2013.06776         6.11149         6.59900
     2013.07049         8.54082         6.74147
     2013.07323         2.78915         6.55470
     2013.07597        -0.11552         6.54632
     2013.07871        -8.85619         6.60140
     2013.08145       -17.34886         6.56309
     2013.08418       -16.95452         6.54872
     2013.08692       -20.34919         6.54034
     2013.08966       -16.48386         6.57266
     2013.09240         5.55547         6.63971
     2013.09514         9.52580         6.60020
     2013.09787         0.80013         6.77379
     2013.10061        -1.57354         6.88992
     2013.10335         0.99279         6.65168
     2013.10609         5.98813         6.58703
     2013.10882         9.05646         6.51879
     2013.11156         4.02279         6.77858
     2013.11430        11.31012         6.54034
     2013.11704        -6.50455         6.68161
     2013.11978        -1.35122         6.83006
     2013.12251         3.81211         6.57266
     2013.12525         0.10044         6.55710
     2013.12799        -1.32822         6.55949
     2013.13073        -3.06489         6.64210
     2013.13347        -1.99956         6.56907
     2013.13620        -1.17323         6.56309
     2013.13894         8.67610         6.53315
     2013.14168        11.59743         6.66964
     2013.14442        11.05476         6.80133
     2013.14715         0.96309         6.78816
     2013.14989        -8.05458         6.56787
     2013.15263       -10.28624         6.49963
     2013.15537       -15.64391         6.50562
     2013.15811        -9.23858         6.50682
     2013.16084        -1.87725         6.55830
     2013.16358        -5.81692         6.89471
     2013.16632       -11.98359         6.57625
     2013.16906        -6.44626         6.51639
     2013.17180       -12.81093         6.50801
     2013.17453       -10.48659         6.54872
     2013.17727        -9.46426         6.74985
     2013.18001        -9.19293         6.73788
     2013.18275        -1.17160         6.60140
     2013.18548        -6.76327         6.54632
     2013.18822        -8.78594         6.52837
     2013.19096       -10.47661         6.56907
     2013.19370        -8.58528         6.60858
     2013.19644        -7.51294         6.55830
     2013.19917        -9.42761         6.57745
     2013.20191        -7.69928         6.68879
     2013.20465        -8.13495         6.57027
     2013.20739        -6.75862         8.66538
     2013.21013       -10.88829         6.58823
     2013.21286        -8.72196         6.52717
     2013.21560        -6.32963         6.52118
     2013.21834        -5.60029         6.63372
     2013.22108       -12.15496         6.54034
     2013.22381       -10.53263         6.60978
     2013.22655        -8.61530         6.61337
     2013.22929         1.23403         6.57865
     2013.23203        -1.48564         6.53914
     2013.23477        -8.41331         6.60259
     2013.23750       -13.69298         6.78098
     2013.24024       -16.07764         7.33169
     2013.24298        -9.99531         6.80732
     2013.24572        -6.74998         6.70436
     2013.24846        -4.10365         6.67203
     2013.25119        -1.81432         6.54154
     2013.25393       -12.39299         6.56787
     2013.25667       -11.68466         6.69717
     2013.25941        -4.92533         6.58583
     2013.26214        -2.81599         6.53315
     2013.26488        -0.51266         6.57147
     2013.26762        -4.07333         6.60618
     2013.27036         0.81700         6.69837
     2013.27310         1.26533         6.95936
     2013.27583        -4.08734         6.76661
     2013.27857        -0.93801         6.87915
     2013.28131        -6.29968         6.57027
     2013.28405       -11.09735         6.62295
     2013.28679       -10.99801         6.70675
     2013.28952       -11.33068         6.86239
     2013.29226       -12.86235         6.71154
     2013.29500        -4.95002         6.59421
     2013.29774        -9.04169         6.70555
     2013.30047       -15.68436         6.56428
     2013.30321       -16.80003         6.58104
     2013.30595       -15.35270         6.55590
     2013.30869       -15.09136         6.67443
     2013.31143       -11.79103         7.02401
     2013.31416       -11.25370         6.59900
     2013.31690       -14.99337         6.68400
     2013.31964         3.55696         6.55710
     2013.32238        -3.54871         6.60020
     2013.32512        -8.59638         6.55351
     2013.32785       -14.51505         6.56907
     2013.33059       -10.74571         7.73156
     2013.33333        -3.39438         6.63133
     2013.33607        -5.70805         6.62295
     2013.33880        -0.65472         6.84802
     2013.34154        -2.47339         6.81809
     2013.34428       -10.60406         6.73907
     2013.34702       -14.94873         6.69358
     2013.34976       -15.47840         6.74267
     2013.35249       -17.12206         6.76422
     2013.35523       -13.57973         6.88154
     2013.35797        -8.00240         6.75105
     2013.36071        -3.25507         6.74386
     2013.36344        -4.14574         6.74386
     2013.36618         1.02559         6.94260
     2013.36892         2.12592         6.74865
     2013.37166       -15.77775         6.73788
     2013.37440        -9.37441         6.78217
     2013.37713        -9.22108         7.27303
     2013.37987        -4.01875         7.28739
     2013.38261       -13.18742         6.76781
     2013.38535       -17.52009         6.74386
     2013.38809       -12.87776         6.72710
     2013.39082       -13.57343         6.75584
     2013.39356        -4.94410         6.93901
     2013.39630       -11.17777         7.25627
     2013.39904        -6.43143         6.94021
     2013.40177        -8.02910         6.75344
     2013.40451        -9.50977         6.74985
     2013.40725        -1.80244         6.78816
     2013.40999        -5.55011         6.76062
     2013.41273        -3.75978         6.75224
     2013.41546        -6.78245         7.87283
     2013.41820       -11.74112         6.78696
     2013.42094        -1.77678         6.75584
     2013.42368        -2.28145         6.80971
     2013.42642        -9.94312         6.73429
     2013.42915        -7.12379         6.86119
     2013.43189        -4.17946         7.65733
     2013.43463        -7.77713         6.62654
     2013.43737        -9.50480         6.65048
     2013.44010       -12.75847         6.77379
     2013.44284        -6.70213         6.78936
     2013.44558       -12.42780         6.90070
     2013.44832        -9.06047         6.67443
     2013.45106        -9.60914         6.65527
     2013.45379        -4.20881         6.68520
     2013.45653        -7.00348         6.65527
     2013.45927        -8.59115         6.79774
     2013.46201       -10.11882         6.63731
     2013.46475        -6.79248         6.65168
     2013.46748        -5.78315         6.66724
     2013.47022        -2.90082         6.74985
     2013.47296        -8.30149         6.67562
     2013.47570        -2.52916         6.86598
     2013.47843         0.00117         6.87556
     2013.48117         0.33550         6.79654
     2013.48391        -3.69617         6.68759
     2013.48665        -1.60383         6.63252
     2013.48939        -1.41250         6.90189
     2013.49212        -2.59817         8.84017
     2013.49486        -1.25084         6.71274
     2013.49760        -4.64751         6.67682
     2013.50034         8.10882         6.71034
     2013.50308        -1.69285         6.63731
     2013.50581        -4.91152         6.61696
     2013.50855        -6.09218         6.63971
     2013.51129        -5.37485         8.24277
     2013.51403        -3.44252         6.72950
     2013.51676         4.39281         6.72710
     2013.51950        -3.57286         6.71633
     2013.52224         0.27047         7.05514
     2013.52498         1.19080         7.07429
     2013.52772        -4.09087         6.70555
     2013.53045        -7.16554         6.65647
     2013.53319       -10.73420         7.16767
     2013.53593        -4.84687         7.34965
     2013.53867        -4.44854         6.65288
     2013.54141        -6.37421         6.63851
     2013.54414        -2.98288         6.67443
     2013.54688        -1.86755         6.65647
     2013.54962        -3.47522         6.60738
     2013.55236         3.85511         6.61576
     2013.55509         0.02545         6.63492
     2013.55783        -1.24222         6.61337
     2013.56057        -4.70289         6.89112
     2013.56331        -0.16556         6.95816
     2013.56605        -1.38123         6.61935
     2013.56878         4.82710         6.72950
     2013.57152         5.06343         6.68759
     2013.57426         3.63376         6.63971
     2013.57700        -2.00390         6.66245
     2013.57974        -3.14457         6.61457
     2013.58247         0.10776         6.65168
     2013.58521         0.01409         6.72231
     2013.58795         0.61442         6.64569
     2013.59069         6.91875         6.78696
     2013.59342         1.21908         6.76900
     2013.59616         0.23041         6.61217
     2013.59890         4.86775         6.68281
     2013.60164        -0.37392         6.80372
     2013.60438         3.23641         6.68879
     2013.60711         2.18174         6.65766
     2013.60985         3.88207         6.59541
     2013.61259         4.97940         6.68759
     2013.61533         6.03173         6.89112
     2013.61807         2.71806         6.76661
     2013.62080        10.66040         6.65048
     2013.62354         4.80973         6.66844
     2013.62628         6.78006         6.59661
     2013.62902         7.67639         6.65886
     2013.63175        11.31472         6.63013
     2013.63449         5.39205         6.69837
     2013.63723         1.19238         6.74506
     2013.63997        11.35371         6.60858
     2013.64271         8.14704         6.75344
     2013.64544         7.55938         6.67682
     2013.64818         5.88171         6.67203
     2013.65092         7.80204         6.63013
     2013.65366         2.94737         6.72830
     2013.65639         7.48370         6.68759
     2013.65913         6.30503         6.81450
     2013.66187         2.25436         6.63611
     2013.66461         1.29769         6.84563
     2013.66735        14.22003         6.66604
     2013.67008         8.19336         6.66006
     2013.67282         8.50269         6.80732
     2013.67556        20.97802         7.15451
     2013.67830        16.73135         6.67562
     2013.68104         7.56168         6.67682
     2013.68377         6.48301         6.81809
     2013.68651         4.89634         6.91147
     2013.68925         8.54268         6.65407
     2013.69199         0.14001         6.59182
     2013.69472         9.31734         6.83365
     2013.69746         8.39867         6.87915
     2013.70021         4.81386         6.59780
     2013.70294         7.38433         6.62295
     2013.70568         9.14666         6.63971
     2013.70841         2.87199         6.56668
     2013.71115         7.04533         6.65766
     2013.71389         4.08666         6.65647
     2013.71663         8.71699         6.67562
     2013.71937        11.42232         6.64689
     2013.72210        20.57765         6.66485
     2013.72484        13.87698         6.58942
     2013.72758         9.69731         6.64569
     2013.73032         5.83164         6.85161
     2013.73305        -2.53902         6.69598
     2013.73579         2.24331         6.78337
     2013.73853         6.64964         6.61935
     2013.74127        11.81197         6.60140
     2013.74401        16.93430         6.74147
     2013.74674        13.73963         6.63731
     2013.74948         5.70896         6.64090
     2013.75222         5.60429         7.12457
     2013.75496        -5.21237         6.59661
     2013.75770         8.89596         6.66844
     2013.76043         5.28629         6.61337
     2013.76317         5.50462         6.59661
     2013.76591        12.94795         6.61217
     2013.76865         6.73128         6.63372
     2013.77138        14.30261         7.64416
     2013.77412         1.96794         6.64090
     2013.77686         5.62627         6.66365
     2013.77960         3.93361         6.66365
     2013.78234         3.77494         6.66485
     2013.78507        12.35327         7.19641
     2013.78781         2.34260         6.87196
     2013.79055         4.77193         6.68161
     2013.79329        -1.14474         6.70914
     2013.79603         8.23059         6.73189
     2013.79876         6.30392         6.68400
     2013.80150        11.74626         6.83605
     2013.80424         9.83959         6.81091
     2013.80698         4.16492         6.64809
     2013.80971         7.56225         6.63252
     2013.81245        10.64758         6.67443
     2013.81519         9.42891         6.61217
     2013.81793         8.29124         6.66245
     2013.82067        -3.60743         6.64569
     2013.82340         9.41991         6.75703
     2013.82614        20.07824         6.85640
     2013.82888        13.32457         7.20479
     2013.83162        15.40490         6.66604
     2013.83436        11.78423         6.76900
     2013.83709         2.66956         6.71633
     2013.83983         3.72489         6.73788
     2013.84257         6.65222         6.61217
     2013.84531         6.27956         6.60618
     2013.84804        -0.31511         6.64450
     2013.85078         3.09622         7.34486
     2013.85352         3.77855         6.64809
     2013.85626        -2.38812         8.19488
     2013.85900        -4.87479         6.67323
     2013.86173        -0.95746         7.21556
     2013.86447         1.85287         6.65288
     2013.86721        -3.76279         6.62534
     2013.86995        -6.87446         6.67443
     2013.87269        -0.26513         6.65766
     2013.87542         2.15920         6.69119
     2013.87816         4.61353         6.62055
     2013.88090         1.54586         6.71034
     2013.88364         2.21619         6.92823
     2013.88637        -0.11348         6.57386
     2013.88911        -4.10615         6.61576
     2013.89185       -12.82081         6.68161
     2013.89459         9.17852         6.78696
     2013.89733        -3.07115         6.63731
     2013.90006        -0.52082         6.67323
     2013.90280        -5.69249         6.64090
     2013.90554        -3.87616         6.60618
     2013.90828         5.30417         6.64090
     2013.91102         3.21350         6.66006
     2013.91375        -4.89016         6.59182
     2013.91649        -6.58283         6.59780
     2013.91923       -11.04750         6.68759
     2013.92197       -13.70517         6.72591
     2013.92470        -7.58084         6.63611
     2013.92744        -6.02651         6.73309
     2013.93018        -9.62318         6.57745
     2013.93292        -7.98385         6.61576
     2013.93566        -2.96151         7.25746
     2013.93839        -3.38618         6.61935
     2013.94113        -5.23485         6.79774
     2013.94387        -2.42752         6.58703
     2013.94661        -4.41119         6.68400
     2013.94935        -8.30886         6.65407
     2013.95208       -11.61653         6.70316
     2013.95482         8.73180         6.67083
     2013.95756         3.87114         6.57865
     2013.96030        -1.33553         6.66126
     2013.96303        -7.13920         6.63611
     2013.96577        -6.19487         6.67323
     2013.96851        -6.32354         6.63731
     2013.97125        -4.56921         6.65048
     2013.97399        -3.92888         6.63252
     2013.97672        -3.96055         6.65288
     2013.97946       -13.03821         6.67203
     2013.98220        -8.70488         6.78936
     2013.98494        -9.32455         6.63372
     2013.98767       -15.75122         6.72830
     2013.99041       -20.60689         6.66964
     2014.00410       -22.11123         6.76900
     2014.00684       -10.79090         6.67802
     2014.00958        -8.60757         6.68400
     2014.01232        -8.45024         6.76062
     2014.01505        -7.67591         6.76182
     2014.01779        -9.00858         6.70675
     2014.02053         6.47175         6.62773
     2014.02327         6.10008         6.78936
     2014.02600         9.07042         6.84682
     2014.02874        10.35375         6.66964
     2014.03148        17.64108         6.65647
     2014.03422         9.67841         6.65766
     2014.03696         5.81774         6.74386
     2014.03969       -11.02693         6.69478
     2014.04243         4.39740         6.94260
     2014.04517        -0.32027         6.95337
     2014.04791         1.21807         6.60618
     2014.05065         2.64840         6.66964
     2014.05338        -1.60527         6.64689
     2014.05612        -2.21394         6.68759
     2014.05886        -9.07461         6.67203
     2014.06160        -7.89628         6.66604
     2014.06433         7.97305         6.81091
     2014.06707        -0.40762         6.80612
     2014.06981        -2.33928         6.72351
     2014.07255        -5.12695         6.64210
     2014.07529        -3.73362         6.60618
     2014.07802        -4.83029         6.58224
     2014.08076        -4.50896         6.61576
     2014.08350        -0.76763         6.60020
     2014.08624        -7.37830         6.76661
     2014.08898        -7.09797         6.90429
     2014.09171        -9.31463         6.90788
     2014.09445       -13.17030         6.59421
     2014.09719       -16.24197         6.76422
     2014.09993        -7.33164         6.67323
     2014.10266        -6.88931         6.88274
     2014.10540        -8.20698         6.74386
     2014.10814        -9.14865         6.68520
     2014.11088        -7.96532         6.80133
     2014.11362        -3.66898         6.64450
     2014.11635         1.99635         6.65647
     2014.11909         2.40868         6.61576
     2014.12183         2.01301         6.72112
     2014.12457         2.70534         6.62534
     2014.12731        12.68667         6.72950
     2014.13004         9.81000         6.65288
     2014.13278         4.41333         7.03478
     2014.13552         4.97267         8.33136
     2014.13826         1.22600         7.51367
     2014.14099        -4.88667         6.76900
     2014.14373        -8.83434         6.65048
     2014.14647        -6.92801         6.80732
     2014.14921        -2.86268         6.61696
     2014.15195        -4.59835         6.58344
     2014.15468        -4.69802         6.68640
     2014.15742        -2.85269         7.01802
     2014.16016        -3.42035         7.13774
     2014.16290        -9.51702         6.80971
     2014.16564       -10.84869         6.59780
     2014.16837        -7.25036         7.08866
     2014.17111        -6.47103         6.89830
     2014.17385        -7.86970         6.90908
     2014.17659        -4.06637         6.78457
     2014.17932        -2.10204         6.96774
     2014.18206        -9.59970         6.89711
     2014.18480        -5.15437         6.69957
     2014.18754        -5.36504         6.83126
     2014.19028        -7.48571         6.77140
     2014.19301         6.62562         6.71872
     2014.19575        -2.77905         6.85041
     2014.19849         0.53428         6.80612
     2014.20123         0.36161         6.73309
     2014.20397        -7.56105         6.60499
     2014.20670        -1.04772         6.62414
     2014.20944        -4.23739         6.75105
     2014.21218        -5.78206         6.61097
     2014.21492        -9.43473         6.77260
     2014.21765       -11.17940         6.82886
     2014.22039        -8.86607         6.61217
     2014.22313       -11.53074         6.66126
     2014.22587        -9.76740         6.65048
     2014.22861        -6.01607         6.67682
     2014.23134        -3.88274         6.70914
     2014.23408        -5.45241         6.84323
     2014.23682        -1.57708         6.73309
     2014.23956        -8.54575         6.73907
     2014.24230        -6.38742         6.63372
     2014.24503       -10.81809         6.61337
     2014.24777        -7.70675         6.88274
     2014.25051        -9.19042         7.08028
     2014.25325        -7.28809         6.66365
     2014.25598        -5.81276         6.86598
     2014.25872        -1.97743         6.77619
     2014.26146        -3.39310         6.81570
     2014.26420        -3.47677         6.70316
     2014.26694         6.34156         6.76900
     2014.26967        -3.30811         6.79774
     2014.27241        -5.48477         6.83246
     2014.27515        -4.54744         6.92344
     2014.27789        -7.94111         7.75191
     2014.28062        -8.39478         6.86598
     2014.28336        -6.71845         6.75344
     2014.28610        -2.85612         6.82647
     2014.28884        -7.33179         7.02162
     2014.29158       -11.79746         6.76062
     2014.29431       -11.25712         6.68281
     2014.29705        -8.11279         6.72591
     2014.29979       -10.65746         6.73309
     2014.30253        -9.96313         6.78457
     2014.30527        -5.10480         6.68520
     2014.30800        -6.38647         6.83126
     2014.31074        -7.28914         6.77739
     2014.31348        -4.92881         6.70436
     2014.31622        -3.82047         6.66245
     2014.31895        -1.51514         6.66844
     2014.32169       -10.26081         6.83246
     2014.32443       -14.77148         6.83964
     2014.32717       -20.47815         8.00811
     2014.32991       -13.16082         6.66485
     2014.33264       -15.12749         6.67562
     2014.33538       -12.36816         6.71513
     2014.33812       -13.03082         7.36761
     2014.34086        -7.42749         6.71034
     2014.34360        -6.24416         6.63372
     2014.34633        -7.21983         6.70076
     2014.34907       -12.31250         7.32690
     2014.35181        -3.56617         6.92344
     2014.35455        -6.39384         6.67083
     2014.35728        -9.80651         6.76062
     2014.36002        -4.18717         6.69238
     2014.36276        -8.26984         6.70436
     2014.36550        -9.68551         6.70076
     2014.36824       -14.50618         6.81809
     2014.37097       -12.14785         6.64809
     2014.37371        -8.54952         6.58104
     2014.37645        -3.51719         6.61935
     2014.37919        -3.39286         6.60858
     2014.38193        -8.46752         6.67203
     2014.38466        -8.13519         6.64569
     2014.38740        -8.88486         6.57147
     2014.39014        -6.60553         6.57865
     2014.39288        -8.57620         6.57506
     2014.39561        -4.94287         6.58703
     2014.39835       -11.29654         6.54872
     2014.40109        -7.83821         6.67323
     2014.40383        -7.87188         6.66245
     2014.40657        -5.77754         6.76302
     2014.40930        -9.91721         6.68759
     2014.41204        -3.84488         6.74386
     2014.41478        -4.32855         6.67083
     2014.41752        -4.77422         6.67203
     2014.42026        -1.01789         6.65048
     2014.42299        -5.69256         6.68999
     2014.42573        -7.87423         6.69957
     2014.42847        -2.08689         6.67323
     2014.43121        -5.98656         6.71513
     2014.43394         0.44277         7.04676
     2014.43668        -4.37190         6.66724
     2014.43942        -8.81957         6.88992
     2014.44216        -8.35024         6.68281
     2014.44490        -5.64991         6.80851
     2014.44763        -3.58258         6.77379
     2014.45037        -2.36124         6.57985
     2014.45311        -3.84791         6.66724
     2014.45585        -4.20458         6.72112
     2014.45859        -5.29225         6.74865
     2014.46132        -6.52792         6.98929
     2014.46406        -0.93159         6.69358
     2014.46680        -4.21026         6.71393
     2014.46954        -6.63293         6.69598
     2014.47227        -0.69059         6.64090
     2014.47501        -1.95726         6.70914
     2014.47775        -4.88593         6.69957
     2014.48049        -3.40760         6.76062
     2014.48323        -5.64827         6.70675
     2014.48596         3.54006         6.71034
     2014.48870         2.85539         6.69837
     2014.49144         0.61372         6.63611
     2014.49389        -0.46106         7.21437
     2014.49692        -4.27861         6.57266
     2014.49965        -3.33628         6.57027
     2014.50239        -5.20795         6.73069
     2014.50513        -0.02262         6.69358
     2014.50787        -0.73929         6.58224
     2014.51060       -10.27096         6.54992
     2014.51334        -0.28863         6.60858
     2014.51608         0.21170         6.58703
     2014.51882        -3.27096         6.68520
     2014.52156         0.59337         6.65766
     2014.52429         4.58870         6.62773
     2014.52703         9.53403         6.64689
     2014.52977        -9.30664         6.81210
     2014.53251        -2.20831         6.75224
     2014.53525        -1.55998         6.66724
     2014.53798         2.41335         6.54992
     2014.54072         1.09769         6.66245
     2014.54346         2.31802         6.62175
     2014.54620         3.71135         6.60978
     2014.54893        -0.82032         6.63252
     2014.55167        -4.02099         6.55351
     2014.55441        -3.73466         6.55830
     2014.55715        -2.27433         6.54752
     2014.55989        -3.05200         6.55351
     2014.56262         6.54334         6.62414
     2014.56536        -1.94233         6.63971
     2014.56810         2.33100         6.60499
     2014.57084         0.52433         6.54154
     2014.57357        -0.94234         6.54752
     2014.57631        -6.21301         6.54992
     2014.57905        -0.63168         6.59302
     2014.58179        -3.62835         6.68759
     2014.58453        -1.95901         6.75703
     2014.58726        -0.29668         6.76182
     2014.59000        -7.43835         6.75224
     2014.59259         7.16247         7.14972
     2014.59548         1.88831         6.63133
     2014.59822        -0.15336         6.63372
     2014.60095         0.75297         6.73309
     2014.60369         4.97730         6.66245
     2014.60643         3.30164         6.58344
     2014.60917        16.12697         6.78457
     2014.61190        25.41230         6.89711
     2014.61415         7.47462         7.93987
     2014.61630        24.02091        15.60918
     2014.61978        17.73675         7.56275
     2014.62166       -17.06027        21.30309
     2014.62559        11.08995         6.68640
     2014.62833        -1.21171         6.72830
     2014.63107         3.96662         6.68999
     2014.63381         2.83395         6.83605
     2014.63655        -1.71172         6.75823
     2014.63928         0.30761         6.71274
     2014.64202        -0.53106         6.76182
     2014.64476        -1.05073         6.66485
     2014.64750        15.49560         6.72591
     2014.64949         6.38943        10.22055
     2014.65297         2.28127         8.09311
     2014.65571         5.16460         7.01802
     2014.65845         9.13093         6.79055
     2014.66119         5.32526         6.70076
     2014.66392         7.55659         6.81091
     2014.66600        16.45965         9.18976
     2014.66814        20.75293        24.10695
     2014.67174         7.78262         7.76029
     2014.67488         4.43892         6.68759
     2014.67647         6.09078        17.10688
     2014.67972        13.60992         8.76355
     2014.68297         4.24906         6.97492
     2014.68531        -0.60157         7.92910
     2014.68742         1.88010        16.73216
     2014.69107        -0.29279         7.30775
     2014.69404        -0.95777         6.77020
     2014.69678       -11.77443         6.78098
     2014.69952        -4.31910         6.65407
     2014.70225        -7.54877         6.54273
     2014.70499         9.76556         6.56907
     2014.70773         8.08889         6.61816
     2014.71047         3.63122         6.56907
     2014.71321         5.16455         6.57625
     2014.71549         7.39150         8.20565
     2014.71745        32.62570        27.96913
     2014.72142         6.33155         6.60140
     2014.72414         9.39102         6.71513
     2014.72570        -5.97769        20.68294
     2014.72963         1.71754         6.68161
     2014.73237        -1.43313         6.60259
     2014.73461         4.95720         7.99734
     2014.73785         2.73953         6.69598
     2014.74058         8.54287         6.63851
     2014.74332         2.82720         6.69238
     2014.74606         4.80053         6.74506
     2014.74880         2.03586         6.61696
     2014.75154         1.45919         6.75224
     2014.75427         4.32052         6.66964
     2014.75701         3.30085         6.76422
     2014.75941         1.19864         7.59987
     2014.76249        12.50951         6.82767
     2014.76522         6.76085         6.58344
     2014.76796         6.11718         6.67083
     2014.77070         6.54651         7.16767
     2014.77344        11.13184         6.75943
     2014.77618        16.27817         6.89950
     2014.77891        16.52650         6.60020
     2014.78165         9.90583         6.57027
     2014.78439        13.20216         6.69837
     2014.78713         9.13650         6.66365
     2014.78987         4.60683         6.60978
     2014.79260         5.31416         6.63611
     2014.79531         6.31183         6.71992
     2014.79808        18.09282         6.81689
     2014.80082        18.91015         7.07549
     2014.80355        10.64648         6.80851
     2014.80629        13.47381         6.78457
     2014.80903         3.85815         6.65048
     2014.81177         8.98848         6.63731
     2014.81451         7.12881         6.64450
     2014.81724        13.19814         6.68759
     2014.81998         7.54147         6.77858
     2014.82272         6.03780         7.18204
     2014.82546        10.67213         6.62893
     2014.82820         1.65746         6.57865
     2014.83093        10.38780         6.69358
     2014.83367        16.03813         6.56189
     2014.83510       -23.73128        64.25526
     2014.84035        13.80159        20.55603
     2014.84188         9.80012         7.28859
     2014.84462        11.41145         6.80851
     2014.84736        12.49978         6.67682
     2014.85010         6.18211         6.83844
     2014.85284         8.65245         6.63611
     2014.85557         3.10378         6.61816
     2014.85831         1.79311         7.27542
     2014.86105        -1.58256         6.63133
     2014.86379         0.18477         6.54872
     2014.86653        -0.94690         6.55351
     2014.86926        -3.59857         6.59421
     2014.87200         1.60476         6.69957
     2014.87474        -3.88390         6.90788
     2014.87748         1.48243         6.57745
     2014.88021        -4.20824         6.69478
     2014.88295         0.61609         6.60020
     2014.88569         1.20942         6.83725
     2014.88843         8.46275         6.88513
     2014.89117        17.10808         6.97492
     2014.89390         6.03541         6.95577
     2014.89664         4.64174         6.88873
     2014.89938        -2.05192         6.83126
     2014.90212        -7.73659         6.82647
     2014.90485       -12.19226         6.67921
     2014.90759        -6.33193         6.63971
     2014.91033        -2.01660         6.67921
     2014.91307         1.43873         6.66126
     2014.91581         0.53406         6.69238
     2014.91854         2.10139         6.79055
     2014.92128        -1.76827         6.74626
     2014.92402         1.58306         6.65527
     2014.92676        -4.21561         6.69358
     2014.92950        -1.93528         6.71513
     2014.93223        -3.91195         6.79893
     2014.93497        -6.95362         6.63492
     2014.93771        -3.94029         6.60259
     2014.94045        -0.74896         6.60259
     2014.94318         2.33038         6.67083
     2014.94592         0.13171         6.90189
     2014.94866        -1.28696         6.59900
     2014.95140        -4.34363         6.61935
     2014.95414         4.09570         6.73429
     2014.95687         5.80503         6.60618
     2014.95961         4.93936         6.63013
     2014.96235         4.44969         6.56309
     2014.96509         2.22603         6.80372
     2014.96783        -0.19364         6.58224
     2014.97056        -6.46631         6.64809
     2014.97330        -8.98498         7.26824
     2014.97604        -2.79765         6.76781
     2014.97878         0.72868         6.79055
     2014.98151         3.18201         6.71633
     2014.98425         1.98134         6.75584
     2014.98699         0.07368         6.53794
     2014.98973       -11.50799         6.59780
     2014.99247       -10.46866         6.87196
     2014.99520       -10.92333         6.66964
     2014.99794        -2.06900         6.63372
     2015.00068        -4.13667         6.56428
     2015.00342       -10.20834         6.64928
     2015.00616       -21.23501         6.59900
     2015.00889       -13.89267         7.61064
     2015.01163        -5.55034         6.63611
     2015.01437        -7.71601         6.66604
     2015.01711        -8.38868         7.36402
     2015.01984       -13.32035         6.58942
     2015.02258        -2.67702         6.65766
     2015.02532        -5.31969         6.52477
     2015.02806        -5.21436         6.57865
     2015.03080         1.92197         6.55111
     2015.03353        -4.70369         6.57266
     2015.03627         6.97364         6.58463
     2015.03901         2.98997         6.55710
     2015.04175         9.21130         6.69837
     2015.04449        -0.73537         6.73429
     2015.04722         5.79896         6.52597
     2015.04996        -5.29971         6.55351
     2015.05270        -7.02938         6.59062
     2015.05544         1.99396         6.62534
     2015.05817         1.30529         6.76422
     2015.06091        -1.02038         6.73189
     2015.06365        13.65595         6.90668
     2015.06639        -1.03372         6.56787
     2015.06913        -2.62139         6.70076
     2015.07186       -12.00006         6.68281
     2015.07460        -4.20573         6.69717
     2015.07734       -14.83139         6.66724
     2015.08008       -15.60806         6.66604
     2015.08282       -20.19573         6.53675
     2015.08555       -16.40440         6.66964
     2015.08829        -9.03007         6.91267
     2015.09103        -5.39174         6.75943
     2015.09377        -5.71241         6.60259
     2015.09650        -5.96308         6.67323
     2015.09924        -2.25174         6.89830
     2015.10198        -5.97841         6.84922
     2015.10472       -12.03108         6.59541
     2015.10746        -9.82575         6.57147
     2015.11019       -16.90842         6.66844
     2015.11293        -8.61009         6.75584
     2015.11567        -2.06676         6.58463
     2015.11841        -1.94143         6.72471
     2015.12115        -1.61309         6.60618
     2015.12388        -5.43776         6.57506
     2015.12662        -8.25243         6.57147
     2015.12936        11.83490         6.82647
     2015.13210        -3.23377         6.76182
     2015.13483        -6.26944         6.62414
     2015.13757        -5.98411         6.55351
     2015.14031        -8.66178         6.56668
     2015.14305        -2.87745         6.60858
     2015.14579        -3.43611         7.31014
     2015.14852        -8.26578         7.12577
     2015.15126        -4.35945         6.60499
     2015.15400        -7.83212         6.58224
     2015.15674        -8.93579         6.59780
     2015.15948        -2.38446         6.69598
     2015.16221        -7.65513         7.24908
     2015.16495        -9.48780         7.53282
     2015.16769        -3.72846         6.61337
     2015.17043        -5.87313         6.62414
     2015.17316         1.76420         6.68520
     2015.17590       -12.24147         6.86358
     2015.17864         0.86186         6.75105
     2015.18138         7.54719         6.72710
     2015.18412         9.14352         6.64689
     2015.18685        -0.34115         6.62654
     2015.18959        -3.16281         6.70675
     2015.19233        -2.87548         6.90668
     2015.19507         6.72285         6.65048
     2015.19780         8.15018         6.55590
     2015.20054        -0.46049         6.60738
     2015.20328         1.62684         6.59661
     2015.20602         0.44417         9.37053
     2015.20876        -6.69250         7.09584
     2015.21149        -8.09716         6.96295
     2015.21423        -4.24183         6.82168
     2015.21697         1.79650         6.65886
     2015.21971        -6.08717         6.81570
     2015.22245        -4.37784         6.57266
     2015.22518        -5.45351         6.51400
     2015.22792        -3.48518         6.54393
     2015.23066        -2.48085         6.58344
     2015.23340         5.09849         6.79295
     2015.23613        -5.05118         6.91387
     2015.23887        -0.18585         7.11859
     2015.24161        -0.69352         6.96415
     2015.24435         2.47081         7.05394
     2015.24709         0.50714         6.77739
     2015.24982        -3.41453         6.58703
     2015.25256        -7.28420         6.54273
     2015.25530        -6.52286         6.52597
     2015.25804        -8.17553         6.51639
     2015.26078        -4.59520         6.58463
     2015.26351        -7.08287         6.55470
     2015.26625        -6.04654         6.58104
     2015.26899        -1.42321         6.61097
     2015.27173         6.59812         7.56156
     2015.27446         3.93645         7.74832
     2015.27720        -1.02722         6.68281
     2015.27994        -3.93788         6.64090
     2015.28268        -2.94455         6.71513
     2015.28542        -6.71522         7.18683
     2015.28815        -0.76389         7.51127
     2015.29089       -11.08956         6.86239
     2015.29363       -12.71623         6.64210
     2015.29637       -12.17390         6.63731
     2015.29911        -7.80557         6.68400
     2015.30184        -5.77123         6.85760
     2015.30458        -7.38390         6.62654
     2015.30732        -5.18757         6.48168
     2015.31006       -14.52424         6.49963
     2015.31279       -12.04591         6.50921
     2015.31553        -8.45858         6.52837
     2015.31827        -7.14525         6.58463
     2015.32101        -3.80192         6.56428
     2015.32375        -4.38358         6.51879
     2015.32648        -6.69425         6.61217
     2015.32922        -4.83692         6.67682
     2015.33196       -10.03559         6.51280
     2015.33470       -11.36926         6.51280
     2015.33744        -9.46593         6.48168
     2015.34017       -15.47860         6.49006
     2015.34291       -18.79327         7.19282
     2015.34565       -10.68993         6.52717
     2015.34839       -14.33060         6.50322
     2015.35112        -9.63227         6.51999
     2015.35386       -10.50694         6.67323
     2015.35660       -15.51261         6.86718
     2015.35934       -16.97828         7.31852
     2015.36208        -7.63395         7.05274
     2015.36481        -7.43162         6.48646
     2015.36755        -8.36428         6.51759
     2015.37029       -13.66995         6.49844
     2015.37303       -14.72162         6.56309
     2015.37577       -10.31829         6.74626
     2015.37850       -12.77096         6.76900
     2015.38124       -13.46763         6.51400
     2015.38398       -10.70130         6.51400
     2015.38672       -13.39897         6.53076
     2015.38945        -8.17264         6.52358
     2015.39219        -6.14030         6.52118
     2015.39493        -7.12697         6.52717
     2015.39767        -7.94664         6.58703
     2015.40041        -5.89331         6.56069
     2015.40314        -2.98898         6.71752
     2015.40588       -15.00865         6.47449
     2015.40862       -10.38432         6.53196
     2015.41136         0.81501         6.55949
     2015.41410        -6.47965         6.57506
     2015.41683        -6.14932         6.60259
     2015.41957        -2.70699         6.51400
     2015.42231        -3.74966         6.58463
     2015.42505        13.18967         6.81091
     2015.42778        -2.78800         6.59661
     2015.43052         5.18533         6.58344
     2015.43326        -3.91734         6.94739
     2015.43600         1.91000         6.52956
     2015.43874        -2.49567         6.58224
     2015.44147        -1.05134         6.79295
     2015.44421        -6.47901         6.58703
     2015.44695        -7.00168         6.56548
     2015.44969        -9.49835         6.65886
     2015.45243        -7.41402         6.81929
     2015.45516        -5.10369         6.58463
     2015.45790        -6.14435         6.87077
     2015.46064        -2.21202         6.74147
     2015.46338         4.20031         6.66126
     2015.46611         1.43864         6.51041
     2015.46885         1.63397         6.58224
     2015.47159        -0.10370         6.81091
     2015.47433         0.67263         8.17572
     2015.47707        -4.51904         6.83844
     2015.47980        -1.63970         7.56275
     2015.48254        -3.07437         6.64809
     2015.48528        -3.05404         6.59541
     2015.48802        -8.09071         6.58823
     2015.49076        -2.09038         6.55830
     2015.49349        -4.95205         6.65168
     2015.49623        -0.46972         6.72830
     2015.49897         3.74861         6.85880
     2015.50171        -3.11605         6.57386
     2015.50444        -1.15572         6.56548
     2015.50718        -4.70439         6.83605
     2015.50992         1.74694         6.64330
     2015.51266        -0.82973         6.58703
     2015.51540         1.70060         6.61217
     2015.51813         3.39893         6.51759
     2015.52087         3.23126         6.54393
     2015.52361         4.18959         6.94021
     2015.52635        -3.38607         6.55351
     2015.52908         4.00626         7.33768
     2015.53182         6.52159         6.57266
     2015.53456         3.10192         6.55830
     2015.53730        -0.07875         6.57506
     2015.54004         0.75258         6.55590
     2015.54277         5.63591         6.58104
     2015.54551         4.75024         6.53435
     2015.54825         2.65658         6.61217
     2015.55099         0.89991         6.58583
     2015.55373         4.67424         6.60140
     2015.55646         4.87857         7.10662
     2015.55920        10.13590         6.63372
     2015.56194         7.60223         6.66844
     2015.56468         5.08056         6.76062
     2015.56741         9.22389         6.86239
     2015.57015         8.51323         6.84922
     2015.57289        -3.05244         6.73189
     2015.57563         0.24789         6.62414
     2015.57837        -0.57078         6.69238
     2015.58110         2.32555         6.62773
     2015.58384         6.91788         6.69598
     2015.58658         3.87521         6.67083
     2015.58932        11.96254         6.68281
     2015.59206         1.69088         6.67802
     2015.59479         2.09721         6.83725
     2015.59753         1.76354         6.92344
     2015.60027         0.16587         7.19880
     2015.60301         6.63220         6.73189
     2015.60574        15.87953         6.79893
     2015.60848        10.46286         6.71154
     2015.61122         5.60919         6.54273
     2015.61396         8.93753         6.59182
     2015.61670         0.48486         6.45773
     2015.61943         4.27819         7.30056
     2015.62217         2.22152         7.22394
     2015.62491        11.04685         7.14972
     2015.62765         8.79018         6.65407
     2015.63039         9.55151         6.95697
     2015.63312         1.69084         6.49724
     2015.63586         4.55418         6.49724
     2015.63860        15.41551         6.66365
     2015.64134        11.14384         7.41550
     2015.64407         9.20317         6.52358
     2015.64681         5.06650         6.56069
     2015.64955         0.49683         7.03957
     2015.65229         9.17516         8.60911
     2015.65503         6.67549         7.95424
     2015.65776         9.92182         6.67083
     2015.66050        16.44716         6.49963
     2015.66324        12.87649         6.48886
     2015.66598        12.09582         6.59062
     2015.66872         8.32015         6.63492
     2015.67145         1.74148         6.50203
     2015.67419         9.15681         6.77499
     2015.67693         6.02214         6.47928
     2015.67967         3.46847         6.54872
     2015.68240         5.11781         6.83964
     2015.68514         2.50514         6.64569
     2015.68788         4.65247         8.97785
     2015.69062        17.31980         6.49484
     2015.69336         6.23013         8.37206
     2015.69609        15.00346         6.51041
     2015.69883         9.52379         6.50682
     2015.70157         3.78112         6.50203
     2015.70431         9.17446         6.45534
     2015.70705         8.86579         6.49963
     2015.70978        13.06512         6.46851
     2015.71252        12.98145         6.71513
     2015.71526        14.73678         6.72830
     2015.71800         6.85011         7.46937
     2015.72073        14.71844         6.46491
     2015.72347         4.36177         6.48646
     2015.72621         2.51511         6.50083
     2015.72895         7.51144         6.45773
     2015.73169        14.91477         6.45534
     2015.73442        10.31910         6.48527
     2015.73716        10.27743         6.44336
     2015.73990         9.97576         6.57625
     2015.74264        15.70809         6.61935
     2015.74538        18.21642         6.92823
     2015.74811         7.92476         6.76302
     2015.75085        -5.13691         6.86837
     2015.75359        -0.84858         6.60259
     2015.75633         2.31875         6.88992
     2015.75906         2.68108         6.99528
     2015.76180         2.90641         6.50921
     2015.76454         5.83474         7.41789
     2015.76728         4.79007         6.98809
     2015.77002        13.93640         6.57745
     2015.77275        18.04674         6.51400
     2015.77549        13.26907         6.46491
     2015.77823        16.69840         6.77739
     2015.78097        16.86273         6.66126
     2015.78371         2.54106         6.63133
     2015.78644         4.90539         6.48766
     2015.78918         7.80872         6.49006
     2015.79192         9.75705         6.53196
     2015.79466        13.61639         7.01204
     2015.79739        10.79972         6.49484
     2015.80013         6.82605         6.49365
     2015.80287        11.80938         6.45414
     2015.80561        14.88671         6.49006
     2015.80835        13.61504         6.46372
     2015.81108         0.10437         6.49724
     2015.81382         1.44970         6.47569
     2015.81656        -0.62396         6.42900
     2015.81930         1.92237         6.45294
     2015.82203         7.17670         6.47928
     2015.82477         6.83603         6.46611
     2015.82751         7.75336         6.49006
     2015.83025         9.81169         6.46013
     2015.83299         6.21402         6.52837
     2015.83572         7.38135         6.45653
     2015.83846         4.58769         7.56515
     2015.84120         8.44702         6.94619
     2015.84394         0.25135         6.50682
     2015.84668        15.59368         6.44217
     2015.84941        15.69701         7.70163
     2015.85215         4.95334         6.59900
     2015.85489        14.77767         6.83605
     2015.85763         2.34900         6.71513
     2015.86036         8.10834         6.61457
     2015.86310        19.52367         6.51759
     2015.86584        13.46800         6.57506
     2015.86858         7.21133         6.54632
     2015.87132         1.59666         6.56428
     2015.87405         0.57499         6.61457
     2015.87679         1.75832         6.54992
     2015.87953        -1.37635         6.61935
     2015.88227        -0.30801         6.62414
     2015.88501       -12.36368         6.57147
     2015.88774         0.28765         6.67802
     2015.89048         9.49198         6.59062
     2015.89322         0.34331         6.51280
     2015.89596         0.17764         6.55111
     2015.89869        -4.42503         6.60259
     2015.90143         1.74530         6.58344
     2015.90417        -1.68137         6.59780
     2015.90691         1.27297         6.55590
     2015.90965         4.30130         6.63252
     2015.91238         3.50363         6.85401
     2015.91512        -1.55404         6.54034
     2015.91786         6.38529         6.58823
     2015.92060         5.92662         6.56548
     2015.92334         4.07995         6.55470
     2015.92607         0.01628         6.46851
     2015.92881        -0.23738         6.53555
     2015.93155         2.02895         6.61097
     2015.93429         2.30128         6.61816
     2015.93702         5.24561         6.59541
     2015.93976         4.52294         6.75943
     2015.94250        -0.59973         6.79175
     2015.94524         0.27860         6.62773
     2015.94798        -0.32607         6.58224
     2015.95071         8.26427         6.49963
     2015.95345         2.16860         6.46252
     2015.95619         3.04793         6.44935
     2015.95893         0.60826         6.58703
     2015.96167         7.15659         6.54752
     2015.96440         1.21492         6.40386
     2015.96714         6.64125         8.69651
     2015.96988        -1.65842         7.80579
     2015.97262         6.13592         6.52358
     2015.97535        -2.91075         6.46491
     2015.97809        -8.65042         6.41822
     2015.98083        -8.59109         6.41822
     2015.98357       -10.92176         6.44696
     2015.98631       -13.53943         6.48527
     2015.98904        -6.80810         6.48168
     2015.99178        -6.62077         6.43020
     2015.99452        -1.94243         6.38949
     2015.99726         6.18990         6.88513
     2016.00000         2.44823         6.82408
     2016.00273        -3.24344         6.48886
     2016.00547        -4.10411         6.49484
     2016.00821        -8.17678         6.38710
     2016.01095        -2.23445         6.42181
     2016.01368        -4.81412         6.47928
     2016.01642       -11.10179         6.58823
     2016.01916        -6.62945         6.75703
     2016.02190         0.38388         6.67682
     2016.02464        -0.82479         6.39069
     2016.02737        -9.56346         6.43498
     2016.03011        -4.64113         6.49604
     2016.03285         0.04820         6.45773
     2016.03559        -4.31847         6.43498
     2016.03833        -6.55214         6.66365
     2016.04106        -0.56380         6.44696
     2016.04380         1.40553         6.44217
     2016.04654        -1.52614         6.50083
     2016.04928        -5.68381         6.44935
     2016.05201        -7.46148         7.72797
     2016.05475        -1.24815         6.63492
     2016.05749         4.00518         6.43379
     2016.06023         9.12451         6.45653
     2016.06297        -0.06415         6.44696
     2016.06570         2.14518         6.61816
     2016.06844         0.12651         6.64928
     2016.07118         7.24884         6.66006
     2016.07392         8.36517         6.67323
     2016.07666         3.70650         6.88034
     2016.07939         4.16483         6.61457
     2016.08213         1.09016         6.83126
     2016.08487        -0.37750         6.64330
     2016.08761        -2.58817         6.65168
     2016.09034        -4.16384         6.69358
     2016.09308        -5.30251         6.64210
     2016.09582        -7.18618         6.63731
     2016.09856        -3.80185         6.63133
     2016.10130        -8.24152         6.65647
     2016.10403        -6.06319         6.65766
     2016.10677       -14.72285         6.74985
     2016.10951       -10.90152         6.63851
     2016.11225        -5.62019         6.72950
     2016.11498        -8.93286         6.78816
     2016.11772        -1.23053         6.64809
     2016.12046        -7.76120         6.66485
     2016.12320        -9.25487         6.63492
     2016.12594        -7.14254         7.05514
     2016.12867        -3.56520         6.78577
     2016.13141        -2.89287         6.68400
     2016.13415         1.26946         6.63851
     2016.13689         0.76179         6.63013
     2016.13963        -3.61188         6.62295
     2016.14236       -13.93255         6.64210
     2016.14510       -10.08522         6.60379
     2016.14784        -5.73589         6.60379
     2016.15058         0.05244         6.61816
     2016.15331        -1.27422         6.79055
     2016.15605         1.75211         6.63372
     2016.15879         1.01644         6.70555
     2016.16153        -4.42823         6.69478
     2016.16427        -3.90190         6.59900
     2016.16700        -2.47657         6.63252
     2016.16974        -3.21724         6.60499
     2016.17248        -0.64891         6.71393
     2016.17522        -8.40557         6.60020
     2016.17796         1.67876         6.83006
     2016.18069         0.70409         6.86718
     2016.18343         2.16542         6.84802
     2016.18617         2.54875         6.59900
     2016.18891         1.57508         6.54273
     2016.19164         1.90041         6.85281
     2016.19438         1.91874         6.53555
     2016.19712        -1.85292         6.52597
     2016.19986        -4.72059         6.77739
     2016.20260        -5.39726         7.07908
     2016.20533        -8.01393         6.96654
     2016.20807       -12.98960         6.87316
     2016.21081        -9.27327         6.78696
     2016.21355        -3.54094         6.90549
     2016.21629        -6.35461         6.52477
     2016.21902        -3.92727         6.50442
     2016.22176        -3.97694         6.58344
     2016.22450        -6.19261         6.56309
     2016.22724        -7.87028         6.51759
     2016.22997        -7.96995         6.50322
     2016.23271         1.32838         6.52238
     2016.23545        -6.59729         6.56907
     2016.23819        -1.15796         6.59780
     2016.24093         2.07838         6.62654
     2016.24366        -5.99929         6.58344
     2016.24640        -3.09196         6.46611
     2016.24914         2.59037         6.55111
     2016.25188         9.81370         6.63133
     2016.25462        -2.64897         6.56309
     2016.25735        -2.54564         6.49963
     2016.26009        -4.78931         6.51400
     2016.26283        -2.03598         6.48048
     2016.26557        -2.71664         6.53315
     2016.26830         0.71369         6.57147
     2016.27104        -4.83098         6.53675
     2016.27378        -2.21465         6.52956
     2016.27652       -11.39732         6.50801
     2016.27926        -5.10199         6.59780
     2016.28199        -2.12466         6.88753
     2016.28473        -3.39133         6.86598
     2016.28747        -6.13499         6.54273
     2016.29021        -7.40666         6.57745
     2016.29295        -9.60333         6.52837
     2016.29568        -6.00700         6.55830
     2016.29842        -4.48067         6.73548
     2016.30116        -6.03234         6.72710
     2016.30390       -13.29701         6.54632
     2016.30663        -5.78868         6.59182
     2016.30937        -4.83934         6.49484
     2016.31211        -5.34301         6.51041
     2016.31485        -2.09668         6.55590
     2016.31759         0.20265         6.58104
     2016.32032        -8.63202         6.58583
     2016.32306       -12.11369         6.53794
     2016.32580        -7.88136         6.48287
     2016.32854        -5.54403         6.57147
     2016.33128        -3.01569         6.69598
     2016.33401        -6.42536         6.79774
     2016.33675        -5.01603         6.64210
     2016.33949       -10.39370         6.57865
     2016.34223        -5.89437         6.66724
     2016.34496        -1.86204         6.92464
     2016.34770         2.53429         6.73788
     2016.35044        -2.51238         8.45826
     2016.35318       -13.79104         6.70436
     2016.35592       -14.19871         6.59302
     2016.35865       -17.17938         6.57266
     2016.36139       -11.35305         6.55351
     2016.36413        -4.15372         6.58703
     2016.36687        -2.57339         6.63372
     2016.36961         3.22394         6.60978
     2016.37234         3.35127         6.73069
     2016.37508         4.29961         6.66365
     2016.37782        -9.63106         6.59780
     2016.38056        -6.34573         6.77619
     2016.38329        -7.35340         6.57386
     2016.38603        -9.47207         6.59900
     2016.38877         4.09126         6.59302
     2016.39151        -3.98641         6.62654
     2016.39425        -2.71008         6.62773
     2016.39698         4.04925         6.63013
     2016.39972         9.05559         6.59302
     2016.40246        -2.47508         6.75703
     2016.40520        -3.82975         6.66604
     2016.40794        -2.58642         6.56787
     2016.41067        -4.82009         6.59661
     2016.41341        -2.42376         6.57506
     2016.41615         0.38557         6.56548
     2016.41889        -4.00910         7.01563
     2016.42162         0.82224         6.67562
     2016.42436       -11.42143         6.60020
     2016.42710        -5.66810         6.75823
     2016.42984         4.93123         6.82767
     2016.43258        -5.06244         6.60499
     2016.43531        -2.82311         6.60499
     2016.43805        -0.80578         6.57625
     2016.44079        -3.64845         6.55830
     2016.44353        -3.48111         6.61217
     2016.44626        -6.12278         6.61696
     2016.44900        -2.39145         6.60020
     2016.45174        -4.64312         6.61576
     2016.45448        -2.65579         6.70675
     2016.45722        -7.24946         6.64689
     2016.45995         0.88887         6.61816
     2016.46269        -1.26380         6.60379
     2016.46543        -1.20446         6.57625
     2016.46817       -11.72513         6.70795
     2016.47091         4.30920         6.62055
     2016.47364        -1.76747         6.58463
     2016.47638        -5.83214         6.56189
     2016.47912         1.78819         6.85161
     2016.48186        -0.31948         6.54992
     2016.48459        -1.71015         6.64450
     2016.48733        -9.32481         6.63971
     2016.49007        -9.62048         6.57625
     2016.49281        -9.65715         6.58703
     2016.49555        -0.40882         6.57865
     2016.49828        -2.00149         6.57865
     2016.50102        -7.57016         6.64809
     2016.50376        -1.72383         6.73429
     2016.50650        -3.51150         6.68400
     2016.50924        -3.97416         6.54513
     2016.51197        -4.75283         6.55111
     2016.51471        -4.77250         6.92704
     2016.51745        -6.86317         7.34247
     2016.52019        -4.42184         6.66006
     2016.52292        -3.30251         6.60618
     2016.52566        -4.55418         6.59900
     2016.52840        -2.00785         6.85041
     2016.53114         2.52348         6.68879
     2016.53388        -8.04718         6.71633
     2016.53661        -2.06285         6.70436
     2016.53935        -4.32852         6.65527
     2016.54209        -6.90919         6.66006
     2016.54483        -1.97186         6.68281
     2016.54757        -3.76653         6.60259
     2016.55030         1.57280         6.89471
     2016.55304        -1.25787         6.60379
     2016.55578        -3.33053         6.76781
     2016.55852         5.69980         6.63372
     2016.56125         7.04313         6.64809
     2016.56399         6.30946         7.01084
     2016.56673         1.94179         6.72830
     2016.56947        -3.26588         6.65886
     2016.57221         5.97345         6.77499
     2016.57494        -3.91822         6.80133
     2016.57768         1.30412         6.61097
     2016.58042        -2.49855         6.53794
     2016.58316        -1.98422         6.60858
     2016.58590        -4.33389         6.60738
     2016.58863        -3.30456         7.48493
     2016.59137        -3.33823         6.71992
     2016.59411        -3.68790         6.68759
     2016.59685         4.59243         6.71872
     2016.59958         2.15977         6.64090
     2016.60232         9.80910         6.67323
     2016.60506        -3.11757         6.68640
     2016.60780        -5.95524         6.69837
     2016.61054        -1.41991         6.64809
     2016.61327         3.69842         6.73189
     2016.61601         9.79475         6.66844
     2016.61875        -4.28092         6.68520
     2016.62149         1.63142         6.61816
     2016.62423        -2.06725         6.82527
     2016.62696        -1.55392         6.63252
     2016.62970        -0.82159         6.65288
     2016.63244         1.69574         6.79055
     2016.63518        -3.05693         6.53196
     2016.63791         2.20740         6.56069
     2016.64065         5.33773         6.69358
     2016.64339         8.52606         6.76661
     2016.64613        -0.27060         6.76062
     2016.64887        -3.66727         6.61816
     2016.65160         2.09806         6.61337
     2016.65434        -0.55961         6.61696
     2016.65708        -4.55828         6.62055
     2016.65982         0.13305         6.61097
     2016.66256         1.44138         6.69358
     2016.66529        -0.34129         6.55949
     2016.66803         1.92905         6.95697
     2016.67077        -1.39162         6.92943
     2016.67351        -7.42129         7.22394
     2016.67624         3.60604         6.83006
     2016.67898         4.38637         6.60738
     2016.68172         8.84470         6.61816
     2016.68446        -6.58797         6.89591
     2016.68720         2.05636         7.05035
     2016.68993         6.36270         6.74267
     2016.69267         4.09303         6.55351
     2016.69541        -1.01564         6.60259
     2016.69815         4.73469         6.59661
     2016.70089         5.85302         6.74027
     2016.70362         6.05535         6.94739
     2016.70636         6.78068         6.97253
     2016.70910         5.36301         7.04795
     2016.71184         4.30535         6.51759
     2016.71457         6.87468         6.51999
     2016.71731         5.77201         6.64330
     2016.72005         2.29334         6.64090
     2016.72279         4.08867         6.61696
     2016.72553         7.93800         6.94499
     2016.72826        12.57233         6.77499
     2016.73100         3.92266         6.51879
     2016.73374         6.90200         6.67921
     2016.73648        11.25433         6.69238
     2016.73921         7.95666         6.99169
     2016.74195         1.84599         6.73668
     2016.74469        -2.84868         7.24908
     2016.74743        -7.32535         6.58104
     2016.75017        -0.83702         6.64330
     2016.75290         5.68731         6.58703
     2016.75564         9.28965         6.55949
     2016.75838         5.28398         6.89351
     2016.76112         0.89331         6.56428
     2016.76386         0.80364         6.60259
     2016.76659         2.81297         6.57985
     2016.76933         5.53030         6.56907
     2016.77207         4.24363         6.52837
     2016.77481         4.93496         6.58224
     2016.77754         4.95329         6.61816
     2016.78028         6.32163         6.59182
     2016.78302         4.63296         8.03685
     2016.78576         5.22529         6.76661
     2016.78850         8.92962         6.53076
     2016.79123         4.12795         6.57147
     2016.79398         6.65919         6.75464
     2016.79671        10.05961         6.56428
     2016.79945         1.76194         6.55470
     2016.80219         6.39928         6.51161
     2016.80492         6.54761         6.55470
     2016.80766        10.59394         6.56309
     2016.81040         0.98327         6.62654
     2016.81314        -1.28140         6.60259
     2016.81587        -5.99007         7.10542
     2016.81861        -4.57774         6.81809
     2016.82135         7.47259         6.63611
     2016.82409         6.55993         6.59302
     2016.82683        -1.50374         7.10063
     2016.82956         6.23459         6.67921
     2016.83230         6.39292         6.59541
     2016.83504         6.00325         6.57386
     2016.83778         5.06658         6.62534
     2016.84052         3.19091         6.83964
     2016.84325         7.77624         6.59900
     2016.84599        13.97058         6.63492
     2016.84873        13.12091         6.56668
     2016.85147        10.88824         6.57985
     2016.85420         1.21357         6.59541
     2016.85694        10.54290         6.62773
     2016.85968         5.63323         6.83844
     2016.86242        12.76856         6.55351
     2016.86516        10.32989         6.65886
     2016.86789         1.69023         6.61337
     2016.87063        12.27556         6.58224
     2016.87337         8.71889         6.54393
     2016.87611         4.48622         6.51400
     2016.87885         2.58155         6.55949
     2016.88158        -0.43412         6.57266
     2016.88432         3.75021         6.58344
     2016.88706         4.83854         6.53196
     2016.88980         4.19087         6.54154
     2016.89253         8.48321         6.57386
     2016.89527        10.06254         6.54752
     2016.89801         8.00387         6.73907
     2016.90075         3.48420         6.58703
     2016.90349         4.27753         6.69238
     2016.90622         8.82386         6.66245
     2016.90896        12.63219         6.56189
     2016.91170         9.11352         6.57147
     2016.91444        12.41786         6.60738
     2016.91718         1.58919         6.69358
     2016.91991         2.72652         6.67921
     2016.92265         7.68085         6.52477
     2016.92539         2.85418         6.56309
     2016.92813        -9.11549         6.52956
     2016.93086        -7.36416         6.58463
     2016.93360        -8.97583         6.57625
     2016.93634       -14.96849         6.53196
     2016.93908       -14.98616         6.73788
     2016.94182       -13.57683         6.60140
     2016.94455       -16.22450         6.52597
     2016.94729       -16.02017         6.52118
     2016.95003       -14.15984         6.68879
     2016.95277       -12.98451         6.51280
     2016.95551       -12.18618         6.57865
     2016.95824        -7.74484         6.57266
     2016.96098        -2.77551         6.51639
     2016.96372        -0.85118         6.59421
     2016.96646         3.51315         6.58104
     2016.96919        12.58348         6.59421
     2016.97193         9.50581         6.67802
     2016.97467         7.82114         6.62534
     2016.97741        -0.20253         6.58703
     2016.98015        -1.88419         6.63492
     2016.98288        -1.87986         6.73429
     2016.98562         1.77947         6.64330
     2016.98836         9.70580         6.54513
     2016.99052         8.90099         9.55251
     2016.99384         7.30846        11.54466
     2016.99657         8.04579         6.62893
     2016.99931         2.62812         8.34692
     2017.00085       -12.41244        26.59833
     2017.00479        -4.52121         6.60020
     2017.00752        -7.28188         6.54752
     2017.01026        -9.20555         6.52238
     2017.01300         0.38478         6.54992
     2017.01574        -1.00789         6.56787
     2017.01848        -9.42956         6.56309
     2017.02121       -10.69423         6.51639
     2017.02395        -6.45590         6.51280
     2017.02669        -9.74056         6.64210
     2017.02943        -1.31923         6.53315
     2017.03216         1.53010         6.71752
     2017.03490         6.68143         6.55710
     2017.03764         6.88076         6.59182
     2017.04038         7.71209         6.58942
     2017.04312        11.55942         6.57865
     2017.04585        24.86375         7.01922
     2017.04859        13.54109         6.87196
     2017.05133        11.02642         6.55710
     2017.05407         4.21475         6.51759
     2017.05681         2.00908         6.63731
     2017.05954        -5.69459         6.67921
     2017.06228        -0.53126         6.57985
     2017.06502         5.12207         6.75943
     2017.06776         5.64940         6.53914
     2017.07049         3.96474         6.55470
     2017.07323        -2.62493         6.56787
     2017.07597         2.64240         6.59302
     2017.07871         2.43573         6.57865
     2017.08145        -5.16094         6.56548
     2017.08418       -11.39861         6.53435
     2017.08692       -12.44528         6.56548
     2017.08966       -13.87595         6.52477
     2017.09240       -13.56961         6.55590
     2017.09514        -4.43428         6.56069
     2017.09787        -7.09795         6.55949
     2017.10061        -4.93462         6.51759
     2017.10335        -9.84329         6.54034
     2017.10609        -6.75896         6.51161
     2017.10882         4.63937         6.52597
     2017.11156         4.84670         6.53914
     2017.11430         0.25604         6.51639
     2017.11704        -1.23463         6.63372
     2017.11978        -5.38730         6.95697
     2017.12251         8.36703         6.67323
     2017.12525         7.31636         6.56668
     2017.12799         5.90569         6.55111
     2017.13073         1.95902         6.59062
     2017.13347         4.02035         6.50682
     2017.13620         2.04469         6.54872
     2017.13894         1.42302         6.94619
     2017.14168        -3.99365         6.54752
     2017.14442        -3.62932         6.55590
     2017.14715        -8.08799         6.54752
     2017.14989        -7.79966         6.53435
     2017.15263        -2.22633         6.55710
     2017.15537         9.18400         6.54872
     2017.15811         2.40233         6.66964
     2017.16084         0.02567         6.66724
     2017.16358        -6.46500         6.82527
     2017.16632        -1.34367         6.77499
     2017.16906        -7.34634         6.70675
     2017.17180        -5.54101         6.57027
     2017.17373        -8.32461        11.23458
     2017.17732        -5.92483         7.93269
     2017.18001        -6.76802         8.15776
     2017.18275        -4.78568         6.66245
     2017.18548        -9.90235         6.54752
     2017.18822       -10.84402         6.60020
     2017.19096        -7.52669         6.50562
     2017.19370        -2.77436         6.51879
     2017.19644        -2.17503         6.53914
     2017.19917        -2.98470         6.53675
     2017.20191        -4.96937         6.52238
     2017.20465        -2.49303         6.61696
     2017.20739         1.60730         6.50083
     2017.21013         3.44563         6.50682
     2017.21286        -4.12004         6.51280
     2017.21554         7.25187         6.67203
     2017.21834        -2.91938         6.59062
     2017.22108         1.35995         6.58344
     2017.22381        -1.52372         6.72231
     2017.22655        -0.58238         6.70076
     2017.22929        -2.00205         6.54513
     2017.23203        -3.02372         6.54273
     2017.23477        -7.68939         7.49212
     2017.23750        -4.39006         6.64450
     2017.24024        -5.13773         6.62893
     2017.24298        -7.04340         6.62893
     2017.24572         1.11993         6.80732
     2017.24846        -5.24473         6.61816
     2017.25119       -13.75940         6.56189
     2017.25393        -7.50007         6.57027
     2017.25667        -5.81874         7.00845
     2017.25941        -6.98141         6.57386
     2017.26214        -0.83208         6.55590
     2017.26488        -5.53775         6.54273
     2017.26762        -0.65842         6.50442
     2017.27036        -0.39009         6.67203
     2017.27310        -8.92675         6.55231
     2017.27583       -14.14842         6.52597
     2017.27857       -13.41109         6.55111
     2017.28131       -12.93476         6.49724
     2017.28405       -11.15543         6.51759
     2017.28679        -7.43210         6.53555
     2017.28952        -8.47377         6.51280
     2017.29226       -10.49944         6.49484
     2017.29500       -11.69210         6.49844
     2017.29774       -10.59277         6.53315
     2017.30047       -11.96444         6.80253
     2017.30321        -8.89611         6.53914
     2017.30595       -13.22878         7.28261
     2017.30869       -12.61645         6.93422
     2017.31143        -5.68612         6.49484
     2017.31416        -5.67079         6.58703
     2017.31690        -1.50345         6.57985
     2017.31964        -5.01512         6.63731
     2017.32238        -6.25379         6.62175
     2017.32512        -9.13546         6.50322
     2017.32785        -4.60213         6.50682
     2017.33059       -14.06980         6.51400
     2017.33333        -5.52947         6.52717
     2017.33607        -2.06814         6.56907
     2017.33880        -8.74680         6.51639
     2017.34154        -3.89847         6.64928
     2017.34428        -2.91214         6.50442
     2017.34702        -8.30481         6.55111
     2017.34976        -4.77648         6.57147
     2017.35249        -6.53115         6.53794
     2017.35523       -13.07982         6.52238
     2017.35797        -8.03349         6.50442
     2017.36071       -12.50815         6.54632
     2017.36344        -5.84282         6.58703
     2017.36618        -2.66149         6.58463
     2017.36892        -2.78516         6.56907
     2017.37166        -6.85083         6.56668
     2017.37440        -6.35150         6.58703
     2017.37713        -5.77317         6.74626
     2017.37987        -4.62884         6.84563
     2017.38261        -8.21050         6.78457
     2017.38535        -2.74117         6.58583
     2017.38809         2.25116         6.63611
     2017.39082        -6.69151         6.51879
     2017.39356        -5.66618         6.58344
     2017.39630        -8.32685         6.57985
     2017.39904        -3.85052         6.52956
     2017.40177        -9.40519         6.53794
     2017.40451        -2.86286         8.34333
     2017.40725        -0.88052         6.66245
     2017.40999        -9.70519         6.53076
     2017.41273        -1.20486         6.54393
     2017.41546        -2.86053         6.53675
     2017.41820        -3.75620         6.65288
     2017.42094        -7.64087         6.56907
     2017.42368       -11.58054         6.52238
     2017.42642       -10.16221         6.54513
     2017.42915        -5.67387         6.54992
     2017.43189        -7.20454         6.59182
     2017.43463        -2.47921         6.59421
     2017.43737        -1.09788         6.57386
     2017.44010        -7.45255         6.56787
     2017.44284        -4.34722         6.60140
     2017.44558        -1.27689         6.58703
     2017.44832        -1.10356         6.54273
     2017.45106        -4.17222         6.55949
     2017.45379         0.37611         6.69238
     2017.45653        -0.85356         6.92344
     2017.45927        -2.66223         6.55590
     2017.46201        -6.42090         6.55710
     2017.46475        -5.95357         6.61457
     2017.46748        -5.25424         6.54752
     2017.47022        -9.13791         6.66724
     2017.47296        -8.80557         6.54393
     2017.47570       -11.82624         6.52837
     2017.47843        -7.45791         6.56428
     2017.48117       -11.87758         6.66604
     2017.48391       -12.65925         6.51161
     2017.48665        -3.75792         6.57745
     2017.48939        -1.40859         6.61457
     2017.49212        -7.82426         6.58104
     2017.49486        -5.71992         6.63611
     2017.49760        -7.80359         6.57147
     2017.50034        -4.32326         6.69478
     2017.50308        -7.99193         6.57865
     2017.50581        -7.93060         6.57147
     2017.50855        -7.74327         6.55111
     2017.51129       -16.44794         6.70555
     2017.51403        -8.56161         6.68281
     2017.51676        -9.74228         6.61337
     2017.51950       -10.44894         6.77978
     2017.52224        -3.05561         6.60259
     2017.52498        -9.13528         6.61337
     2017.52772        -4.91195         6.79534
     2017.53045        -9.27662         6.60499
     2017.53319        -9.99429         6.56548
     2017.53593        -7.92196         6.56189
     2017.53867        -2.91763         7.61782
     2017.54141        -4.33229         7.20598
     2017.54414        -3.61096         6.56309
     2017.54688        -3.78163         6.55351
     2017.54962       -10.30830         6.55590
     2017.55236        -7.87397         6.59182
     2017.55509         1.06036         6.61097
     2017.55783       -10.65731         6.71992
     2017.56057        -9.03998         6.59062
     2017.56331       -10.50564         6.57865
     2017.56605        -4.16231         6.62055
     2017.56878        -8.39498         6.57147
     2017.57152        -2.98265         6.57865
     2017.57426        -9.21632         6.60259
     2017.57700       -11.35399         6.61337
     2017.57974       -11.39666         6.57745
     2017.58247        -8.05733         6.72830
     2017.58521       -11.86199         6.58703
     2017.58795        -7.26666         6.78217
     2017.59069       -12.09233         7.92670
     2017.59342        -6.50800         6.62295
     2017.59616        -4.61267         6.64090
     2017.59890        -9.05534         6.66485
     2017.60164        -3.06101         6.63611
     2017.60438        -7.29868         6.58104
     2017.60711       -10.60634         6.59900
     2017.60985       -13.51501         6.76541
     2017.61259        -4.54768         6.65647
     2017.61533        -2.20935         6.62534
     2017.61807        -0.07902         6.92225
     2017.62080         0.26431         6.57745
     2017.62354        -9.08036         6.59302
     2017.62628         5.70097         7.36282
     2017.62902         5.30130         6.88992
     2017.63175        -4.09036         6.68041
     2017.63449        -6.94903         6.63492
     2017.63723        -4.86970         6.69238
     2017.63997        -6.93137         6.87196
     2017.64271        -1.01004         7.43226
     2017.64544         3.76229         6.75464
     2017.64818        -5.34538         6.77619
     2017.65092         8.84395         6.67802
     2017.65366         8.66629         6.60499
     2017.65639        -4.50738         6.60618
     2017.65913        -9.87105         6.66365
     2017.66187        -3.01572         6.75584
     2017.66461         8.41861         7.36042
     2017.66735        10.23294         6.97373
     2017.67008         4.43527         6.68281
     2017.67282        -2.65440         6.78816
     2017.67556        -0.35106         6.66964
     2017.67830         0.37727         6.65288
     2017.68104         3.77660         6.70675
     2017.68377        18.76093         7.23232
     2017.68651         2.53526         8.04762
     2017.68925         3.01959         6.59900
     2017.69199         5.05392         6.63372
     2017.69472        -2.48075         6.58224
     2017.69746        -4.39341         6.69478
     2017.70020         0.55792         6.75344
     2017.70294        -1.99375         6.82408
     2017.70568        -9.20742         6.72950
     2017.70841         0.44791         6.67443
     2017.71115        -1.44976         6.68161
     2017.71389         6.89157         6.73429
     2017.71663         3.05090         6.60379
     2017.71937        -0.84376         6.55470
     2017.72210        -2.70243         6.62654
     2017.72484         2.60190         6.63492
     2017.72758         4.10623         6.63971
     2017.73032         4.09656         6.61696
     2017.73305         8.00889         6.62055
     2017.73579         0.12922         6.65168
     2017.73853        11.82655         6.95218
     2017.74127         6.70089         7.38317
     2017.74401         1.90822         6.57985
     2017.74674        -0.20945         6.61935
     2017.74948        -6.72612         6.62175
     2017.75222        -0.18979         6.67203
     2017.75496         0.17954         6.69837
     2017.75770        -0.69613         6.83246
     2017.76043        11.32720         6.66964
     2017.76317         5.13453         6.63492
     2017.76591         1.14087         6.55470
     2017.76865         5.00120         6.65048
     2017.77138         3.02653         6.62534
     2017.77412        -0.27714         6.60978
     2017.77686        -3.78581         6.69837
     2017.77960        -6.28648         6.86119
     2017.78234         2.44185         6.92704
     2017.78507         2.50118         6.91267
     2017.78781         4.97752         6.80372
     2017.79055        11.67785         6.52597
     2017.79329         7.70818         6.59900
     2017.79603        11.24651         6.54513
     2017.79876        17.15284         6.82288
     2017.80150        13.38017         6.84084
     2017.80424         8.73050         6.62175
     2017.80698         8.95883         6.57625
     2017.80971         9.85217         6.59900
     2017.81245         5.68550         6.68879
     2017.81519         7.58683         6.68640
     2017.81793         2.75416         6.77619
     2017.82067         1.12649         6.78217
     2017.82340         0.26482         6.61935
     2017.82614        -6.78485         6.57985
     2017.82888         2.55148         6.61696
     2017.83162         6.18682         6.72231
     2017.83436        -8.69185         6.57506
     2017.83709        -6.61852         6.84802
     2017.83983       -10.43119         6.57027
     2017.84257        -2.62186         6.63971
     2017.84531        -7.03053         6.59541
     2017.84804       -10.52520         6.64450
     2017.85078        -8.20887         7.25986
     2017.85352       -11.95653         7.16648
     2017.85626        -6.10620         6.80971
     2017.85900        -1.69687         7.04316
     2017.86173        -9.33554         6.70316
     2017.86447       -15.08421         6.59182
     2017.86721       -10.06588         6.59062
     2017.86995       -16.73855         6.61217
     2017.87269       -13.30222         6.62414
     2017.87542       -12.58588         6.60618
     2017.87816        -5.36855         6.77260
     2017.88090        -8.32122         6.55830
     2017.88364        -8.30089         6.59541
     2017.88637        -8.14256         6.60738
     2017.88911        -6.74723         6.78936
     2017.89185       -12.77390         6.59062
     2017.89459       -10.20257         6.57266
     2017.89733        -8.98324         6.56548
     2017.90006       -15.48390         6.63372
     2017.90280       -15.21457         6.71154
     2017.90554        -4.61724         6.56907
     2017.90828        -2.84691         6.58463
     2017.91102        -3.37958         6.85999
     2017.91375         7.61275         6.82767
     2017.91649         3.40408         6.57027
     2017.91923         5.46241         6.55111
     2017.92197         0.83575         6.55590
     2017.92470         7.21408         6.59302
     2017.92744         7.20441         6.88274
     2017.93018         6.84074         6.71513
     2017.93292        10.96507         6.80013
     2017.93566         4.17140         6.70795
     2017.93839         3.07173         6.66006
     2017.94113        -1.25294         6.65288
     2017.94387         6.50540         6.75464
     2017.94661        -0.30127         6.79774
     2017.94935         5.18606         6.75224
     2017.95208         1.95539         6.89711
     2017.95482        -5.42228         6.60259
     2017.95756         4.38705         6.62773
     2017.96030        11.66138         6.69837
     2017.96303        -0.89229         6.59302
     2017.96577        -0.45595         6.68640
     2017.96851         0.57538         6.58224
     2017.97125        -6.18529         6.56787
     2017.97399        -4.30896         6.57985
     2017.97672        -5.25763         6.57147
     2017.97946        -8.46730         6.56069
     2017.98220        -5.57197         6.53675
     2017.98494        -9.01764         6.57506
     2017.98767       -13.61830         6.56309
     2017.99041       -10.78297         6.54154
     2017.99315       -12.69764         6.60379
     2017.99589        -8.66331         6.62654
     2017.99863        -7.42298         6.67203
     2018.00136        -1.44265         6.76661
     2018.00410        -4.58432         6.62773
     2018.00684         1.81301         6.59900
     2018.00958        -3.17965         6.58224
     2018.01232       -19.06932         6.56907
     2018.01505       -13.95599         6.60499
     2018.01779       -14.64966         6.57506
     2018.02053        -8.93033         6.55590
     2018.02327       -12.90600         6.52477
     2018.02600       -16.41667         6.66126
     2018.02874       -14.62434         6.61337
     2018.03148       -17.35801         6.58703
     2018.03422       -17.57667         6.60499
     2018.03696        -9.33634         6.60499
     2018.03969        -8.79501         6.69837
     2018.04243        -7.30368         6.66006
     2018.04517        -9.16835         6.65168
     2018.04791        -1.74402         6.65527
     2018.05065        -2.52769         6.55949
     2018.05338        -3.99736         6.56189
     2018.05612        -4.45402         6.55590
     2018.05886       -12.35569         6.56668
     2018.06160        -1.28936         6.56428
     2018.06433         4.34497         6.69478
     2018.06707         3.44030         6.64210
     2018.06981        -1.13137         6.64809
     2018.07255        -3.11704         6.69238
     2018.07529        -4.40871         6.66604
     2018.07802        -0.55737         6.66964
     2018.08076         2.17196         6.66006
     2018.08350         2.48429         6.64809
     2018.08624        -2.51338         6.75823
     2018.08898        -6.38605         6.88992
     2018.09171        -4.63372         6.65527
     2018.09445        -5.58139         6.88034
     2018.09719        -2.77606         6.78577
     2018.09993        -4.63072         6.67443
     2018.10266        -8.13739         6.70196
     2018.10540       -18.69406         6.89591
     2018.10814        -7.53673         7.04436
     2018.11088        -0.26940         6.67443
     2018.11362         9.02793         6.69957
     2018.11635         5.73326         6.75823
     2018.11909        -6.43641         6.93063
     2018.12183        -4.74307         6.83126
     2018.12457        -3.40874         6.85401
     2018.12731       -19.98041         6.67083
     2018.13004       -10.81708         6.71752
     2018.13187       -21.12053        12.82687
     2018.13552        -6.34942         6.67443
     2018.13826        -7.59709         6.65048
     2018.14099       -13.29476         6.63971
     2018.14373       -12.72843         6.81570
     2018.14647        -3.93909         7.23472
     2018.14921        -9.38476         6.80133
     2018.15195        -7.77143         6.66964
     2018.15468         7.27890         6.69957
     2018.15742         9.41723         6.74027
     2018.16016        -1.26244         6.77140
     2018.16290       -15.06211         6.78457
     2018.16564       -15.76078         6.75344
     2018.16837       -18.07844         6.73668
     2018.17111        -7.14611         6.68640
     2018.17385       -11.49178         6.82168
     2018.17659        -9.74445         6.67083
     2018.17932        -6.49212         6.68041
     2018.18206         0.37921         6.71154
     2018.18480         2.85054         6.73069
     2018.18754        -4.14713         6.67083
     2018.19028        -8.64179         6.58344
     2018.19301        -1.72646         6.66604
     2018.19575         0.35487         6.60738
     2018.19849        -1.95280         6.62055
     2018.20123         2.19653         6.72351
     2018.20397        -3.63514         6.61816
     2018.20670         0.31719         6.62414
     2018.20944        -3.46048         6.63731
     2018.21218        -3.10714         6.57506
     2018.21492       -18.83281         6.53675
     2018.21765        -7.11248         6.53555
     2018.22039        -8.89415         6.58463
     2018.22313        -3.76682         6.62295
     2018.22587        -9.15849         6.55710
     2018.22861       -13.71716         6.61935
     2018.23134        -6.88083         6.56189
     2018.23408        -9.45149         6.58463
     2018.23682        -9.82916         6.61576
     2018.23956        -9.29283         6.57506
     2018.24230       -12.71050         6.60379
     2018.24503       -13.32017         6.55470
     2018.24777       -15.11484         6.56189
     2018.25051        -6.89551         6.56907
     2018.25325        -8.57518         6.69598
     2018.25598        -9.55785         6.55590
     2018.25872        -8.33151         6.68281
     2018.26146       -14.17518         6.68640
     2018.26420        -7.77885         6.55710
     2018.26694        -5.40252         6.55710
     2018.26967        -7.42919         6.54513
     2018.27241       -12.44386         6.61337
     2018.27515        -2.66753         6.66245
     2018.27789        -1.16320         6.71752
     2018.28062        -3.38686         7.01204
     2018.28336        -4.33353         6.59900
     2018.28610       -12.42020         6.72591
     2018.28884       -10.39187         6.56069
     2018.29158        -5.35854         6.71393
     2018.29431        -9.42221         6.79654
     2018.29705        -6.79788         6.55111
     2018.29979       -10.55355         7.40712
     2018.30253        -7.60021         6.63252
     2018.30527        -7.58988         6.61576
     2018.30800        -8.19555         6.63133
     2018.31074         0.19278         6.55949
     2018.31348        -9.28289         6.63252
     2018.31622       -10.81556         6.60259
     2018.31895        -4.74723         6.73309
     2018.32169        -6.00390         6.53555
     2018.32443        -7.06456         6.57266
     2018.32717       -10.74223         6.61217
     2018.32991        -6.72090         6.77020
     2018.33264        -5.34257         6.64330
     2018.33538        -5.71224         6.82527
     2018.33812        10.79209         6.83246
     2018.34086         0.73942         6.66724
     2018.34360        -7.42225         6.72950
     2018.34633        -9.54991         6.64809
     2018.34907        -8.46058         6.75224
     2018.35181        -6.63925         6.59421
     2018.35455         0.13808         6.55231
     2018.35728        -7.19159         6.99049
     2018.36002        -8.66026         6.69478
     2018.36276        -2.94593         6.81689
     2018.36550         7.66740         6.62893
     2018.36824        -2.90126         6.59900
     2018.37097        -7.35693         6.52717
     2018.37371        -9.84460         6.54034
     2018.37645        -6.66627         6.73548
     2018.37919        -8.00294         6.65168
     2018.38193        -5.31961         6.57386
     2018.38466         3.70072         6.68759
     2018.38740         6.10505         6.56189
     2018.39014        -6.54562         6.76541
     2018.39288        -2.36428         6.63372
     2018.39561        -4.01095         6.53555
     2018.39835        -1.25962         6.58104
     2018.40109         4.11771         6.53196
     2018.40383        -2.60096         6.69119
     2018.40657        -4.75063         6.55590
     2018.40930         7.18070         6.56069
     2018.41204        -1.70797         6.59421
     2018.41478        -2.45063         6.75105
     2018.41752        -8.80030         6.53914
     2018.42026        -6.24697         6.55351
     2018.42299        -4.48064         6.54034
     2018.42573         0.12369         6.46372
     2018.42847        -1.28398         6.49125
     2018.43121        -1.71065         6.50921
     2018.43394        -6.86132         6.52118
     2018.43668        -7.24798         6.52837
     2018.43942        -3.35365         6.53914
     2018.44216        -2.18432         6.52118
     2018.44490        -9.00199         6.55830
     2018.44763        -2.74266         6.52358
     2018.45037        -2.70533         6.53555
     2018.45311        -4.34400         6.53794
     2018.45585        -2.54467         6.65886
     2018.45859        -2.49933         6.76302
     2018.46132        -7.78000         6.65407
     2018.46406         5.46433         6.67443
     2018.46680        -2.89734         6.58104
     2018.46954        -4.20701         6.59421
     2018.47227        -5.91368         6.67562
     2018.47501        -1.47435         6.67443
     2018.47775        -3.26902         6.58942
     2018.48049        -6.84368         6.50083
     2018.48323        -2.96935         6.71992
     2018.48596        -6.31302         6.54752
     2018.48870        -2.61969         6.56309
     2018.49144        -0.66136         6.51759
     2018.49418        -0.53603         6.54992
     2018.49692        -4.59970         6.54513
     2018.49965       -10.02237         6.52238
     2018.50239       -11.17904         6.54872
     2018.50513       -10.43370         6.63611
     2018.50787        -5.09237         6.55111
     2018.51060        -4.19104         6.50801
     2018.51334        -3.19771         6.55231
     2018.51608        -6.39938         6.48168
     2018.51882        -6.61605         6.56668
     2018.52156         1.43428         6.64689
     2018.52429        11.39461         6.61217
     2018.52703        -4.77805         6.58942
     2018.52977        -6.72472         6.56189
     2018.53251        -4.23939         6.61696
     2018.53525         7.06994         6.67802
     2018.53798         9.17527         6.77379
     2018.54072        -1.88540         6.57625
     2018.54346        -1.54507         6.55111
     2018.54620        -3.34374         6.59661
     2018.54893        -8.07040         6.62295
     2018.55167        -4.81807         6.66485
     2018.55441         3.65926         6.57985
     2018.55715        -0.58341         6.59182
     2018.55989        -3.73208         6.91866
     2018.56262        -3.10375         6.63851
     2018.56536         0.18258         6.64450
     2018.56810        -1.50309         6.60140
     2018.57084        -4.91775         6.63372
     2018.57357         3.83358         6.73668
     2018.57631        -4.34009         6.92823
     2018.57905        -4.95776         6.99528
     2018.58179        -2.54143         6.71154
     2018.58453         5.01090         6.93542
     2018.58726        -0.56277         6.57625
     2018.59000         1.86156         6.56189
     2018.59274         3.65390         6.58224
     2018.59548        -0.06277         6.58583
     2018.59822        11.70956         6.68759
     2018.60095        -4.20211         6.58703
     2018.60369        11.65422         6.60618
     2018.60643         6.07955         6.64090
     2018.60917        -0.89412         6.53435
     2018.61190        -0.40379         6.57266
     2018.61464        12.52955         6.59182
     2018.61738        10.61788         6.81330
     2018.62012         1.63721         6.72950
     2018.62286         1.55154         6.81570
     2018.62559        -6.38213         6.80612
     2018.62833         0.52420         6.57147
     2018.63107        -9.25747         6.59062
     2018.63381        -1.77214         6.91027
     2018.63655         5.39319         6.67682
     2018.63928        -0.48447         7.04795
     2018.64202         1.47086         6.92105
     2018.64476         7.11319         6.59182
     2018.64750         5.20452         6.64809
     2018.65023         0.88185        10.49232
     2018.65297         0.38018         7.04316
     2018.65571         7.29251         6.60858
     2018.65845         3.37084         6.55111
     2018.66119         5.65318         6.59302
     2018.66392         7.59151         6.62654
     2018.66666         6.15284         6.58583
     2018.66940        -1.10283         6.60259
     2018.67214         1.44750         6.55351
     2018.67488         3.09683         6.53076
     2018.67761        -0.13084         6.60020
     2018.68035         1.62449         6.69957
     2018.68309        -4.15317         6.66006
     2018.68583        -0.69884         6.55949
     2018.68856         2.80949         6.54872
     2018.69130        -1.49318         6.62175
     2018.69404         8.55815         7.04795
     2018.69678        -0.22452         6.56668
     2018.69952         0.08881         6.58224
     2018.70225        -3.43086         6.67443
     2018.70499        -5.19952         6.58104
     2018.70773        -0.03219         6.50442
     2018.71047        -1.36586         6.58463
     2018.71321        -0.12853         6.56787
     2018.71594        -0.31420         6.51280
     2018.71868        -4.17487         6.59900
     2018.72142        -0.01554         6.53794
     2018.72416        -3.95721         6.81809
     2018.72689         7.21613         6.55470
     2018.72963        -1.24154         6.58224
     2018.73237         0.84679         6.67921
     2018.73511        -1.40388         6.56668
     2018.73785        -2.54455         6.53076
     2018.74058        -3.90222         6.54273
     2018.74332        -1.96689         6.52238
     2018.74606        -0.71856         6.52717
     2018.74880        -3.68022         6.56907
     2018.75154         0.85511         6.55231
     2018.75427         4.45844         6.55231
     2018.75701         6.44877         6.65766
     2018.75975         6.25910         6.58344
     2018.76249         4.55643         6.56787
     2018.76522         0.95776         6.64689
     2018.76796         5.51109         6.85520
     2018.77070        -1.36158         6.55470
     2018.77344         1.68476         6.56907
     2018.77618         6.99009         6.58823
     2018.77891         7.50442         6.55949
     2018.78165         1.47875         6.67562
     2018.78439         9.31408         6.67562
     2018.78713        14.27841         6.55590
     2018.78987         2.03274         6.80253
     2018.79260        12.08207         6.62055
     2018.79534        13.26841         6.56189
     2018.79808         3.70074         6.60259
     2018.80082         8.44407         6.61935
     2018.80355        10.82640         6.58224
     2018.80629         8.54473         6.74027
     2018.80903         5.79606         6.66604
     2018.81177         8.71039         6.97133
     2018.81451        10.73472         6.68640
     2018.81724        11.49606         6.63252
     2018.81998         9.03439         6.60020
     2018.82272         6.90672         6.57865
     2018.82546         8.51505         6.54154
     2018.82820        14.92738         6.59062
     2018.83093         7.62471         6.56428
     2018.83367         6.26904         6.52118
     2018.83641         4.70537         6.53196
     2018.83915         6.83571         6.55590
     2018.84188        -4.09596         6.52118
     2018.84462        -3.10463         7.20838
     2018.84736       -11.59130         6.58942
     2018.85010        -7.35197         6.60259
     2018.85284         2.30736         6.60499
     2018.85557        -1.64631         6.54034
     2018.85831        -3.96798         6.59182
     2018.86105        10.49936         6.60738
     2018.86379        14.17969         6.73668
     2018.86653         7.29702         6.56787
     2018.86926         1.79235         6.55470
     2018.87200         2.94668         6.50203
     2018.87474         1.75501         6.53555
     2018.87748         6.25834         6.71633
     2018.88021         3.89167         6.67203
     2018.88295         9.55200         6.66126
     2018.88569        10.00634         6.61816
     2018.88843         8.94967         6.63611
     2018.89117         4.19300         6.66844
     2018.89390         2.09833         6.65288
     2018.89664         1.65266         6.71633
     2018.89938        11.06499         6.66485
     2018.90212        15.75632         6.70914
     2018.90485         9.34365         6.71034
     2018.90759         9.68699         6.65766
     2018.91033         6.60832         6.53675
     2018.91307         9.02465         6.72830
     2018.91581         4.27498         6.51759
     2018.91854         3.54631         6.55470
     2018.92128         4.66864         6.55470
     2018.92402        -3.28703         6.53076
     2018.92676         2.37830         6.54992
     2018.92950         3.94064         6.57027
     2018.93223         3.87197         6.65886
     2018.93497        12.41730         6.62175
     2018.93771        17.61063         6.60379
     2018.94045        10.23596         6.58224
     2019.00068        -3.38475         6.71393
     2019.00342        14.47558         6.72471
     2019.00616         1.07091         6.61217
     2019.00889         0.96324         6.57985
     2019.01163        -1.53043         6.62295
     2019.01437         3.79790         6.56668
     2019.01711         2.92423         6.52477
     2019.01984        -7.28943         6.66365
     2019.02258        -5.52410         6.59661
     2019.02532        -2.92177         6.62893
     2019.02806         1.13056         6.65168
     2019.03080         0.01889         6.63611
     2019.03353         8.93522         6.58463
     2019.03627         2.48855         6.56428
     2019.03901         8.59588         6.58823
     2019.04175         1.97522         6.53076
     2019.04449         2.10955         6.54872
     2019.04722         4.00088         6.65288
     2019.04996         1.36721         6.70076
     2019.05270         1.63154         6.82527
     2019.05544         8.05187         6.66006
     2019.05817         3.42720         6.77140
     2019.06091         0.10253         6.87915
     2019.06365         9.08487         6.70675
     2019.06639         4.19320         6.77260
     2019.06913         4.67953         6.76900
     2019.07186       -11.03314         6.76781
     2019.07460        -6.47581         6.60618
     2019.07734         0.32652         6.56787
     2019.08008         0.93685         6.54393
     2019.08282        -1.72482         6.85520
     2019.08555        -9.12748         6.57625
     2019.08829        -9.82615         6.63013
     2019.09103        -9.07082         6.58703
     2019.09377        -5.06149         6.53435
     2019.09650        -0.99616         6.55710
     2019.09924        -5.37583         6.54034
     2019.10198       -18.07550         6.54154
     2019.10472       -12.93217         6.57386
     2019.10746       -16.84083         6.56428
     2019.11019       -11.93950         6.53555
     2019.11293        -6.08217         6.72231
     2019.11567        -5.12984         6.93182
     2019.11841        10.44149         6.57147
     2019.12115         4.10282         6.69358
     2019.12388         3.19415         6.69957
     2019.12662         0.81848         6.66365
     2019.12936        -3.78919         6.54872
     2019.13210         0.24815         6.55949
     2019.13483        -5.67552         6.56668
     2019.13757        -5.41619         6.49484
     2019.14031         3.41314         6.54154
     2019.14305        -3.05253         6.53435
     2019.14579       -10.82120         6.56787
     2019.14852        -2.50087         6.58823
     2019.15126        -1.53454         6.58942
     2019.15400        -6.17620         6.59421
     2019.15674        -6.01087         6.60618
     2019.15948        -2.57054         6.63731
     2019.16221        -8.51121         6.75823
     2019.16495        -4.35688         6.57745
     2019.16769        -6.79155         6.54992
     2019.17043       -10.96022         6.55830
     2019.17316        -6.37189         6.54992
     2019.17590        -5.37555         6.54632
     2019.17864        -1.92822         6.58104
     2019.18138        -0.09789         6.57386
     2019.18412       -17.24156         6.53555
     2019.18685        -7.51423         6.57147
     2019.18959         6.97710         6.54393
     2019.19233        -3.24057         6.55590
     2019.19507        -0.47924         6.58463
     2019.19780         0.36910         6.58463
     2019.20054        -4.41157         6.73907
     2019.20328        -4.32924         6.57027
     2019.20602        -3.54091         6.66006
     2019.20876         7.69742         6.73668
     2019.21149        -9.67525         6.58104
     2019.21423        -5.26692         6.58703
     2019.21697         3.93441         6.56069
     2019.21971        -1.89025         6.76062
     2019.22245        -0.58292         6.59182
     2019.22518       -10.15359         6.58463
     2019.22792        -4.81826         6.51520
     2019.23066       -13.59193         6.52956
     2019.23340        -6.56160         6.58104
     2019.23613        -6.78627         6.58104
     2019.23887        -7.82894         6.58463
     2019.24161        -6.27760         6.81689
     2019.24435        -6.78827         6.73907
     2019.24709       -11.36794         6.68520
     2019.24982        -5.09861         6.54992
     2019.25256         0.72872         6.73668
     2019.25530        -3.16295         6.64090
     2019.25804        -1.31362         6.54393
     2019.26078         1.17571         6.51999
     2019.26351        -2.55396         6.64928
     2019.26625       -11.62662         6.66964
     2019.26899         0.92171         6.67802
     2019.27173         4.29704         6.85760
     2019.27446        -2.17863         6.53435
     2019.27720         1.82470         6.82048
     2019.27994         0.73203         6.56189
     2019.28268         0.45636         6.60738
     2019.28542         6.48569         6.66245
     2019.29089         0.09536         6.54632
     2019.29363         6.10969         6.58583
     2019.29637         6.17202         6.71752
     2019.29911         3.14035         6.62055
     2019.30184         4.65668         6.64210
     2019.30458         0.01801         6.52477
     2019.30732        -2.92266         6.62773
     2019.31006         5.80368         6.63611
     2019.31279        -4.55899         6.67083
     2019.31553         0.49634         6.56428
     2019.31827        -3.11533         6.55470
     2019.32101        -8.22200         6.54872
     2019.32375       -15.72467         6.57506
     2019.32648        -5.73634         6.55710
     2019.32922        -5.26201         6.59062
     2019.33196        -1.87967         6.73668
     2019.33470         0.51666         6.70316
     2019.33744        -5.29401         6.65886
     2019.34017        -6.78868         6.56428
     2019.34291        -3.74035         6.54393
     2019.34565         2.12698         6.62893
     2019.34839         3.33431         6.66724
     2019.35112        -7.54736         6.55590
     2019.35386        -4.47602         6.59302
     2019.35660        -2.60869         6.73668
     2019.35934        -4.08536         6.55111
     2019.36208        -2.71503         6.54273
     2019.36481        -9.12170         6.85041
     2019.36755        -4.60637         6.55231
     2019.37029        -7.09104         6.58583
     2019.37303         2.34929         6.57625
     2019.37577        -4.40037         6.61337
     2019.37850        -3.48304         6.52238
     2019.38124        -2.31371         6.54273
     2019.38398         0.69562         6.63611
     2019.38672        -1.02405         6.58104
     2019.38945        -6.01272         6.57745
     2019.39219        -8.80139         6.56189
     2019.39493        -9.08806         6.52238
     2019.39767        -5.24173         6.57865
     2019.40041       -10.73639         6.61217
     2019.40314        -2.18406         6.62893
     2019.40588        -5.05573         6.66844
     2019.40862        -3.04740         6.54034
     2019.41136        -1.01907         6.61457
     2019.41410        -1.20774         6.57745
     2019.41683         1.22359         6.57506
     2019.41957        -1.13608         6.58104
     2019.42231        -0.54074         6.55470
     2019.42505        -2.39241         6.52717
     2019.42778        -0.72008         6.79534
     2019.43052        -1.07275         6.57625
     2019.43326        -4.39242         6.62055
     2019.43600        -7.75909         6.54992
     2019.43874        -9.84476         6.63133
     2019.44147        -5.66543         6.64569
     2019.44421         4.62591         6.74626
     2019.44695       -10.40376         6.70316
     2019.44969        -6.13343         6.71154
     2019.45243        -4.74210         6.72830
     2019.45516        -7.56777         6.61097
     2019.45790        -7.99044         6.61576
     2019.46064        -0.61011         6.64569
     2019.46338        -4.16278         6.84203
     2019.46611        -2.18044         6.94499
     2019.46885        -8.97211         6.79055
     2019.47159         2.14422         6.66006
     2019.47433         1.75755         6.63971
     2019.47707        -1.83012         6.64450
     2019.47980        -4.78979         6.68281
     2019.48254        -3.78446         6.72591
     2019.48528        -1.67013         6.66964
     2019.48802        -5.70879         6.71393
     2019.49076        -8.49846         6.63133
     2019.49349         0.50687         6.55710
     2019.49623         1.64020         6.74027
     2019.49897         1.46753         6.65048
     2019.50171        -1.66514         6.71034
     2019.50444        -5.11681         6.59062
     2019.50718        -3.46448         6.59541
     2019.50992        -6.53215         6.66245
     2019.51266       -10.17381         6.55470
     2019.51540         1.45152         6.66245
     2019.51813        -3.35215         6.70795
     2019.52087        -3.40382         6.86837
     2019.52361        -0.71449         6.58224
     2019.52635        -0.24916         6.58583
     2019.52908         5.81617         6.86957
     2019.53182        -1.24450         6.74386
     2019.53456        -3.93616         6.73309
     2019.53730         1.57617         6.73429
     2019.54004         4.47550         6.71992
     2019.54277         5.16083         6.81809
     2019.54551        -0.65184         6.95098
     2019.54825        -1.24351         6.53315
     2019.55099        -1.22518         6.65048
     2019.55373         0.82415         6.80612
     2019.55646         1.32849         6.75584
     2019.55920        -6.39218         6.95936
     2019.56194         4.88815         6.57625
     2019.56468        -4.16952         6.77379
     2019.56741         2.66081         6.67443
     2019.57015        14.70414         6.65886
     2019.57289         4.06347         6.62414
     2019.57563         2.65680         6.54393
     2019.57837        -1.76186         6.61935
     2019.58110         5.13147         6.60858
     2019.58384         3.00280         6.81809
     2019.58658        -1.57587         6.53914
     2019.58932         2.75346         6.57506
     2019.59206         5.12179         7.19282
     2019.59479         5.88112         6.59062
     2019.59753         6.61945         6.88274
     2019.60027        -1.90821         6.80732
     2019.60301         0.52512         6.57506
     2019.60574        -0.10055         6.96415
     2019.60848        -1.28322         6.91506
     2019.61122         0.95411         6.53196
     2019.61396         2.97444         6.64928
     2019.61670         6.70677         6.59182
     2019.61943         5.15110         6.63252
     2019.62217         0.88344         6.69957
     2019.62491         6.67777         6.56428
     2019.62765         3.83410         6.62175
     2019.63039         4.20543         6.53315
     2019.63312         4.96676         6.55351
     2019.63586        12.18009         6.56309
     2019.63860         6.26142         6.53914
     2019.64134         9.25575         6.64450
     2019.64407         7.84608         6.50442
     2019.64681         3.57742         6.57506
     2019.64955         5.53975         6.56548
     2019.65229         6.79908         6.61337
     2019.65503        -0.17559         6.63133
     2019.65776         1.29374         6.61217
     2019.66050         3.40107         6.70316
     2019.66324         3.86940         6.90549
     2019.66598         3.98873         7.11021
     2019.66872         1.79407         6.64928
     2019.67145         7.70040         6.63252
     2019.67419         3.34273         6.59661
     2019.67693         2.71606         6.77499
     2019.67967        -1.10261         6.62893
     2019.68240         2.22372         6.49365
     2019.68514         1.31405         6.56548
     2019.68788         8.98538         6.69717
     2019.69062         4.47872         6.65527
     2019.69336         4.28605         6.56787
     2019.69609         2.78638         6.51879
     2019.69883         3.01171         6.52238
     2019.70157         1.16304         6.50801
     2019.70705         6.47070         6.54872
     2019.70978         5.15903         6.51520
     2019.71252         1.02237         6.59541
     2019.71526        -0.21130         6.64809
     2019.71800         8.25703         6.86598
     2019.72073        12.82436         7.00964
     2019.72347         3.79869         6.55830
     2019.72621         7.95002         6.51879
     2019.72895        12.63035         6.49484
     2019.73169        13.19368         6.53555
     2019.73442        12.87302         6.50322
     2019.73716         5.84635         6.52118
     2019.73990         5.04868         6.87436
     2019.74264         8.60101         6.60978
     2019.74538         5.05534         6.59780
     2019.74811        21.56167         6.78696
     2019.75085        13.73700         6.67323
     2019.75359         8.70333         6.78098
     2019.75633         6.23466         6.63372
     2019.75906        15.66200         6.58703
     2019.76180        14.94833         6.55590
     2019.76454        10.86566         6.56787
     2019.76728         3.21999         6.55710
     2019.77002        18.66132         6.59302
     2019.77275         8.99765         6.72950
     2019.77549         4.38498         6.66245
     2019.77823        13.61731         6.60379
     2019.78097         2.37465         6.53435
     2019.78371        10.78098         6.52118
     2019.78644        11.33931         6.55949
     2019.78918        18.18964         6.54752
     2019.79192        22.88997         6.53076
     2019.79466        21.39530         6.48766
     2019.79739        13.43763         6.53435
     2019.80013        16.46096         6.51999
     2019.80287        13.06430         6.55231
     2019.80561        15.33463         6.52837
     2019.80835        11.42196         6.53076
     2019.81108        15.08629         6.88034
     2019.81382        12.33862         6.86598
     2019.81656         4.59695         6.72591
     2019.81930         7.56228         6.69238
     2019.82203         6.12161         6.66724
     2019.82477         8.71895         6.68281
     2019.82751         4.99728         6.64210
     2019.83025         3.71961         6.76302
     2019.83299        10.55394         6.81450
     2019.83572         5.17027         6.62055
     2019.83846        16.06160         6.55710
     2019.84120        15.91493         6.58104
     2019.84394        17.75226         6.83006
     2019.84668        13.29960         6.65647
     2019.84941        20.84893         6.65168
     2019.85215        11.41026         6.62654
     2019.85489         7.11559         6.61935
     2019.85763         6.95892         6.56069
     2019.86036        10.39725         6.62534
     2019.86310         0.68458         6.66485
     2019.86584         8.17891         6.66365
     2019.86858        15.57425         6.70196
     2019.87132        28.17158         6.89950
     2019.87405        22.27691         6.64928
     2019.87679        27.77624         6.96056
     2019.87953        25.29757         6.61457
     2019.88227        21.24890         6.59541
     2019.88501        20.88923         6.73309
     2019.88774        25.97256         6.82886
     2019.89048        24.56189         6.69598
     2019.89322        24.39923         6.72112
     2019.89596        21.48356         6.71513
     2019.89869        12.16589         6.62055
     2019.90143         8.01622         6.58224
     2019.90417         8.01355         6.81210
     2019.90691        10.16888         6.62055
     2019.90965         7.56621         6.58463
     2019.91238        14.71454         6.64210
     2019.91512        17.56688         6.82408
     2019.91786        23.58621         6.63731
     2019.92060        21.18254         6.65527
     2019.92334        10.59687         6.60738
     2019.92607        10.81320         6.57147
     2019.92881         5.06253         6.62534
     2019.93155         6.65686         6.59541
     2019.93429         1.25419         6.65288
     2019.93702         9.76153         6.64928
     2019.93976        13.15386         6.63492
     2019.94250         7.65719         6.60618
     2019.94524         2.70652         6.62175
     2019.94798         2.56885         6.61935
     2019.95071        -3.81282         6.81210
     2019.95345         3.95951         6.61816
     2019.95619        10.13784         6.62175
     2019.95893         2.16518         6.62055
     2019.96167         6.18451         6.64210
     2019.96440         7.73684         6.74865
     2019.96714         0.43417         6.71992
     2019.96988        -1.35950         6.62534
     2019.97262         4.15883         6.59182
     2019.97535         6.00316         6.61097
     2019.97809         6.11649         6.62773
     2019.98083         8.67783         6.61816
     2019.98357         9.05016         6.85281
     2019.98631        23.98749         6.60858
     2019.98904        21.45282         6.67921
     2019.99178        16.13015         6.63013
     2019.99452        24.42348         6.72231
     2020.00000        19.36214         6.63851
     2020.00273        12.18647         6.62534
     2020.00547        17.63581         6.75105
     2020.00747         6.23763        10.57492
     2020.01095        16.00547         6.75224
     2020.01368         7.70680         6.76661
     2020.01642        14.20613         6.71872
     2020.01916         3.94646         6.58463
     2020.02190         3.18679         6.76422
     2020.02464        -0.21688         6.77619
     2020.02737        -0.91654         6.60499
     2020.03011       -10.97821         6.58463
     2020.03285       -11.23388         6.60379
     2020.03559        -8.02355         6.69358
     2020.03833        -5.34622         6.62534
     2020.04106        -6.96989         6.92464
     2020.04380       -13.90656         6.70675
     2020.04654       -10.16123         6.58703
     2020.04928        -3.03589         6.49484
     2020.05201        -4.12756         6.50083
     2020.05475        -2.24223         6.50083
     2020.05749         0.23610         6.48048
     2020.06023         1.90443         6.50682
     2020.06297         6.01076         6.49484
     2020.06570         5.48609         6.53076
     2020.06844         2.50042         6.48168
     2020.07118        10.03876         6.53076
     2020.07392         9.62109         6.53675
     2020.07666        11.97642         6.58823
     2020.07939         9.23075         6.52837
     2020.08213        12.93308         6.49963
     2020.08487        12.08741         6.49963
     2020.08761         5.05174         6.48646
     2020.09034         6.48007         6.53076
     2020.09308        11.00941         6.52238
     2020.09582        17.27074         6.51041
     2020.09856         8.58307         6.53315
     2020.10130         4.15040         6.47449
     2020.10403         3.29673         6.50682
     2020.10677         2.59106         6.70196
     2020.10951         6.92039         6.54513
     2020.11225         9.66172         6.51639
     2020.11498         9.60906         6.49245
     2020.11772        10.32239         6.71034
     2020.12046         4.40272         6.72471
     2020.12320         7.34305         6.52956
     2020.12594         8.79438         6.46970
     2020.12867         3.78971         6.47569
     2020.13141         4.85904         6.59182
     2020.13415        11.52737         6.63611
     2020.13689        12.18770         6.64809
     2020.13963         8.64704         6.66964
     2020.14236         9.47637         6.48048
     2020.14510         5.90570         6.51161
     2020.14784         0.22603         6.48407
     2020.15058         4.59936         6.53794
     2020.15331         3.17069         6.53076
     2020.15605         9.82502         6.47210
     2020.15879         9.68635         6.51280
     2020.16153         3.10569         6.45414
     2020.16427         9.39502         6.54513
     2020.16700        19.89035         6.66724
     2020.16974         8.32868         6.56189
     2020.17248        10.30801         6.53196
     2020.17522         2.77534         6.46851
     2020.17796         0.75167         6.51161
     2020.18069        -2.38500         6.49484
     2020.18343         4.14834         6.54273
     2020.18617         3.61467         6.50442
     2020.18891         3.25000         6.49125
     2020.19164        -3.22867         6.47689
     2020.19438        -6.12834         6.50682
     2020.19712        -8.04601         6.49006
     2020.19986       -10.46968         6.50921
     2020.20260        -5.21135         6.54513
     2020.20533        -5.55101         6.53196
     2020.20807        -8.20768         6.52477
     2020.21081        -4.58135         6.49245
     2020.21355        -4.91402         7.10303
     2020.21629         1.65431         6.81689
     2020.21902        -2.98036         6.71633
     2020.22176        -6.77603         6.54034
     2020.22450        -6.04470         6.53914
     2020.22724        -0.86336         6.50203
     2020.22997         2.88597         6.52477
     2020.23271         3.19430         6.54872
     2020.23545         6.64263         6.67083
     2020.23819         4.22096         6.62414
     2020.24093        -1.58871         6.63372
     2020.24366        -0.20338         6.63851
     2020.24640         4.52395         6.65647
     2020.24914        -5.31871         6.66365
     2020.25188        -0.04438         6.68759
     2020.25462         0.77595         6.62055
     2020.25735         2.24728         6.63971
     2020.26009         5.81761         6.66126
     2020.26283         6.18094         6.66485
     2020.26557        -1.52773         6.67083
     2020.26830        -1.22340         6.72950
     2020.27104         9.29393         6.71034
     2020.27378         0.43627         6.63252
     2020.27652        -4.53240         6.62654
     2020.27926         0.70993         6.77858
     2020.28199         0.99526         6.82647
     2020.28473        -5.99341         6.69238
     2020.28747        -4.71208         6.69238
     2020.29021         0.63025         6.74985
     2020.29295        -2.32442         6.66365
     2020.29568        -3.06708         6.66964
     2020.29842         3.39425         6.67802
     2020.30116         5.57858         7.56754
     2020.30390        -2.63109         6.66724
     2020.30663         4.47524         6.63372
     2020.30937        -0.83043         6.83006
     2020.31211        -0.09210         6.80612
     2020.31485         4.04523         6.64330
     2020.31759        -1.09243         6.52358
     2020.32032         8.46990         6.56548
     2020.32306         4.54823         6.56668
     2020.32580        -0.89244         6.53555
     2020.32854         4.09389         6.53196
     2020.33128         1.40222         6.52717
     2020.33401        -5.10945         6.52597
     2020.33675         2.40988         6.53315
     2020.33949         0.49322         6.55231
     2020.34223       -10.26345         6.59062
     2020.34496        -4.78612         6.55590
     2020.34770        -7.30779         6.61935
     2020.35044        -3.84046         6.72830
     2020.35318        -5.81913         6.67083
     2020.35592        -4.98280         6.74267
     2020.35865         0.53553         6.57506
     2020.36139        -1.70713         6.58224
     2020.36413         0.51920         6.62175
     2020.36687         2.41353         6.65527
     2020.36961         0.19586         6.64090
     2020.37234        -2.69181         6.57745
     2020.37508         0.04052         6.55710
     2020.37782        -3.33215         6.54154
     2020.38056        -3.10182         6.55710
     2020.38329        -5.95349         6.50442
     2020.38603        -5.85315         6.51759
     2020.38877        -3.43782         6.69478
     2020.39151         0.17351         6.65527
     2020.39425         0.40884         6.58344
     2020.39698        -1.95783         6.48168
     2020.39972        -9.36050         6.49844
     2020.40246        -2.60217         6.47808
     2020.40520        -2.75784         6.66006
     2020.40794        -1.77950         6.62654
     2020.41067        -3.67817         6.68281
     2020.41341        -2.19684         6.51041
     2020.41615        -3.58951         6.49963
     2020.41889        -0.44118         6.50562
     2020.42162        -6.36485         6.54513
     2020.42436         0.51248         6.69957
     2020.42710        -3.15519         6.68640
     2020.42984        -2.38485         6.53914
     2020.43258         0.36848         6.46491
     2020.43531        -2.97719         6.51280
     2020.43805        -1.19386         6.53794
     2020.44079        -1.43553         6.53794
     2020.44353        -0.92520         6.50682
     2020.44626        -6.42287         6.54992
     2020.44900        -3.88154         6.58463
     2020.45174         3.75080         6.58942
     2020.45448        -0.33787         6.52597
     2020.45722        -0.19454         6.53794
     2020.45995        -1.98821         6.55590
     2020.46269        -4.68688         6.50801
     2020.46543        -1.47155         6.56428
     2020.46817         4.66278         6.59421
     2020.47091         3.09711         6.56907
     2020.47364        -1.61455         6.51520
     2020.47638        -7.87622         6.48168
     2020.47912        -5.47889         6.60499
     2020.48186        -2.44256         6.57506
     2020.48459        -1.43223         6.67682
     2020.48733        -5.55790         6.72351
     2020.49007        -3.70657         6.68879
     2020.49281         1.64776         6.73907
     2020.49555        -4.94490         6.69238
     2020.49828        -2.08157         6.56907
     2020.50102        -4.62324         6.57147
     2020.50376        -6.32491         6.54992
     2020.50650        -4.85158         6.53914
     2020.50924        -7.14825         6.56548
     2020.51197        -5.67092         6.50562
     2020.51471        -1.67559         6.48766
     2020.51745        -2.45226         6.65647
     2020.52019         5.73608         6.78457
     2020.52292         1.07441         6.55111
     2020.52566         0.58374         6.56548
     2020.52840        -0.02393         6.54632
     2020.53114        -1.21260         6.58463
     2020.53388         1.13073         6.68281
     2020.53661        -2.70794         6.69717
     2020.53935        -5.66261         6.59661
     2020.54209         2.80873         6.58703
     2020.54483        -1.27694         6.56668
     2020.54757        -1.58461         6.56309
     2020.55030         2.49172         6.63013
     2020.55304        -2.51695         6.54752
     2020.55578         1.42538         6.62055
     2020.55852         3.69071         6.55949
     2020.56125        -0.76196         6.70196
     2020.56399        -0.57562         6.66245
     2020.56673         7.01871         6.78936
     2020.56947         6.36604         6.79654
     2020.57221         2.52937         7.02401
     2020.57494        -1.67430         6.68759
     2020.57768         3.22203         6.67323
     2020.58042         4.08936         6.70795
     2020.58316         3.84769         6.83844
     2020.58590        -3.52897         6.79774
     2020.58863         0.71736         6.71872
     2020.59137         6.16769         6.72950
     2020.59411         3.55102         6.67443
     2020.59685         7.23135         6.86837
     2020.59958         5.72368         6.84203
     2020.60232         3.84001         6.73668
     2020.60506         8.33334         6.83126
     2020.60780         8.55868         6.63252
     2020.61054         4.77701         6.71752
     2020.61327         6.73634         6.68041
     2020.61601         4.22467         6.69598
     2020.61875        -2.28100         6.67802
     2020.62149         2.32633         6.68041
     2020.62423         1.72266         6.75943
     2020.62696        -0.56601         6.74985
     2020.62970         8.34832         6.73429
     2020.63244         4.67266         6.63851
     2020.63518         4.95299         6.71393
     2020.63791        10.27832         6.82168
     2020.64065         4.31065         6.70196
     2020.64339         3.88898         6.66006
     2020.64613         5.10631         6.63971
     2020.64887         5.10064         6.64809
     2020.65160        -0.26203         6.64809
     2020.65434         5.10831         6.70316
     2020.65708         6.69064         6.64569
     2020.65982         6.35197         6.64090
     2020.66256         7.65330         6.68400
     2020.66529        17.50363         6.95337
     2020.66803         9.77596         6.77499
     2020.67077         2.66629         6.66006
     2020.67351         3.96762         6.69119
     2020.67624         4.83296         6.69717
     2020.67898        -3.28771         6.68161
     2020.68172        -2.00038         6.62175
     2020.68446         6.93095         6.95098
     2020.68720         2.23528         6.90908
     2020.68993         7.03361         6.75464
     2020.69267         0.77194         6.81809
     2020.69541         5.00227         6.86119
     2020.69815         2.56261         6.70436
     2020.70089         0.01794         6.65527
     2020.70362         3.27127         6.59780
     2020.70636        -0.92440         6.98809
     2020.70910         5.60493         6.98570
     2020.71184        -2.37374         6.91387
     2020.71457        23.67259         6.86478
     2020.71731         8.14192         6.85999
     2020.72005         1.29726         6.79415
     2020.72279         4.69459         6.57625
     2020.72553         5.30192         6.75584
     2020.72826        17.98525         6.74506
     2020.73100        11.73058         6.66365
     2020.73374        13.44891         6.62175
     2020.73648        15.28324         6.75105
     2020.73921        16.95957         6.61217
     2020.74195        13.92091         6.96894
     2020.74469         8.10624         6.64809
     2020.74743         4.28957         6.75823
     2020.75017        12.89990         6.75464
     2020.75290         9.58723         6.53794
     2020.75564        17.39756         6.72351
     2020.75838         9.99889         6.58224
     2020.76112        20.75622         6.61457
     2020.76386        11.06055         6.51280
     2020.76659         8.88689         6.44935
     2020.76933        12.25722         6.61576
     2020.77207        -1.67445         6.49963
     2020.77481        15.56488         6.51759
     2020.77754        20.44221         6.50801
     2020.78028        18.99854         6.48048
     2020.78302         8.50687         6.51041
     2020.78576         5.31920         6.52477
     2020.78850         8.11454         6.50083
     2020.79123         8.74687         6.49844
     2020.79397         6.49020         6.47210
     2020.79671         7.55153         6.47569
     2020.79945        11.16086         6.48048
     2020.80219         9.30419         6.65288
     2020.80492         6.93752         6.50801
     2020.80766         5.20485         6.55351
     2020.81040         0.73819         6.55710
     2020.81314         4.54352         6.54752
     2020.81587        11.89585         6.56189
     2020.81861        17.03818         6.63851
     2020.82135        17.68751         6.63252
     2020.82409         6.65884         6.54992
     2020.82683         8.02017         6.61576
     2020.82956         8.64250         6.62055
     2020.83230        17.45684         6.66964
     2020.83504        13.41017         6.60259
     2020.83778        17.00250         6.52477
     2020.84052        12.59683         6.53435
     2020.84325         9.53316         6.75224
     2020.84599         8.81649         6.66006
     2020.84873        13.45582         6.55949
     2020.85147        -0.35985         6.52358
     2020.85420        15.61649         6.57985
     2020.85694        23.50982         6.69837
     2020.85968        13.40515         6.57027
     2020.86242        20.16348         6.51879
     2020.86516        19.88581         6.86478
     2020.86789        17.41714         6.74386
     2020.87063        21.50647         6.59302
     2020.87337        17.16280         6.54393
     2020.87611        12.10614         6.66964
     2020.87885         7.42847         6.65766
     2020.88158        13.93780         6.66365
     2020.88432        11.19313         6.66365
     2020.88706         9.39546         6.96175
     2020.88980        11.25379         6.78577
     2020.89253         9.89812         6.82048
     2020.89527        13.76745         6.83006
     2020.89801        13.93578         6.87556
     2020.90075        15.54412         6.66006
     2020.90349        28.05945         6.77020
     2020.90622        16.34278         6.67083
     2020.90896        19.87511         6.77619
     2020.91170        15.15844         6.92464
     2020.91444        19.84677         6.77260
     2020.91718        12.10110         6.74506
     2020.91991        22.01343         6.77858
     2020.92265        12.14377         6.73907
     2020.92539         9.09910         6.67323
     2020.92813         3.95443         6.69358
     2020.93086         8.96876         6.63492
     2020.93360         9.55209         6.69478
     2020.93634         2.98242         6.68999
     2020.93908         4.69875         6.64928
     2020.94182         1.62008         6.60858
     2020.94455        -0.46358         6.61816
     2020.94729        -3.37725         6.58703
     2020.95003        -4.38292         6.60618
     2020.95277        -5.40559         6.64450
     2020.95551        -1.83226         6.63851
     2020.95824        -4.34093         6.58463
     2020.96098         4.16140         6.63133
     2020.96372        -1.56527         6.64928
     2020.96646         3.94807         6.73548
     2020.96919        -5.32460         6.74027
     2020.97193         5.80473         6.55590
     2020.97467         3.24906         6.67802
     2020.97741        -0.48361         6.71154
     2020.98015        -1.37628         6.89471
     2020.98288        -1.63095         6.77020
     2020.98562         3.82838         6.55351
     2020.98836        11.69072         6.55111
     2020.99110         5.76905         6.56787
     2020.99384         4.91938         6.57147
     2020.99657         4.83971         6.59182
     2020.99931         9.70604         6.53435
     2021.00205         2.93737         6.53435
     2021.00479        10.83270         6.54992
     2021.00752         8.58603         6.56069
     2021.01026         4.77536         6.60499
     2021.01300         7.77470         6.54034
     2021.01574         1.62303         6.57027
     2021.01848         5.77936         6.54273
     2021.02121         0.00269         6.55351
     2021.02395        -0.85498         6.55949
     2021.02669        -2.04165         6.54154
     2021.02943         0.94168         6.57147
     2021.03216        14.37701         6.55710
     2021.03490        14.20435         6.54992
     2021.03764         0.84468         6.57386
     2021.04038         2.61401         6.54992
     2021.04312         7.55434         6.56668
     2021.04585        13.27267         6.57985
     2021.04859         7.78900         6.55231
     2021.05133         1.14233         6.59900
     2021.05407        -1.29734         6.87675
     2021.05681         1.70600         6.71154
     2021.05954        -7.15067         6.51999
     2021.06228        -2.92834         6.54872
     2021.06502        -4.86201         6.60738
     2021.06776        -4.97768         6.65886
     2021.07049        -5.78135         6.56668
     2021.07323       -12.90402         6.55111
     2021.07597        -5.85369         6.58104
     2021.07871        -4.27735         6.58344
     2021.08145        -6.09002         6.55830
     2021.08418        -6.30869         6.52477
     2021.08692        -4.88036         6.53196
     2021.08966        -4.89003         6.62055
     2021.09240        -7.72870         6.56428
     2021.09514        -6.37137         6.62534
     2021.09787        -2.15404         6.67203
     2021.10061        -1.06470         6.52358
     2021.10335        -5.90137         6.72591
     2021.10609        -4.51104         6.60020
     2021.10882        -2.85171         6.57745
     2021.11156        -8.70438         6.52837
     2021.11430        -7.60005         6.70316
     2021.11704        -3.42272         6.46611
     2021.11978        -2.78239         6.62055
     2021.12251        -0.24505         6.56428
     2021.12525        -2.87472         6.50921
     2021.12799         0.40261         6.70436
     2021.13073        -2.90706         6.50322
     2021.13347        -0.14773         6.72591
     2021.13620         1.38760         6.86478
     2021.13894         4.72393         6.72591
     2021.14168        -1.09174         6.56787
     2021.14442         4.09059         6.57266
     2021.14715        -3.53607         6.52358
     2021.14989        -0.33574         6.60978
     2021.15263        -8.47341         6.73907
     2021.15537        -0.60808         6.69837
     2021.15811        14.22725         6.78696
     2021.16084        14.22258         6.66724
     2021.16358         9.29191         6.95218
     2021.16632         3.92024         6.89591
     2021.16906         3.33858         6.67682
     2021.17180         0.88491         6.55710
     2021.17453        -1.35476         6.79055
     2021.17727        -0.96643         6.79295
     2021.18001         1.81190         6.71633
     2021.18275        -9.88377         6.84922
     2021.18548       -14.33944         6.59302
     2021.18822       -11.83811         6.57985
     2021.19096        -3.51277         6.63611
     2021.19370         6.03556         6.66006
     2021.19644        -8.76811         6.65048
     2021.19917        -8.46478         6.63971
     2021.20191        -7.07245         6.59541
     2021.20465         3.15688         6.58823
     2021.20739        -2.14079         6.55470
     2021.21013         6.52054         6.64330
     2021.21286        -1.40812         6.67083
     2021.21560         4.80921         7.07788
     2021.21834        -3.30646         6.55949
     2021.22108        -5.39413         6.51879
     2021.22381        -7.15180         6.52358
     2021.22655        -2.73147         6.55470
     2021.22929         0.33186         6.56069
     2021.23203        -3.88281         6.58224
     2021.23477        -4.48347         6.52597
     2021.23750       -13.06714         6.52956
     2021.24024       -10.36881         6.58463
     2021.24298         5.08352         6.60259
     2021.24572        -4.35215         6.59062
     2021.24846         3.21318         6.73189
     2021.25119        -1.05349         6.54393
     2021.25393        -0.61816         6.53675
     2021.25667        -4.98083         6.63133
     2021.25941        -3.23249         6.61935
     2021.26214        -0.16116         6.51520
     2021.26488        -4.93483         6.69119
     2021.26762        -5.32150         6.69717
     2021.27036        -2.14317         6.67562
     2021.27310        -3.68484         6.59900
     2021.27583       -12.71951         6.52956
     2021.27857        -3.06818         6.62414
     2021.28131        -2.79884         6.49006
     2021.28405        -4.23751         6.65886
     2021.28679        -9.92518         6.60618
     2021.28952       -10.32285         6.61576
     2021.29226        -7.14752         7.00605
     2021.29500        -6.82419         6.63013
     2021.29774       -12.14086         6.84323
     2021.30047        -7.11853         6.69238
     2021.30321        -5.42919         6.62414
     2021.30595        -8.26686         6.77858
     2021.30869         1.41747         6.76302
     2021.31143        -8.70820         6.59541
     2021.31416        -6.74987         6.74267
     2021.31690        -4.00554         6.66724
     2021.31964        -5.05321         6.80253
     2021.32238        -1.74988         6.74386
     2021.32512        -2.79454         6.56907
     2021.32785         2.09479         6.52956
     2021.33059        -3.80888         6.54154
     2021.33333        -7.97555         6.60499
     2021.33607        -3.74422         6.56189
     2021.33880       -10.24989         6.52717
     2021.34154       -12.95456         6.49604
     2021.34428       -11.26223         6.67083
     2021.34702       -11.70989         6.55351
     2021.34976        -4.48856         6.54872
     2021.35249        -8.49023         6.48527
     2021.35523       -10.32890         6.52837
     2021.35797        -8.99857         6.63013
     2021.36071       -14.01624         6.97971
     2021.36344       -10.25791         6.50322
     2021.36618        -9.75458         6.52477
     2021.36892        -7.50324         6.58224
     2021.37166       -10.85391         6.47090
     2021.37440       -11.67258         6.50682
     2021.37713       -14.21025         6.55949
     2021.37987        -9.19392         6.60020
     2021.38261        -7.90359         7.39874
     2021.38535       -12.01226         6.79774
     2021.38809       -15.83093         6.57386
     2021.39082       -11.51260         6.51041
     2021.39356        -5.11926         6.49604
     2021.39630        -7.52893         6.48646
     2021.39904        -4.14760         6.44097
     2021.40177        -1.26627         6.62534
     2021.40451        -9.70494         6.72351
     2021.40725        -9.44361         6.50322
     2021.40999        -7.98628         6.51759
     2021.41273        -6.09495         6.50442
     2021.41546        12.52739         6.63492
     2021.41820        -2.13728         6.57745
     2021.42094        -0.81695         6.67323
     2021.42368        -1.69062         6.55111
     2021.42642        -6.29329         6.54393
     2021.42915        -0.64996         6.49484
     2021.43189         1.34037         6.49365
     2021.43463        -8.27630         6.56069
     2021.43737        -9.52096         6.58104
     2021.44010        -8.92463         6.68041
     2021.44284       -16.77630         6.92943
     2021.44558         1.73903         6.64569
     2021.44832        -4.71864         6.68879
     2021.45106        -9.97031         6.73189
     2021.45379        -3.06898         6.76661
     2021.45653        -2.40465         6.63013
     2021.45927        -2.53831         6.54273
     2021.46201        -6.69298         6.57865
     2021.46475       -10.70565         6.57386
     2021.46748        -2.74732         6.60140
     2021.47022        -2.88999         6.83844
     2021.47296        -6.08566         6.55830
     2021.47570       -11.07733         6.53076
     2021.47843         4.69900         6.58583
     2021.48117        -3.19866         6.57865
     2021.48391       -13.85933         6.60618
     2021.48665       -15.80900         6.52118
     2021.48939        -6.58267         6.51999
     2021.49212        -6.82034         6.55470
     2021.49486       -10.29501         6.71393
     2021.49760        -9.60568         6.72950
     2021.50034       -19.02335         6.60259
     2021.50308       -11.83302         6.57386
     2021.50855       -13.04135         6.60379
     2021.51129        -4.83902         6.55351
     2021.51403        -2.23069         6.60858
     2021.51676         6.63164         6.57865
     2021.51950         4.33397         6.66844
     2021.52224        -3.86270         6.58463
     2021.52498        -9.16937         6.53555
     2021.52772        -2.87003         6.54632
     2021.53045        -5.97670         6.59780
     2021.53319         0.60663         6.60499
     2021.53593        -6.27204         6.70196
     2021.53867        -2.35971         7.02640
     2021.54141         6.78962         6.66365
     2021.54414        -5.97105         6.60738
     2021.54688        -4.64572         6.47329
     2021.54962        -7.50538         6.57625
     2021.55236        -0.25305         6.51400
     2021.55509         2.36928         6.98450
     2021.55783        -4.63639         6.60858
     2021.56057        -4.48806         6.47808
     2021.56331        -0.91173         6.51400
     2021.56605        -7.75240         6.69358
     2021.56878        -7.39607         6.74626
     2021.57152        -2.62973         6.73907
     2021.57426         0.12060         6.70436
     2021.57700         4.41093         6.92344
     2021.57974        -2.25174         6.74147
     2021.58247        -8.85341         6.77140
     2021.58521        -5.63308         6.87795
     2021.58795        -3.97975         6.85880
     2021.59069        -1.44742         6.71513
     2021.59342        -2.25408         6.69238
     2021.59616        -0.58575         6.77739
     2021.59890         0.46258         7.00605
     2021.60164       -10.03509         6.80971
     2021.60438         5.68924         6.93542
     2021.60711        10.70057         6.87795
     2021.60985        -2.33410         6.80851
     2021.61259        -5.96977         6.86598
     2021.61533       -12.47343         6.86239
     2021.61807        -4.03010         6.78457
     2021.62080         2.59823         6.68879
     2021.62354        -5.21244         6.67443
     2021.62628        -7.82511         6.76422
     2021.62902         7.98822         6.76182
     2021.63175        -2.69545         6.71274
     2021.63449        -7.25612         6.66485
     2021.63723         6.64121         6.93063
     2021.63997        -6.65545         6.77260
     2021.64271        -3.71112         6.75344
     2021.64544        -0.26079         6.75584
     2021.64818         5.02454         6.75105
     2021.65092        -3.75613         6.63013
     2021.65366        -4.95780         6.82408
     2021.65639         0.51753         6.81689
     2021.65913        13.04786         6.69957
     2021.66187         3.43020         6.72950
     2021.66461        -4.53447         6.65407
     2021.66735         3.49286         6.61337
     2021.67008         0.96519         6.86119
     2021.67282         0.65552         7.00964
     2021.67556        15.29385         7.11979
     2021.67830        10.80118         6.78457
     2021.68104         5.03751         6.66126
     2021.68377         1.19485         6.65886
     2021.68651        -0.44582         6.78098
     2021.68925        -2.58249         6.72950
     2021.69199         2.21984         6.78098
     2021.69472        -1.05383         6.69717
     2021.69746         9.47950         6.64569
     2021.70020         9.81983         6.79175
     2021.70294         5.94416         6.87915
     2021.70568         4.94950         6.78936
     2021.70841        12.16883         6.74626
     2021.71115         9.53016         6.72231
     2021.71389        10.99249         6.61217
     2021.71663         4.28282         6.68161
     2021.71937         3.99315         6.79774
     2021.72210        13.52148         6.82767
     2021.72484         7.67581         6.81210
     2021.72758         1.40015         6.69837
     2021.73032        -2.10752         7.08746
     2021.73305         9.17181         6.68520
     2021.73579         9.81414         6.72710
     2021.73853        10.37247         6.74745
     2021.74127        14.33880         6.68879
     2021.74401         4.71413         6.65527
     2021.74674         9.72746         6.63372
     2021.74948        15.40380         6.88992
     2021.75222        13.89013         6.80253
     2021.75496         8.32446         6.62295
     2021.75770         1.71879         6.62893
     2021.76043        -1.93888         6.59182
     2021.76317         3.06645         6.65288
     2021.76591         6.87778         6.68759
     2021.76865         9.86511         6.66604
     2021.77138        19.94544         6.73189
     2021.77412        10.57478         6.62773
     2021.77686         7.02811         6.72471
     2021.77960        19.99044         7.86684
     2021.78234        12.85577         6.74027
     2021.78507        19.53710         6.71633
     2021.78781         4.68643         6.66365
     2021.79055         8.01576         6.61217
     2021.79329         4.24609         6.62893
     2021.79603         2.55843         6.68400
     2021.79876        16.80476         6.69837
     2021.80150        21.09809         6.72950
     2021.80424         3.40842         6.69837
     2021.80698        15.11675         6.71752
     2021.80971        15.01008         6.67921
     2021.81245        15.38941         6.88753
     2021.81519        16.63074         6.66485
     2021.81793        13.86308         6.63013
     2021.82067        10.29141         6.79295
     2021.82340        15.17374         6.65647
     2021.82614        13.21207         6.69119
     2021.82888        12.13440         6.67921
     2021.83162        13.57573         6.73309
     2021.83436        12.52106         6.63372
     2021.83709         8.97339         6.63492
     2021.83983         6.91773         6.67443
     2021.84257        -0.13194         8.06797
     2021.84531         3.00839         6.66604
     2021.84804        19.03972         6.66245
     2021.85078        14.12305         6.65168
     2021.85352         3.57238         6.62055
     2021.85626         7.11971         6.61816
     2021.85900         3.25604         6.61097
     2021.86173        -1.81662         6.58942
     2021.86447         9.57371         6.69598
     2021.86721        11.67304         6.88154
     2021.86995        14.29137         6.86239
     2021.87269         8.64870         6.77020
     2021.87542        12.53703         6.80732
     2021.87816         7.19536         6.65288
     2021.88090        13.05369         6.69478
     2021.88364         1.18102         6.63252
     2021.88637        -0.06964         6.64210
     2021.88911        -3.20331         6.61935
     2021.89185        -4.25998         6.58703
     2021.89459        -5.07865         6.60858
     2021.89733        -1.66032         6.61217
     2021.90006        -4.02599         6.68161
     2021.90280        -8.50266         6.62534
     2021.90554        -8.83233         6.62773
     2021.90828        -0.05999         6.69478
     2021.91102         4.78034         6.67682
     2021.91375         6.22467         6.64210
     2021.91649         0.23800         6.74147
     2021.91923         7.65833         6.59302
     2021.92197        -1.03534         6.87316
     2021.92470        -8.64601         6.63372
     2021.92744       -13.27368         6.62055
     2021.93018        -7.63634         6.66604
     2021.93292         7.65499         6.74267
     2021.93566        13.52832         6.75105
     2021.93839         0.87265         6.73309
     2021.94113         9.48398         6.93422
     2021.94387        20.44731         6.56548
     2021.94661        -5.01836         6.52238
     2021.94935         4.65297         6.49724
     2021.95208         4.44531         6.50682
     2021.95482        -0.94836         6.69238
     2021.95756        -2.17203         6.65647
     2021.96030        -6.19370         6.61457
     2021.96303       -17.56737         6.57147
     2021.96577        -8.77204         6.55830
     2021.96851        -7.32371         6.57027
     2021.97125        -5.64638         6.56787
     2021.97399        -0.66104         6.60259
     2021.97672         8.18929         6.54752
     2021.97946         5.20062         6.54393
     2021.98220         7.09495         6.74745
     2021.98494        11.38428         6.59302
     2021.98767        12.18361         6.59182
     2021.99041         9.53894         6.58344
     2021.99315        14.53827         6.57865
     2021.99589        10.55061         6.54273
     2021.99863        13.84594         6.53435
     2022.00136        23.05927         6.57027
     2022.00410        13.72560         6.57386
     2022.00684         1.38093         6.54393
     2022.00958        -4.98074         6.56668
     2022.01232       -16.90541         6.56189
     2022.01505         8.06292         6.67203
     2022.01779        11.29025         6.55710
     2022.02053         7.19859         6.55470
     2022.02327       -11.33008         7.03718
     2022.02600         1.60725         6.56907
     2022.02874        11.62058         6.61097
     2022.03148         4.94291         6.56069
     2022.03422         9.50024         6.61816
     2022.03696         6.43557         6.77020
     2022.03969        -1.16410         6.68281
     2022.04243         3.10424         6.73548
     2022.04517        -0.03543         6.57266
     2022.04791        -0.36010         6.70675
     2022.05065         4.23823         6.72112
     2022.05338         4.32756         6.69957
     2022.05612         0.44089         6.76182
     2022.05886         5.48722         6.86119
     2022.06160        -2.19445         6.72950
     2022.06433        -3.80111         6.85520
     2022.06707         6.78922         6.88154
     2022.06981        -0.08945         6.63013
     2022.07255         1.76788         6.60140
     2022.07529         2.59121         6.71872
     2022.07802        11.24054         6.70316
     2022.08076         7.50987         6.60259
     2022.08350         5.00920         6.65527
     2022.08624        -1.41046         6.64210
     2022.08898       -11.09513         6.62055
     2022.09171       -28.11880         7.05873
     2022.09445       -19.86947         7.26465
     2022.09719       -17.18714         6.64569
     2022.09993        -6.09281         6.85281
     2022.10266         6.60852         6.82048
     2022.10540         2.95785         6.69837
     2022.10814        12.38419         6.83006
     2022.11088        14.80652         6.98211
     2022.11362         5.55985         6.67443
     2022.11635        -2.27282         6.72950
     2022.11909        -1.29349         6.57147
     2022.12183        -0.66616         6.54154
     2022.12457       -13.76983         6.84443
     2022.12731        -2.21350         6.65647
     2022.13004         1.23783         6.67562
     2022.13278        -3.68183         6.76182
     2022.13552        11.63550         6.68400
     2022.13826         3.34083         6.56668
     2022.14099        -1.01984         6.63372
     2022.14373       -18.60751         6.85760
     2022.14647        -3.96218         6.63971
     2022.14921        -0.69385         6.87915
     2022.15195        -8.15852         6.86358
     2022.15468        -3.91218         6.67562
     2022.15742        -8.73885         6.74267
     2022.16016         5.05648         6.71034
     2022.16290        -4.68019         6.59661
     2022.16564        -1.42586         6.62295
     2022.16837        -3.89353         6.62175
     2022.17111        -5.75720         6.62295
     2022.17385        -3.35187         6.88154
     2022.17659         9.84947         6.86718
     2022.17932       -13.14020         6.60379
     2022.18206       -11.42987         6.64689
     2022.18480       -11.43254         6.65886
     2022.18754        -0.19321         6.71633
     2022.19028        -2.46288         6.72471
     2022.19301         6.31445         6.69119
     2022.19575         1.50678         7.02162
     2022.19849        -3.78888         6.66006
     2022.20123         8.43445         6.63971
     2022.20397         2.70278         6.63971
     2022.20670        -0.51789         6.81450
     2022.20944         5.44144         6.84443
     2022.21218         3.16677         6.64928
     2022.21492       -10.65690         6.66964
     2022.21765        -2.05457         6.62534
     2022.22039         0.29977         6.59900
     2022.22313        -2.03390         6.65168
     2022.22587       -10.02957         6.74267
     2022.22861        -7.07124         6.80851
     2022.23134        -9.60891         6.68999
     2022.23408        -5.76958         6.65766
     2022.23682       -11.39325         6.82048
     2022.23956        -7.19692         6.61576
     2022.24230       -18.85358         6.64090
     2022.24503        -9.53125         6.87795
     2022.24777        -4.61292         6.94499
     2022.25051        -6.55559         6.85999
     2022.25325        -7.03126         6.61816
     2022.25598        -6.45093         6.72112
     2022.25872        -4.33360         6.71513
     2022.26146        -5.50727         6.57386
     2022.26420        -7.85294         6.78217
     2022.26967       -16.46427         6.85880
     2022.27241        -8.93994         7.07070
     2022.27515       -13.89161         6.72231
     2022.27789       -15.57228         6.60499
     2022.28062       -20.02495         6.68640
     2022.28336       -11.75162         7.58909
     2022.28610       -11.38829         7.09943
     2022.28884       -15.01995         6.86358
     2022.29158       -14.20462         6.58823
     2022.29431       -13.08929         6.64809
     2022.29705       -10.89996         6.60618
     2022.29979        -6.31363         6.68879
     2022.30253        -5.12830         6.89232
     2022.30527        -7.70897         6.71992
     2022.30800       -12.98264         6.75105
     2022.31074       -12.23130         6.61097
     2022.31348       -16.80497         6.62773
     2022.31622       -15.10864         6.64210
     2022.31895       -20.15031         6.89232
     2022.32169       -15.98798         6.85281
     2022.32443       -17.26865         6.72710
     2022.32717       -21.07632         6.70914
     2022.32991       -13.80799         6.61816
     2022.33264       -20.69965         6.75344
     2022.33538       -14.98832         6.90070
     2022.33812       -10.58299         6.88394
     2022.34086       -17.76366         6.57985
     2022.34360       -16.73433         6.55111
     2022.34633       -16.72400         6.57865
     2022.34907       -12.73967         6.68640
     2022.35181       -15.69334         6.69358
     2022.35455       -16.01800         6.62175
     2022.35728       -14.68367         6.60379
     2022.36002       -13.47134         6.64928
     2022.36276       -12.09301         6.64450
     2022.36550       -13.12068         6.67562
     2022.36824       -10.64835         6.67203
     2022.37097       -14.23902         6.64689
     2022.37371       -19.25469         6.68520
     2022.37645       -14.41836         6.63492
     2022.37919       -13.67502         6.89112
     2022.38193       -28.85269         6.92225
     2022.38466       -19.85336         6.63252
     2022.38740       -26.85703         6.62534
     2022.39014       -10.69170         6.68640
     2022.39288       -15.59837         6.60499
     2022.39561       -16.00704         6.64090
     2022.39835       -17.04071         6.88992
     2022.40109       -10.62737         6.99647
     2022.40383       -15.48204         7.21556
     2022.40657        -7.75471         6.83844
     2022.40930       -16.89838         6.74626
     2022.41204        -5.74105         6.77260
     2022.41478        -5.01572         6.66006
     2022.41752        -9.63439         6.75943
     2022.42026       -27.86106         6.69598
     2022.42299        -5.65172         6.65766
     2022.42573       -14.63039         6.65407
     2022.42847        -9.86706         6.59780
     2022.43121       -10.97173         6.79654
     2022.43394        -4.38340         6.74626
     2022.43668       -15.23007         6.71393
     2022.43942        -8.32574         6.72112
     2022.44216        -8.89241         6.64569
     2022.44490         4.92193         6.87436
     2022.44763         7.08026         6.68041
     2022.45037        -7.39141         6.67443
     2022.45311       -21.90208         6.82886
     2022.45585        -9.79475         6.64689
     2022.45859       -25.05442         6.63492
     2022.46132       -12.54709         6.67682
     2022.46406       -19.93676         6.67562
     2022.46680       -18.54642         6.64809
     2022.46954        -8.76109         6.66126
     2022.47227       -20.88176         6.63372
     2022.47501         1.82957         6.64928
     2022.47775       -17.49410         6.84084
     2022.48049        -4.99677         6.71872
     2022.48323         5.59156         6.78816
     2022.48596         7.96889         6.67203
     2022.48870        -8.04077         6.63252
     2022.49144        -4.22644         6.67921
     2022.49418        -5.84411         6.88274
     2022.49692        -6.09278         6.85520
     2022.49965        -9.38545         7.22634
     2022.50239       -27.24112         6.67323
     2022.50513       -12.15379         7.15211
     2022.50787        15.40154         7.23472
     2022.51060        -8.27913         6.97852
     2022.51334       -12.10779         7.12338
     2022.51608       -14.22146         6.78696
     2022.51882       -20.42813         6.68400
     2022.52156        -9.37680         6.71393
     2022.52429         4.92453         6.68999
     2022.52703        -8.67814         6.81809
     2022.52977        10.38819         6.72351
     2022.53251        -8.86348         6.78577
     2022.53525        -1.47114         6.76182
     2022.53798        -4.32681         6.72231
     2022.54072        -4.40048         6.78936
     2022.54346        17.84385         6.84682
     2022.54620         6.19818         7.16528
     2022.54893         9.58051         6.78457
     2022.55167         3.09484         6.66245
     2022.55441        -0.43883         6.82168
     2022.55715        10.04251         6.73429
     2022.55989        -5.93116         6.68879
     2022.56262        -5.32483         6.71872
     2022.56810         0.49783         6.69717
     2022.57084         1.31816         6.68879
     2022.57357         8.51749         6.85999
     2022.57631       -15.52618         6.69478
     2022.57905        -8.82184         6.74865
     2022.58179         3.33349         6.63731
     2022.58453         8.94982         6.89591
     2022.58726        -7.59685         6.73907
     2022.59000         3.52448         6.76661
     2022.59274        -6.38319         6.67682
     2022.59548        -7.48586         6.77499
     2022.59822        -9.63253         7.01563
     2022.60095       -20.55619         6.88154
     2022.60369        -9.41986         6.78457
     2022.60643       -11.18253         6.58703
     2022.60917        -5.23920         6.72112
     2022.61190         2.52913         6.71154
     2022.61464        10.25946         6.77619
     2022.61738        10.44179         6.69717
     2022.62012         1.10712         6.69837
     2022.62286         3.42446         6.66365
     2022.62559         5.46679         6.65886
     2022.62833        -3.29388         6.93781
     2022.63107         1.57945         6.80133
     2022.63381         8.64678         6.73069
     2022.63655        -0.63889         6.61337
     2022.63928         0.38944         6.67802
     2022.64202         5.66977         7.12697
     2022.64476         7.81810         7.02042
     2022.64750        11.61544         6.72710
     2022.65023        11.31177         6.65886
     2022.65297         5.61010         6.75943
     2022.65571         4.62643         6.61816
     2022.65845        12.85476         6.87795
     2022.66119        12.95609         6.64928
     2022.66392        11.74642         6.65168
     2022.66666        11.16675         6.66724
     2022.66940         8.97609         6.69717
     2022.67214         8.50642         6.98570
     2022.67488        10.18675         7.84290
     2022.67761         9.16208         7.06711
     2022.68035        10.33441         6.65048
     2022.68309         7.81974         6.61696
     2022.68583        -1.07393         6.91746
     2022.68856         0.99740         7.01922
     2022.69130        11.96774         6.80612
     2022.69404        -0.33393         6.67443
     2022.69678         9.70940         6.70555
     2022.69952        -1.31627         6.75823
     2022.70225        16.22806         7.02640
     2022.70499        -5.47961         6.88753
     2022.70773         5.53072         6.71872
     2022.71047        13.52005         6.56787
     2022.71321        12.03539         6.63611
     2022.71594         4.50772         6.63252
     2022.71868         1.91805         6.58344
     2022.72142        24.82438         6.67203
     2022.72416        11.14571         6.87795
     2022.72689        11.31904         6.76900
     2022.72963        19.58937         6.73907
     2022.73237        20.88170         6.65288
     2022.73511         8.63304         6.60618
     2022.73785        10.92237         6.80133
     2022.74058         2.81370         6.83964
     2022.74332        14.52803         7.11619
     2022.74606        25.25436         6.90549
     2022.74880        19.13269         6.68161
