# ================= DQRFIT RESULTS ================
# INPUT FILE: series/AXIS.rad
# OUTPUT: LDETRENDED
# FILTER FUNCTION: f(t)
# f(t)=+line(t)+annual(t)+jumps(t)
# line(t)=+P 1+P 2*t
# annual(t)=+P 3*sin(2*pi*t+P 4)
# jumps(t)=+P 5*heav(t-2010.7833  )+P 6*heav(t-2011.2992  )+P 7*heav(t-2011.5810  )+P 8*heav(t-2013.2429  )
# heav(t)=(t<0?0:1)
# TOTAL OBSERVATIONS MTOT= 2104
# INITIAL TIME INTERVAL= 2016.8622 - 2008.9528 =  7.9095
# TOTAL OBSERVATIONS AFTER PREFILTER M= 2100
# TIME-SPAN= 2016.8622 - 2008.9528 =  7.9095
# OBSERVATIONS: USED M=  2100 REJECTED MTOT-M=     4 %USED=   99.8099
# N=  8 PARAMETERS
# MAXSIG= 175.00000
# MAXRES=  32.71045
# SCALE FACTOR FOR LENGTHS: SCL=  10.00000
# SCALE FACTOR FOR SIGMAS: SCLSIG=   1.00000
# CHI^2=   2948.722 DOF=  2092 CHI^2/DOF=   1.40952
# RMS=      6.791 SDEV=      6.792 MEAN=    0.13867
#  P #       PARAMETER +-    SIGMA %error PARAMETER NAME
# P 1 =      1620.04848 +-  471.759  29.12 YZERO                              
# P 2 =        -0.79967 +-    0.235  29.35 SLOPE                              
# P 3 =         6.21442 +-    0.211   3.40 ANNUAL AMPLITUDE                   
# P 4 =        -2.66015 +-    0.042   1.58 ANNUAL PHASE                       
# P 5 =         1.27347 +-    0.652  51.22 OFFSET 2010.7833                   
# P 6 =        -6.07951 +-    0.941  15.47 OFFSET 2011.2992                   
# P 7 =         4.27806 +-    0.873  20.41 OFFSET 2011.5810                   
# P 8 =        -7.20572 +-    0.862  11.96 OFFSET 2013.2429                   
#       T            LDETRENDED       SIG_OBS
     2008.95277       -18.00526         6.38613
     2008.95551       -15.50707         6.34932
     2008.95824       -19.41488         6.40512
     2008.96098       -12.67969         6.53453
     2008.96372       -13.84550         6.42531
     2008.96646       -17.40631         6.54166
     2008.96919       -23.87012         6.43837
     2008.97193       -15.53493         6.45736
     2008.97467       -14.74274         6.44786
     2008.97741       -14.28055         6.49179
     2008.98927       -13.85107        11.72987
     2008.99110       -13.74961         6.62001
     2008.99384       -19.50442         6.66513
     2008.99657       -22.87223         6.35407
     2008.99931       -13.12204         6.50604
     2009.00479        -7.72266         6.58083
     2009.00752       -15.25447         6.38138
     2009.01026       -19.45328         6.47042
     2009.01300       -11.24909         6.42056
     2009.01545       -14.24113         7.51044
     2009.03564       -29.69998         9.53586
     2009.03764       -29.13839         6.47992
     2009.04038       -30.70320         6.47398
     2009.04312       -28.97101         6.44193
     2009.04859       -30.20163         6.42768
     2009.05133       -27.51444         6.43599
     2009.05407       -27.62725         6.53809
     2009.05681       -24.52306         6.47517
     2009.05932       -24.44906         7.23619
     2009.06228       -26.63168         6.44074
     2009.06502       -23.98649         6.46330
     2009.06776       -25.03430         6.45380
     2009.07049       -27.74212         6.63070
     2009.07323       -22.33893         6.48704
     2009.07597       -21.99874         6.41818
     2009.07871       -20.42255         6.49060
     2009.08145       -26.19336         6.46686
     2009.08418       -20.55717         6.73280
     2009.08692       -24.74598         7.25400
     2009.08966       -24.78679         6.41106
     2009.09240       -24.99060         6.39088
     2009.09514       -18.07141         6.56421
     2009.09787       -19.11822         6.41581
     2009.10061       -18.33603         6.38257
     2009.10335       -22.26884         6.39681
     2009.10609       -20.81065         6.38732
     2009.10882       -15.87646         6.66869
     2009.11162       -21.56923         6.50129
     2009.11430       -19.46009         6.50960
     2009.11704       -19.42990         6.53335
     2009.11978       -20.50971         6.55828
     2009.12251       -19.71552         6.36832
     2009.12525       -17.81333         6.69362
     2009.12799       -19.07714         6.66157
     2009.13073        -7.52295         6.42412
     2009.13347       -22.52376         6.39325
     2009.13620       -26.44457         6.86458
     2009.13894       -22.16338         6.41937
     2009.14168       -25.92819         6.48942
     2009.14442       -21.39000         6.36476
     2009.14715       -22.90681         6.59508
     2009.14984        -9.85667         6.76367
     2009.16738        26.50036        13.41692
     2009.16906        16.25070         6.61408
     2009.17180        10.13189         6.50485
     2009.17453         3.33208         6.75417
     2009.17727         7.34227         6.62239
     2009.18001        -0.03754         6.54284
     2009.18275         2.53765         6.69600
     2009.18548        -3.22416         6.47517
     2009.18822        -2.84797         6.46805
     2009.19096        -5.89778         6.56659
     2009.19364        -5.62964         6.59508
     2009.19644        -1.39640         6.50960
     2009.19917         2.54678         6.47042
     2009.20191         5.49297         6.78979
     2009.20459         0.19012         7.05810
     2009.20739         7.29235         6.76486
     2009.21013        -2.25846         7.30267
     2009.21286         3.28573         6.69718
     2009.21554         7.99488         6.91089
     2009.21828        -0.47694         7.19701
     2009.22108         4.80530         6.70431
     2009.22381        -0.46851         7.06879
     2009.22655        -2.33832         6.70312
     2009.22929         9.37887         6.66157
     2009.23203         1.43006         6.85865
     2009.23477         6.68325         6.54284
     2009.23750         3.30244         7.07947
     2009.24024         8.53163         6.86340
     2009.24298         7.90981         7.39172
     2009.24566         7.16696         7.12221
     2009.24846         5.61119         6.64257
     2009.25119         6.40938         6.70906
     2009.25393         5.54857         6.74586
     2009.25667        -0.45524         7.33948
     2009.25941        -2.57905         7.48551
     2009.26214         3.07114         7.25993
     2009.26488        -0.97867         7.30386
     2009.26762         3.73052         6.60695
     2009.27036         2.99971         6.59746
     2009.27310        -0.63310         6.59627
     2009.27583         4.21109         6.69600
     2009.27857        -0.99972         6.68887
     2009.28131         3.18147         6.79810
     2009.28405        -3.47634         6.68175
     2009.28679         2.90484         6.70193
     2009.28952        -1.84197         6.61645
     2009.29226         0.10422         6.83253
     2009.29500        -3.99359         6.67700
     2009.29768         0.47056         6.89189
     2009.30047        -3.58621         6.63663
     2009.30321         0.75198         6.59983
     2009.30595        11.48417         6.77435
     2009.30869         5.55836         6.64613
     2009.31143        -1.33545         6.56303
     2009.31416        -1.40526         6.57134
     2009.31690        -2.28207         6.76486
     2009.31964         0.87912         6.55828
     2009.32238         4.14831         6.52622
     2009.32512         0.53950         6.61645
     2009.32785        -1.13631         6.64138
     2009.33059        -5.88113         6.51910
     2009.33333         1.53706         6.51435
     2009.33607         4.34025         6.92869
     2009.33880         7.12644         6.73992
     2009.34149        -5.61541         6.78148
     2009.34422         8.04678         6.96312
     2009.34707         9.74406         6.97381
     2009.34976        -4.73380         6.51910
     2009.35247        -3.96063         6.54522
     2009.35523        -4.56442         6.52622
     2009.35797        14.67777         6.93107
     2009.36071         6.13896         6.99162
     2009.36344         1.43915         6.85509
     2009.36624         5.71938         7.22313
     2009.36892         3.99253         6.52266
     2009.37166        -3.47928         6.54878
     2009.37440        -7.87710         6.52622
     2009.37713         4.36009         6.95006
     2009.37987        -6.87572         6.96550
     2009.38261         0.65747         6.59983
     2009.38535        -0.87034         6.52978
     2009.38809        -1.03315         6.61764
     2009.39082        -7.79696         6.65207
     2009.39356        -7.60677         6.87883
     2009.39630        -1.28958         6.76011
     2009.39904         1.53561         6.92988
     2009.40177        -0.17520         6.83372
     2009.40451         7.01099         7.25756
     2009.40725        -6.75082         6.85509
     2009.40999         1.32737         7.12340
     2009.41273        -0.52944         6.72330
     2009.41546         9.70575         6.58440
     2009.41820         0.68293         6.55234
     2009.42094        -3.91588         6.53216
     2009.42368        -2.63769         6.66394
     2009.42642        -1.75050         6.85865
     2009.42915         3.67769         6.87646
     2009.43189         6.09388         6.63307
     2009.43463        -2.65193         6.62358
     2009.43737         4.19426         6.61526
     2009.44010         1.59445         6.65919
     2009.44284         3.74864         6.64020
     2009.44558        -4.79017         6.68531
     2009.44832         3.51802         6.64969
     2009.45106         4.43621         6.61645
     2009.45379         3.81540         6.64138
     2009.45653         0.78259         6.61526
     2009.45927        -1.43022         6.68056
     2009.46201         4.04996         6.69243
     2009.46475        -5.05685         6.86340
     2009.46686        10.37284         9.19987
     2009.47667         1.95469        13.17473
     2009.47843         8.61710         6.70075
     2009.48083        -2.82498         8.23703
     2009.48408        -1.31338         7.13052
     2009.48665        -2.53633         7.01061
     2009.48939         3.48186         6.99755
     2009.49212         6.81705         6.83846
     2009.49486         2.43524         6.85746
     2009.49733         2.56821         7.45464
     2009.50034         0.46162         6.98568
     2009.50193        16.54289        17.79663
     2009.50946         7.24591        11.47105
     2009.51123         9.54633         7.38222
     2009.51403         6.07056         6.61526
     2009.51676         1.09975         6.52622
     2009.51950         1.87294         6.58083
     2009.52224        -2.93387         6.82778
     2009.52498         1.60232         6.59033
     2009.52772         5.13551         6.76486
     2009.53045         9.36670         6.80285
     2009.53319        -1.66311         6.70668
     2009.53593         7.11608         6.57252
     2009.53867         9.01627         6.60577
     2009.54141         4.86246         6.83846
     2009.54414        -1.54135         6.80760
     2009.54688         9.01283         7.08778
     2009.54962         6.68202         6.56065
     2009.55236         4.67121         6.54997
     2009.55509        12.36140         6.58440
     2009.55783        13.32159         6.64732
     2009.56057         0.34978         6.96787
     2009.56331         4.55897         6.96669
     2009.56605         6.88716         6.81116
     2009.56878         1.31935         6.73992
     2009.57152         2.71054         6.72212
     2009.57426        15.44273         6.80047
     2009.57700         4.25092         6.82659
     2009.57974         6.50611         6.69481
     2009.58247         6.53830         6.85746
     2009.58521         5.38349         6.76011
     2009.58795         6.51668         6.73517
     2009.59069        12.33286         6.67225
     2009.59342        13.19405         6.78741
     2009.59616        11.97224         6.59389
     2009.59890        12.65943         6.78623
     2009.60164         6.02562         6.58202
     2009.60438         3.41781         6.65088
     2009.60711        10.97100         6.69243
     2009.60985        10.68619         6.77079
     2009.61259        10.59238         6.71499
     2009.61533         5.06357         6.80878
     2009.61807        12.32176         6.70193
     2009.62080        14.70095         6.60695
     2009.62354         5.16014         6.56659
     2009.62628         6.66733         6.56065
     2009.62902        10.53152         6.75417
     2009.63175        10.82071         6.73874
     2009.63449         8.08789         6.83965
     2009.63723         7.76008         7.12696
     2009.63997        -0.34773         6.74349
     2009.64271         5.19946         6.90732
     2009.64544         4.34565         7.14714
     2009.64818         5.99184         7.18870
     2009.65092        14.31803         6.77792
     2009.65366         4.81722         6.62832
     2009.65639         4.65441         6.55828
     2009.65913         0.81160         6.75061
     2009.66187         2.60379         9.59522
     2009.66461         2.21298         6.63426
     2009.66735        11.78617         6.83846
     2009.67008         6.73036         6.86933
     2009.67282         7.38455         6.98806
     2009.67556         8.88974         6.71499
     2009.67784        19.93556         8.24415
     2009.68469         4.08703        12.38522
     2009.68651        11.78849         6.50366
     2009.68925         9.24468         6.75773
     2009.69199         5.66487         7.12340
     2009.69472        -2.19194         6.73161
     2009.69746        10.26125         6.54878
     2009.70020        12.13244         6.68056
     2009.70294         7.83663         6.61883
     2009.70568         6.20682         6.61170
     2009.70841         3.21401         6.79454
     2009.71115         8.79620         7.06760
     2009.71389         7.81939         6.84677
     2009.71663         6.91058         6.77910
     2009.71937         6.30177         6.73636
     2009.72210        -2.67205         6.65563
     2009.72484         1.73914         6.70075
     2009.72758         1.20533         6.66038
     2009.73032         6.68852         6.52622
     2009.73305         5.86971         6.77198
     2009.73579         7.87490         6.76248
     2009.73853        10.90509         7.22669
     2009.74127         6.22328         6.96075
     2009.74401        20.80547         6.88358
     2009.74640        12.73039         7.43446
     2009.74960        13.81394         9.57860
     2009.75222        13.03204         6.89426
     2009.75496         5.67423         6.66988
     2009.75770        11.05842         6.61764
     2009.76043         9.39461         6.56421
     2009.76317         3.17880         6.70075
     2009.76591         8.58298         6.73043
     2009.76865        -0.61583         6.78148
     2009.77138        -1.45564         6.67819
     2009.77412         1.87755         6.79691
     2009.77686        -1.70426         6.60220
     2009.77954         5.01389         6.78385
     2009.78234         6.99712         6.78029
     2009.78507        15.96131         6.77673
     2009.78781         6.43850         6.77554
     2009.79055        -1.56231         7.06760
     2009.79329         5.12388         7.02249
     2009.79603         2.16707         8.57657
     2009.79848        15.11203         7.49500
     2009.80139         2.86736         7.22906
     2009.80424         7.89164         7.22669
     2009.80698         2.05083         7.77282
     2009.80971         7.27301         7.12577
     2009.81165        21.79657        11.85690
     2009.81821         5.79981         8.11474
     2009.82774        34.83643        15.22508
     2009.83055        22.08367        13.77547
     2009.83350        15.08903        11.95188
     2009.83634        -0.09270        11.04721
     2009.84000        -2.71377         9.02891
     2009.84202         4.29885         9.62371
     2009.84479         6.76307        10.17815
     2009.84736        23.50112        11.68000
     2009.85968        -9.51303        10.28025
     2009.86173         3.64261         8.09812
     2009.86447         4.70480         8.08150
     2009.86721         2.09299         7.11153
     2009.86995         2.41318         7.08303
     2009.87269         4.43837         6.98449
     2009.87508         1.16829         7.70040
     2009.87788        19.87052         7.83455
     2009.88050         0.62562         7.99364
     2009.88364        14.13613         7.17683
     2009.93566       -11.03027         7.09372
     2009.93839        -2.84709         6.80997
     2009.94113        -3.18790         6.62714
     2009.94387        -0.55971         6.82778
     2009.94661        -0.86652         6.77435
     2009.94935        -4.38433         6.62239
     2009.95208        -8.59914         6.64138
     2009.95482        -7.71195         6.94769
     2009.95756        -1.94076         6.69837
     2009.96030       -13.49257         6.71380
     2009.96577       -13.88819         6.65919
     2009.96851        -0.23300         6.77198
     2009.97125        -3.55281         6.72449
     2009.97399        -2.32362         6.72212
     2009.97672       -12.28943         6.57609
     2009.97946       -15.50724         6.62595
     2009.98220       -13.77606         6.58796
     2009.98494       -12.71187         6.51079
     2009.98767       -10.09168         6.57134
     2009.99041       -11.57949         6.57609
     2009.99315        -9.95630         6.59746
     2009.99589        -9.08711         6.55709
     2009.99863       -10.71492         6.75180
     2010.00684       -17.36335         6.54759
     2010.00958       -12.86516         6.58083
     2010.01232       -15.18897         6.68887
     2010.01505       -13.34178         6.58440
     2010.01779       -17.08459         6.53691
     2010.02053       -14.38140         6.57965
     2010.02287       -20.43753         8.26077
     2010.02692        -8.63230        10.17578
     2010.02874         1.02816         7.05692
     2010.03142         3.02231         6.72330
     2010.03422        -5.29846         6.70193
     2010.03696        -6.51727         6.99874
     2010.03969         2.48392         6.85627
     2010.04243        -3.27789         6.76011
     2010.04517        -3.14170         6.57490
     2010.04791         9.28149         7.13646
     2010.05065         6.45268         6.73517
     2010.05338         2.92587         6.87052
     2010.05612         7.82006         6.63663
     2010.05886         5.55525         6.66038
     2010.06160        -5.76656         6.70431
     2010.06433        -9.40837         6.54759
     2010.06707         7.97382         6.81828
     2010.06981        -2.77500         6.88595
     2010.07255       -10.92981         6.93107
     2010.07529        -8.59562         6.69481
     2010.07802       -12.04743         6.55709
     2010.08076        -3.79124         6.95481
     2010.08350        -3.63605         6.50723
     2010.08624        -3.12186         6.83134
     2010.08898         7.16833         6.73755
     2010.09166         4.17547         6.71855
     2010.09445         3.63871         6.67700
     2010.09719         3.73290         6.71380
     2010.09993        -5.00791         6.48467
     2010.10266        -3.58072         6.55946
     2010.10540        -0.10553         6.81591
     2010.10814         0.63066         6.88120
     2010.11088        -0.97715         6.77079
     2010.11362        -5.98797         6.59152
     2010.11635         1.55422         6.50960
     2010.11909         0.61541         6.94413
     2010.12183        -0.86140         6.84677
     2010.12457        -3.00421         6.51198
     2010.12731         3.27998         6.78029
     2010.13004       -12.28883         6.67819
     2010.13278       -10.14064         6.62120
     2010.13552        -8.40045         6.57727
     2010.13826        -2.02526         6.50841
     2010.14099        -3.16307         6.47755
     2010.14373        -4.64288         6.80878
     2010.14647        -8.92469         6.67700
     2010.14921        -3.20750         6.61052
     2010.15195        -0.58431         6.50248
     2010.15468         1.68688         6.46092
     2010.15742         3.95106         6.56778
     2010.16016        -5.18075         6.61170
     2010.16290        -3.03856         6.56184
     2010.16564        -1.81237         6.58796
     2010.16837         0.75182         6.47992
     2010.17111         1.75501         6.56778
     2010.17385        -7.88080         6.53809
     2010.17659        -6.53661         6.50723
     2010.17932         1.35458         6.44549
     2010.18206         1.00577         6.53691
     2010.18480        -2.02904         6.47042
     2010.18754        -2.64685         6.49298
     2010.19028         1.71634         6.46211
     2010.19301        14.13453         6.61408
     2010.19478         8.40894        12.29499
     2010.19940         1.00263        10.76108
     2010.20123       -14.89391         6.52266
     2010.20397        -0.93672         6.72093
     2010.20670        -2.13153         6.87883
     2010.20944        -1.45534         6.58440
     2010.21218        -9.07815         6.53809
     2010.21492        -5.96696         6.50010
     2010.21765        -4.28077         6.71618
     2010.22039         1.82642         6.55472
     2010.22313        -8.69039         6.54640
     2010.22587        -6.08320         6.62595
     2010.22861        -0.42901         6.66394
     2010.23134         7.70718         6.74586
     2010.23408        -8.04163         6.71499
     2010.23956         5.82175         6.98568
     2010.24230         4.89393         6.97737
     2010.24503        -2.67888         6.76960
     2010.24777        -1.85869         6.74349
     2010.25051        -2.41750         6.93938
     2010.25325         0.78369         6.82066
     2010.25598         0.59988         6.64495
     2010.25872         8.19107         6.77910
     2010.26146         3.39226         6.85509
     2010.26420         4.48645         7.01774
     2010.26694         7.40164         6.85746
     2010.26967         5.01183         6.77792
     2010.27241        -2.37498         6.70787
     2010.27515        -1.19579         6.79572
     2010.27789        -1.73760         6.67700
     2010.28062         3.40759         6.56421
     2010.28336        -7.83522         6.81353
     2010.28610       -10.21504         6.71380
     2010.28884         1.97115         6.70431
     2010.29158         2.80034         6.69006
     2010.29431        -0.99947         6.80403
     2010.29705         0.12072         6.57609
     2010.29979         0.56691         6.79454
     2010.30253         2.50510         6.69006
     2010.30527        13.76629         7.07235
     2010.30800         5.96548         6.65800
     2010.31074        10.92967         6.64851
     2010.31348        -2.56214         6.55946
     2010.31622         2.01205         6.56421
     2010.31895        11.07424         7.04148
     2010.32169         4.82443         6.67700
     2010.32443         4.48762         6.61526
     2010.32717         1.86381         6.65682
     2010.32991         1.57599         6.73161
     2010.33264        -5.38382         6.73043
     2010.33538        -1.31563         6.99993
     2010.33812         2.69856         6.66157
     2010.34086        -2.56525         6.58677
     2010.34360        -4.30806         6.64613
     2010.34633        -4.36687         6.58796
     2010.34907        -3.91468         6.57015
     2010.35181        -7.86249         6.57965
     2010.35455        -1.31030         6.59746
     2010.35728        -6.70111         6.56540
     2010.36002        -6.10892         6.68531
     2010.36276        -4.11473         6.49298
     2010.36550         1.07946         6.86458
     2010.36824        -4.10735         6.93107
     2010.37097        -2.21216        10.90949
     2010.37371         1.92802         6.74349
     2010.37645        11.51721         6.58796
     2010.37919         0.18740         6.81353
     2010.38193         5.12259         6.87883
     2010.38466        -0.64722         6.65326
     2010.38740         1.47297         6.61408
     2010.39014         3.54016         6.71143
     2010.39288        -4.65065         6.62358
     2010.39561        -6.55046         6.61408
     2010.39835        -2.05527         6.44312
     2010.40109         3.42292         6.59508
     2010.40383         0.82011         6.50841
     2010.40657         0.16630         6.45024
     2010.41295         2.38241        11.94713
     2010.41478         4.69787         6.53097
     2010.41752         9.09905         6.52860
     2010.42026         6.19824         6.64613
     2010.42299         7.77443         6.51791
     2010.42573        -3.42838         6.48111
     2010.42847        -7.09619         6.41343
     2010.43121        -7.26700         6.52978
     2010.43394        -1.05681         6.40631
     2010.43668        -1.85862         6.66157
     2010.43942        -0.52743         6.40869
     2010.44216        -0.35524         6.45855
     2010.44433        -8.26351         8.41036
     2010.44860         4.14591        12.63216
     2010.45037        -6.22867         6.66394
     2010.45311        -0.25348         6.51791
     2010.45585         1.18571         6.52741
     2010.45859         0.41590         6.52147
     2010.46132        -2.98292         6.54997
     2010.46360         0.27291         7.88679
     2010.46771        -3.47281        11.38913
     2010.46954        -1.38135         6.47398
     2010.47227        -3.89816         6.40156
     2010.47501        -8.82497         6.40750
     2010.47775        -5.28378         6.69006
     2010.48049         2.96441         6.89070
     2010.48323         3.42760         6.52860
     2010.48596         9.31479         6.61408
     2010.48870        -0.80102         6.52385
     2010.49144         9.87717         6.88239
     2010.49418         2.90036         6.46686
     2010.49692         2.39655         6.38494
     2010.49965        -0.84926         6.43955
     2010.50239         4.08393         6.42887
     2010.50513        -4.84089         6.60933
     2010.50787         1.50230         6.44430
     2010.51060         2.29649         6.44312
     2010.51334         4.32968         6.43955
     2010.51608         0.47087         6.45143
     2010.51882        -3.00294         6.49179
     2010.52156        16.57525         6.64732
     2010.52429         9.98644         6.43599
     2010.52703        12.95463         6.79810
     2010.52977         6.11482         6.46686
     2010.53251         0.37201         6.46449
     2010.53525        -2.27680         6.40038
     2010.53798         5.42939         6.50366
     2010.54072        -0.27242         6.49773
     2010.54346        -1.22323         6.72330
     2010.54620         0.11896         6.52266
     2010.54893        -1.16786         6.53928
     2010.55167         2.67133         6.44905
     2010.55441        -1.63548         6.72212
     2010.55715         0.42371         6.53691
     2010.55989        -0.60210         6.56896
     2010.56262         7.91609         6.57252
     2010.56536         3.20828         6.50841
     2010.56810         1.85847         6.47280
     2010.57084        -1.03234         6.58796
     2010.57357        12.87485         6.84084
     2010.57631        10.00304         6.68531
     2010.57905        -4.66777         6.69718
     2010.58179         2.94542         9.91221
     2010.58453         3.24561         6.59746
     2010.58726         2.63680         6.63545
     2010.59000         3.30898         6.68887
     2010.59274         3.18817         6.54522
     2010.59548         6.32136         6.64851
     2010.59822        15.82555         6.57727
     2010.60095         7.78774         6.52385
     2010.60369         6.51793         6.45618
     2010.60643         4.29612         6.54166
     2010.60917         6.01831         6.50248
     2010.61190         3.77050         6.39681
     2010.61464         9.77769         6.60577
     2010.61738        -1.41112         6.37663
     2010.62012         3.62507         6.44549
     2010.62286         5.36426         6.51554
     2010.62559         7.38945         6.49298
     2010.62833         8.75364         6.71499
     2010.63107         7.62883         6.80997
     2010.63381         8.62801         6.47042
     2010.63655        13.15120         6.50366
     2010.63928         9.15239         6.51554
     2010.64202         7.69858         6.44786
     2010.64476        -1.04923         6.58202
     2010.64750         1.55196         6.43480
     2010.65023        10.03415         6.89189
     2010.65297         0.22234         6.83609
     2010.65571         4.68553         6.38375
     2010.65845         9.39972         6.39919
     2010.66119         2.85791         6.48467
     2010.66392         9.56710         6.56896
     2010.66666        15.71729         6.56065
     2010.66940         0.83548         6.38019
     2010.67214         2.68967         6.34814
     2010.67488        23.49286         6.56065
     2010.67761        27.06504         6.39800
     2010.68035         5.23523         6.40631
     2010.68309        10.67842         6.43006
     2010.68583        12.60961         6.35051
     2010.68856         7.57280         6.37069
     2010.69130         3.03599         6.41818
     2010.69404         4.91918         6.60814
     2010.69678        -0.07663         6.35051
     2010.69952        10.52656         6.44786
     2010.70225         6.67275         6.39325
     2010.70499         8.47294         6.47280
     2010.70773        10.83513         6.47042
     2010.71047        10.97932         6.62476
     2010.71321        10.05451         6.50248
     2010.71594         8.30970         6.62832
     2010.71868        14.46889         6.54403
     2010.72142         8.86107         6.61526
     2010.72416         7.11026         6.60814
     2010.72689         9.40045         6.63901
     2010.72963         2.99864         6.45143
     2010.73237         0.66883         6.51316
     2010.73511        12.06102         6.54522
     2010.73785         9.13921         6.67463
     2010.74058        18.98440         6.94769
     2010.74332         6.10859         6.52978
     2010.74606         9.02278         6.55234
     2010.74880         1.08097         6.59271
     2010.75154         9.47516         6.43837
     2010.75416        12.85126         6.97618
     2010.75701        -1.78746         6.56778
     2010.75975         2.77373         6.39919
     2010.76249         7.56192         6.41225
     2010.76522         8.49710         6.41225
     2010.76796         8.28629         6.46092
     2010.77070         0.06748         6.42768
     2010.77344         6.18267         6.65682
     2010.77618        -0.18714         6.46092
     2010.77891        -0.11395         6.43718
     2010.78165         1.38424         6.40038
     2010.78439         1.04943         6.50010
     2010.78713         3.62262         7.00349
     2010.78987         3.87781         6.44668
     2010.79260         6.13000         6.40512
     2010.79534         3.74619         6.38019
     2010.79808         8.08838         6.41818
     2010.80082         3.96557         6.36120
     2010.80355         3.95176         6.34458
     2010.80629        11.99695         6.56421
     2010.80903         5.73713         6.47398
     2010.81177        15.57532         6.53453
     2010.81451         6.75251         6.50723
     2010.81724         8.76370         6.47280
     2010.81998        10.83289         6.43480
     2010.82272         5.09608         6.46805
     2010.82546         4.85427         6.44786
     2010.82820         8.76346         6.40631
     2010.83093        -1.46135         6.71974
     2010.83367         6.01884         6.71974
     2010.83641         7.05403         6.60220
     2010.83915        -3.39078         6.47042
     2010.84188         4.07741         6.45261
     2010.84462        11.84660         6.44549
     2010.84736        13.46979         6.53335
     2010.85010        17.74398         6.52147
     2010.85284         9.59316         6.50129
     2010.85557         6.86235         6.44074
     2010.85831         1.27654         6.36595
     2010.86105        -4.19027         6.33033
     2010.86379        -2.24508         6.40869
     2010.86653        -1.78689         6.35882
     2010.86926         4.35130         6.51435
     2010.87200        11.86049         6.35645
     2010.87474         4.21168         6.65800
     2010.87748         1.02987         6.46330
     2010.88021         1.83506         6.33033
     2010.88295         6.65825         6.41343
     2010.88569        -2.51356         6.37544
     2010.88843         1.61763         6.59389
     2010.89117         2.88282         6.61526
     2010.89390         3.20901         6.36595
     2010.89664         0.33819         6.26028
     2010.89938         0.87038         6.40038
     2010.90212         0.23657         6.33983
     2010.90485         0.66476         6.29827
     2010.90759         0.14295         6.27928
     2010.91033         0.55314         6.24722
     2010.91307        -9.58167         6.26859
     2010.91581         2.94552         6.31489
     2010.91854         4.50171         6.23060
     2010.92128        -2.71610         6.26740
     2010.92402         0.07509         6.23772
     2010.92676         1.76028         6.26503
     2010.92950         2.32447         6.31608
     2010.93223        -3.97834         6.30065
     2010.93497        10.93485         6.51791
     2010.93771         7.94404         6.35170
     2010.94045         0.69222         6.45974
     2010.94318         3.92041         6.27215
     2010.94592         3.72460         6.49654
     2010.94752        21.85888        16.29359
     2011.00444         2.44340        12.14896
     2011.00616        -4.54823         6.36713
     2011.00889         0.53996         6.45736
     2011.01163        -3.98585         6.19736
     2011.01437        -3.74666         6.35289
     2011.01711        -0.30847         6.89189
     2011.01984         1.93372         6.43124
     2011.02258        -5.56309         6.28759
     2011.02532       -11.43591         6.38019
     2011.02806        -5.33972         6.50010
     2011.03080        -8.03353         6.42293
     2011.03353        -1.47234         6.37426
     2011.03627         0.29485         6.66394
     2011.03901        -4.85896         6.55946
     2011.04175         8.00023         6.46449
     2011.04449         1.84942         6.37426
     2011.04722         0.16161         6.42649
     2011.04996        -8.08920         6.35051
     2011.05270        -9.45401         6.28759
     2011.05544        -6.27882         6.30302
     2011.05817        -0.93363         6.32083
     2011.06091         1.07256         6.36832
     2011.06365        -1.92825         6.34814
     2011.06639        -8.75106         6.23060
     2011.06913       -11.65988         6.64020
     2011.07186        -8.96769         6.28759
     2011.07460        -7.09150         6.31727
     2011.07734        -1.83231         6.35645
     2011.08008        -7.18112         6.28759
     2011.08282       -15.37893         6.24485
     2011.08555       -17.94474         6.23891
     2011.08829       -13.42655         6.32083
     2011.09103       -11.50536         6.34101
     2011.09377        -4.69417         6.39444
     2011.09650        -2.00298         6.33626
     2011.09924       -12.01379         6.23416
     2011.10198        -3.14260         6.62951
     2011.10472        -8.57441         6.30421
     2011.10746        -9.28022         6.35645
     2011.11019        -9.71703         6.30658
     2011.11293        -2.95585         6.32202
     2011.11567         5.70434         6.45974
     2011.11841        -6.89347         6.56659
     2011.12115        -0.84028         6.45380
     2011.12388        -8.51309         6.59389
     2011.12662        -4.49090         6.51554
     2011.12936         0.06929         6.31252
     2011.13210        -7.20252         6.30302
     2011.13483        -6.35133         6.31964
     2011.13757        -4.38914         6.29234
     2011.14031        -6.86595         6.28284
     2011.14305        -0.24276         6.50485
     2011.14579        -5.11457         6.43599
     2011.14852        -3.86838         6.26384
     2011.15086        -7.95451         7.54724
     2011.15776         4.84101        12.60723
     2011.15948         0.06537         6.33152
     2011.16221         0.68256         6.34339
     2011.16495        -0.81625         6.38613
     2011.16769        -8.30606         6.34814
     2011.17043        -9.97587         6.28996
     2011.17316       -13.46768         6.31015
     2011.17590       -14.21349         6.29827
     2011.17864        -3.69830         6.37900
     2011.18138        -6.83011         6.28759
     2011.18412        -7.63192         6.30658
     2011.18685         3.59327         6.41700
     2011.18959        -2.34854         6.36001
     2011.19233        -5.87435         6.28878
     2011.19507        -0.09916         6.42412
     2011.19780         4.52203         6.52147
     2011.20054        -3.16679         6.39444
     2011.20328         3.78740         6.57727
     2011.20602        -2.31941         6.55590
     2011.20876        -5.94322         6.38494
     2011.21149        -7.27703         6.40156
     2011.21423        -5.36684         6.29115
     2011.21697         2.61235         6.48704
     2011.21971        -0.41646         6.51435
     2011.22245        -5.43627         6.36832
     2011.22518        -0.06508         6.34695
     2011.22792        -3.74289         6.42887
     2011.23066        -2.68170         6.30777
     2011.23340        -2.25651         6.30777
     2011.23613         2.02768         6.30302
     2011.23887        -5.79013         6.39563
     2011.24161        -4.32194         6.41700
     2011.24435        -6.54176         6.45855
     2011.24709        -3.70657         6.31133
     2011.24982         5.96062         6.48823
     2011.25256         0.64681         6.31608
     2011.25530        -5.30300         6.34339
     2011.25804         7.14119         6.68294
     2011.26078        -7.27662         6.62595
     2011.26351        -6.40143         6.27097
     2011.26625       -12.45624         6.24366
     2011.26899        -4.19505         6.34458
     2011.27173        -6.62386         6.45855
     2011.27446         1.78333         6.73755
     2011.27720        -8.62448         6.50248
     2011.27994        -6.08329         6.28640
     2011.28268        -3.07510         6.36238
     2011.28542       -10.29791         6.38019
     2011.28815        -2.05773         6.38257
     2011.29089         1.04746         6.39444
     2011.29363        -3.14735         6.28996
     2011.29637        -6.40016         6.37544
     2011.29911        -3.28897         6.33983
     2011.30184        -1.61478         6.52385
     2011.30458        -5.69459         6.27215
     2011.30732        -4.59040         6.29352
     2011.31006         0.56879         6.27572
     2011.31279         0.66798         6.33508
     2011.31553        -2.17083         6.36595
     2011.31827        -2.08764         6.34576
     2011.32101         4.07455         6.39444
     2011.32375        -2.15426         6.30065
     2011.32648       -14.50907         6.26028
     2011.32922       -11.88389         6.36951
     2011.33196        -8.97870         6.40275
     2011.33470        -9.86651         6.40394
     2011.33744       -12.27632         6.39800
     2011.34017        -6.97513         6.61764
     2011.34291        -2.99994         6.47636
     2011.34565        -4.03575         6.41937
     2011.34839       -10.77456         6.44430
     2011.35112       -12.01137         6.40750
     2011.35386       -15.55518         6.50485
     2011.35660        -5.92399         6.30065
     2011.35934       -12.95080         6.45855
     2011.36208       -17.70561         6.33389
     2011.36481       -11.19642         6.47280
     2011.36755        -9.71523         6.46567
     2011.37029        -3.61804         6.49417
     2011.37303        -5.13786         6.44312
     2011.37577        -6.39367         6.46686
     2011.37850       -12.53048         6.61764
     2011.38124       -17.81729         6.44430
     2011.38398        -8.07610         6.48111
     2011.38672       -12.82491         6.43243
     2011.38945        -8.11172         6.53335
     2011.39219       -11.15953         6.42531
     2011.39493        -8.87234         6.55472
     2011.39767        -5.31215         6.48229
     2011.39995        -7.92533         8.10880
     2011.46703        -5.52469        10.85962
     2011.46885        -1.79923         6.49773
     2011.47159        -8.20204         6.57252
     2011.47433        -5.62285         6.61289
     2011.47707        -2.07066         6.54522
     2011.47980        -3.97447         6.51079
     2011.48254        -7.80728         6.46449
     2011.48528       -10.73709         6.46211
     2011.48802        -2.85690         6.63070
     2011.49076         5.27229         6.63426
     2011.49349         8.27248         6.56184
     2011.49623       -12.86733         6.48467
     2011.49897        -3.88014         6.46805
     2011.50171        -5.34695         6.67819
     2011.50444        -4.12977         6.52029
     2011.50718        -0.17558         6.49654
     2011.50992        -7.59339         6.45380
     2011.51266         0.10080         6.79335
     2011.51540         2.46199         6.77198
     2011.51813         7.48318         6.57727
     2011.52087        -1.62463         6.44905
     2011.52361        -2.12144         6.44786
     2011.52635        -7.75225         6.65682
     2011.52908         1.04494         6.73517
     2011.53182         1.36013         6.63782
     2011.53456         2.30432         6.44668
     2011.53730         0.03851         6.64495
     2011.54004        -4.15730         6.61883
     2011.54277         1.91189         6.56184
     2011.54551         0.60608         6.70787
     2011.54825        -2.39574         6.55590
     2011.55099        -4.73555         6.71974
     2011.55373        -5.34236         6.60933
     2011.55646         5.13183         6.63901
     2011.55806        -3.36989        18.65500
     2011.56194         4.53821         6.75655
     2011.56468        -1.63260         6.53097
     2011.56741         4.85159         6.52503
     2011.57015        -2.30922         6.63307
     2011.57289        -2.92303         6.66513
     2011.57563         2.73216         6.52147
     2011.57837        26.00235         6.61052
     2011.58110         5.20154         6.48942
     2011.58384        -3.93527         6.56659
     2011.58658         0.40892         6.76248
     2011.58932        -5.08189         6.52978
     2011.59206        -0.03371         6.62595
     2011.59479         0.59248         6.52266
     2011.59753         3.67367         6.55472
     2011.60027         3.00086         6.55472
     2011.60301         1.22405         6.56065
     2011.60574         1.26824         6.71024
     2011.60848        10.43443         6.76960
     2011.61122         4.97562         6.71024
     2011.61396         2.67181         6.70431
     2011.61670         1.05500         6.62595
     2011.61943        -2.80981         6.73280
     2011.62217        -3.98062         6.58083
     2011.62491        -3.16743         6.57965
     2011.62765        -2.02624         6.55353
     2011.63039         5.69995         6.52860
     2011.63312         0.70414         6.55946
     2011.63586         3.60332         6.51910
     2011.63860        11.69951         6.66632
     2011.64134         5.77770         7.13527
     2011.64407        -4.14011         6.55828
     2011.64681        12.43408         6.75536
     2011.64955         9.67727         6.93463
     2011.65229         0.85946         6.66750
     2011.65503         6.31465         6.70193
     2011.65776         2.44184         6.73517
     2011.66050        14.64403         7.02249
     2011.66324         6.32322         6.62120
     2011.66598         6.23241         6.83728
     2011.66872         8.55560         6.82659
     2011.67145         4.28979         6.51791
     2011.67419         4.51098         6.48467
     2011.67693        10.48616         6.48111
     2011.67967         6.86235         6.62951
     2011.68240         0.72754         6.58796
     2011.68514         5.23273         6.62595
     2011.68788         3.56192         6.64851
     2011.69062         4.70311         6.67581
     2011.69336         3.99230         6.65444
     2011.69609         1.39049         6.69837
     2011.69883         3.22868         6.68531
     2011.70157         0.75687         6.59033
     2011.70431         4.98606         6.66750
     2011.70705         9.87825         6.76248
     2011.70978        -0.10456         6.75417
     2011.71252        12.67463         6.85983
     2011.71526        13.30182         7.11984
     2011.71800         8.55601         6.71855
     2011.72073         6.87819         6.50129
     2011.72347         3.94738         6.73636
     2011.72621        14.91557         6.91920
     2011.72895        11.22676         6.53097
     2011.73157        21.41786         7.34541
     2011.73442        17.17914         6.59983
     2011.73716        22.54433         6.92988
     2011.73939        12.75011         8.20022
     2011.75747        18.25457        17.22082
     2011.75906        19.81085         6.62120
     2011.76180         7.42904         6.57371
     2011.76454        17.99922         6.75773
     2011.76728         6.24341         6.62239
     2011.77002         6.21260         6.80285
     2011.77275        17.96079         6.76604
     2011.77549         6.97698         6.92038
     2011.77823        -0.99383         6.71143
     2011.78097         7.48936         6.72093
     2011.78371         4.50655         6.56896
     2011.78644         3.44874         6.47755
     2011.78918         3.45793         6.50960
     2011.79192         3.29912         6.65682
     2011.79466        -2.55269         6.54166
     2011.79739         4.35750         6.54166
     2011.80013        11.81869         6.54403
     2011.80287        10.57988         6.60220
     2011.80561         3.45307         6.66275
     2011.80835        -5.40875         6.73755
     2011.81108         5.33144         6.56184
     2011.81382         3.48463         6.86815
     2011.81656         1.76682         6.42412
     2011.81930         0.74501         6.45024
     2011.82203         5.08720         6.43480
     2011.82477        -1.05261         6.47755
     2011.82751        -0.73242         6.57727
     2011.83025         2.52877         6.60933
     2011.83299        -1.24804         6.45499
     2011.83572        -6.36785         6.45380
     2011.83846         1.64134         6.44430
     2011.84120         4.28553         6.50129
     2011.84394         8.92672         6.53097
     2011.84668         3.08691         6.46567
     2011.84941        -5.16690         6.41106
     2011.85215        -6.86872         6.47517
     2011.85489        -3.05353         6.54997
     2011.85763         1.03166         6.69600
     2011.86036        12.96485         6.55115
     2011.86310         6.79004         6.62120
     2011.86584         7.42523         6.52385
     2011.86858         1.81142         6.60933
     2011.87132         4.43361         6.52503
     2011.87405        -2.08920         6.42887
     2011.87679         3.02199         6.52147
     2011.87953         2.75518         6.62239
     2011.88227        -0.01363         6.44430
     2011.88501         3.97456         6.50010
     2011.88774        -4.00525         6.50841
     2011.89048         5.62694         6.51316
     2011.89322         4.83513         6.86221
     2011.89596         2.19731         6.57015
     2011.89869         4.04750         6.65326
     2011.90143        -5.58931         6.56659
     2011.90417         2.28488         6.63189
     2011.90691         4.80307         6.62239
     2011.90965         0.77226         6.53097
     2011.91238         2.48445         6.73755
     2011.91512        -3.56436         6.58440
     2011.91786         1.69583         6.74942
     2011.92060        -6.08698         6.53809
     2011.92334       -10.68879         6.68531
     2011.92607       -10.40760         6.61289
     2011.92881        -5.28941         6.68294
     2011.93155        -4.87122         6.61883
     2011.93429        -5.57403         6.51198
     2011.93702        -6.55084         6.53216
     2011.93976        -3.94266         6.58083
     2011.94250         0.69253         6.54759
     2011.94524        -0.99428         6.60458
     2011.94798         0.70591         6.53572
     2011.95071         0.53210         6.51672
     2011.95345        -1.22171         6.71974
     2011.95619         0.84148         6.63782
     2011.95893        -2.13833         6.40394
     2011.96167        -0.42714         6.55828
     2011.96440         0.91605         6.46805
     2011.96714         0.75224         6.56778
     2011.96988         2.19143         6.34576
     2011.97262        -5.20338         6.33983
     2011.97535        -6.74619         6.36238
     2011.97809        -6.07900         6.38732
     2011.98083         6.24219         6.51672
     2011.98357         2.84037         6.43243
     2011.98631         4.90656         6.42293
     2012.33128        -3.43058         6.56896
     2012.33401        -5.50239         6.65207
     2012.33675        -4.94620         6.35051
     2012.33949        -9.46601         6.37069
     2012.34223       -12.55282         6.33152
     2012.34496       -17.72263         6.31489
     2012.34770       -12.90244         6.42649
     2012.35044       -12.21325         6.36832
     2012.35318        -3.55906         6.37900
     2012.35592        -4.73187         6.40631
     2012.35865        -7.23868         6.40869
     2012.36139       -10.18649         6.31133
     2012.36413       -12.42330         6.32202
     2012.36687       -10.53011         6.27097
     2012.36961        -8.11592         6.44193
     2012.37234         2.44327         6.48229
     2012.37508       -12.72055         6.45974
     2012.37782        -2.10936         6.50366
     2012.38329        -7.16998         6.46923
     2012.38603        -5.88179         6.52266
     2012.38877        11.45040         6.63070
     2012.39151         3.43859         6.52503
     2012.39425        -7.63622         6.40869
     2012.39698         1.06597         6.45024
     2012.39972        -8.57984         6.38375
     2012.40246        -7.93865         6.33864
     2012.40520        -4.99046         6.42412
     2012.40794        -7.75527         6.34814
     2012.41067         0.42692         6.33508
     2012.41341        -3.56789         6.33983
     2012.41615        -2.84971         6.41937
     2012.41889        11.78848         6.78623
     2012.42162        -7.63033         6.43837
     2012.42436        -0.46214         6.33152
     2012.42710        -0.44695         6.36120
     2012.42984        -9.36976         6.33983
     2012.43258        -3.86657         6.39088
     2012.43531        -5.92938         6.44193
     2012.43805         2.24381         6.33626
     2012.44079       -15.03300         6.48229
     2012.44347       -16.17386         6.48704
     2012.44598        -4.67185         7.41546
     2012.44855        -9.96480         8.21209
     2012.45106         0.37221         9.51093
     2012.45448        -2.76605         6.36832
     2012.45687        -8.86514         7.54606
     2012.46087        10.23005        10.91899
     2012.46269        -1.01749         6.42175
     2012.46543        -7.20830         6.39919
     2012.46817        -8.72411         6.47755
     2012.47091        -2.00492         6.38019
     2012.47364        -0.38173         6.48586
     2012.47638        -4.27854         6.63426
     2012.47912         6.63465         6.57371
     2012.48186        -4.13016         6.67344
     2012.48459        -2.23197         6.37069
     2012.48733        -4.69178         6.32320
     2012.49007        -6.38259         6.30302
     2012.49281        -4.95940         6.42412
     2012.49543         2.42170         6.65444
     2012.49806        -9.26121         7.08066
     2012.50068        -3.60211         7.54131
     2012.50319        16.16590         8.94818
     2012.50576        -6.36805         9.55129
     2012.50827        -4.72304        12.99189
     2012.51197        -4.66708         6.49298
     2012.51448        -6.49007         7.01655
     2012.51705        -3.83902         7.69327
     2012.52019        -3.27351         6.56184
     2012.52292        -3.87032         6.45736
     2012.52566         2.41587         6.37069
     2012.52840        -2.85594         6.37069
     2012.53114         4.56825         6.60102
     2012.53388       -10.68856         6.90614
     2012.53644        -8.58251         7.05810
     2012.53901         4.13154         7.89985
     2012.54152        18.28055         8.98498
     2012.54409        -2.98540        10.18646
     2012.54665        10.59865        11.64795
     2012.54928        10.50975        15.33549
     2012.55298        -0.60328         6.39088
     2012.55555         8.41477         6.92395
     2012.55806         8.18878         7.92122
     2012.56063        -0.19317         8.66918
     2012.56319         1.93988         9.83029
     2012.56576         6.85893        11.81416
     2012.56833       -10.24001        16.98100
     2012.57209         7.68300         6.45974
     2012.57460        -3.45700         7.23025
     2012.57717         6.80506         8.19903
     2012.57974         6.27111         9.66408
     2012.58230       -10.37884        10.06299
     2012.58493        12.23826        11.81653
     2012.58749        14.74731        16.86346
     2012.64887         3.94039         6.34339
     2012.65160        12.12758         6.38969
     2012.65434        12.91777         6.49892
     2012.65708        21.21996         6.96312
     2012.65982         6.19515         6.67819
     2012.66256         4.47034         6.37544
     2012.66529         8.34053         6.44668
     2012.66803         5.01272         6.47398
     2012.67077         0.66591         6.45618
     2012.67351         4.89610         6.32914
     2012.67624         5.68229         6.39919
     2012.67898         6.03247         6.37188
     2012.68172         9.29766         6.34339
     2012.68446         1.38785         6.42293
     2012.68720         6.71204         6.36120
     2012.68993         9.84123         6.82303
     2012.69267         9.76642         6.72805
     2012.69541         6.98761         6.47161
     2012.69815         1.35480         6.42887
     2012.70089         1.28699         6.48704
     2012.70362         1.39018         6.42056
     2012.70636         4.83437         6.45736
     2012.70910        -1.22244         6.43599
     2012.71184         1.66275         6.35289
     2012.71457         8.12294         6.37069
     2012.71731         8.13613         6.35882
     2012.72005         8.05832         6.36001
     2012.72279         3.79650         6.29234
     2012.72553        11.32869         6.36001
     2012.72826         7.34788         6.42293
     2012.73100        10.46507         6.49298
     2012.73374        18.55626         6.75536
     2012.73648         4.56745         6.37663
     2012.73921         5.55564         6.39444
     2012.74195         8.37883         6.52978
     2012.74469         8.80902         6.58321
     2012.74743        10.07421         6.49892
     2012.75017         4.19440         6.59389
     2012.75290        10.48359         6.65919
     2012.75564         0.09678         6.34576
     2012.75838         2.27497         6.35882
     2012.76112         8.24716         6.34339
     2012.76386         5.36535         6.26384
     2012.76659         8.84153         6.41937
     2012.76933         5.56872         6.41462
     2012.77207         5.61091         6.52860
     2012.77481        -0.53690         6.39681
     2012.77754         4.00829         6.38494
     2012.78028        11.38948         6.58915
     2012.78302        20.20667         6.65682
     2012.78576         8.34486         6.55946
     2012.78850         3.36505         6.61645
     2012.79123        17.77524         6.93700
     2012.79397        15.34343         6.45618
     2012.79671         5.13162         6.49060
     2012.79945        15.84681         6.63901
     2012.80219        15.40800         6.70906
     2012.80492         2.56919         6.38969
     2012.80766         9.52937         6.55828
     2012.81040         9.73456         6.50248
     2012.81314         3.70875         6.46449
     2012.81587        -0.50706         6.41818
     2012.81861         1.22313         6.64376
     2012.82135         3.53432         6.57134
     2012.82409         3.94451         6.59508
     2012.82683        11.00770         6.71380
     2012.82956         8.77689        12.82924
     2012.83230         6.36308         6.46330
     2012.83504         0.56227         6.57609
     2012.83778         2.59846         6.45380
     2012.84052        -7.16235         6.57490
     2012.84325         3.88384         6.50960
     2012.84599         5.68803         6.72093
     2012.84873         9.93622         6.52860
     2012.85147         8.53540         6.65207
     2012.85420         0.44159         6.42768
     2012.85694         2.22678         6.51910
     2012.85968         2.53097         6.48704
     2012.86242        -0.95984         6.51079
     2012.86516        12.73835         6.62358
     2012.86789         2.23554         6.61883
     2012.87063        -0.45827         6.46449
     2012.87337        -0.60108         6.45974
     2012.87611        -3.66389         6.48111
     2012.87885         4.31830         6.47042
     2012.88158         6.71649         6.39325
     2012.88432        10.56668         6.59389
     2012.88706        -1.03813         6.64376
     2012.88980         9.91906         6.69006
     2012.89253        -3.42075         6.33389
     2012.89527         0.88543         6.42887
     2012.89801         1.29362         6.41818
     2012.90075        -0.72119         6.36357
     2012.90349        -4.29100         6.39325
     2012.90622        -0.85781         6.45736
     2012.90896         2.68638         6.51316
     2012.91170         1.90057         6.44430
     2012.91444         5.49476         6.42293
     2012.91718         7.72595         6.46567
     2012.91991        10.35314         6.43006
     2012.92265         1.42533         6.50841
     2012.92539         6.81752         6.35170
     2012.92813         5.15771         6.46330
     2012.93086        -0.96210         6.49417
     2012.93360         2.64609         6.48229
     2012.93634        -2.23072         6.41462
     2012.93908        -6.23354         6.33152
     2012.94182        -5.56635         6.37544
     2012.94455         4.24984         6.50960
     2012.94729        -1.76997         6.39206
     2012.95003        -1.58278         6.39681
     2012.95277        -0.42759         6.37188
     2012.95551         4.81160         6.36595
     2012.95824         7.06479         6.46092
     2012.96098         8.59298         6.52978
     2012.96372         4.11217         6.46330
     2012.96646         0.60536         6.29709
     2012.96919         3.00355         6.52266
     2012.97193        -2.48826         6.44193
     2012.97467         6.14793         6.34814
     2012.97689        -2.48429         8.24534
     2012.98015        -5.01769         6.37426
     2012.98288        -5.28851         6.30896
     2012.98562         2.50568         6.32914
     2012.98836        -0.54613         6.30302
     2012.99110         2.74606         6.25553
     2012.99384        -0.69775         6.28165
     2012.99657        -2.93356         6.35170
     2012.99931        -4.49437         6.27097
     2013.00205        -4.20518         6.26266
     2013.00479        -1.22199         6.35763
     2013.00752        -5.29780         6.30183
     2013.01026        -3.63061         6.30777
     2013.01186       -12.45633        15.32600
     2013.01848        -0.58304         6.44786
     2013.02121        -0.12585         6.35882
     2013.02395        -1.08766         6.48704
     2013.02669         2.64252         6.51435
     2013.02943        -2.75429         6.33033
     2013.03216        -7.19410         6.36951
     2013.03490        -9.58791         6.37069
     2013.03764       -10.41472         6.33864
     2013.04038       -10.43953         6.37188
     2013.04312       -10.97734         6.45261
     2013.04585        -8.35415         6.39206
     2013.04859        -8.48996         6.70193
     2013.05093       -10.51509         7.76569
     2013.05681        -7.12839         6.41343
     2013.05954        -9.19520         6.47280
     2013.06228         1.40499         6.68294
     2013.06502        -4.94182         6.50129
     2013.06776        -4.77263         6.40038
     2013.07049        -2.46345         6.46567
     2013.07323        -1.18326         6.45618
     2013.07597        -3.56907         6.37426
     2013.07871        -0.61788         6.34932
     2013.08145        -4.56769         6.36357
     2013.08418         0.02150         6.47042
     2013.08692        -5.81931         6.41106
     2013.08966        -8.63412         6.45736
     2013.09240        -4.32493         6.42768
     2013.09514        -4.85074         6.35407
     2013.09787        -5.74655         6.61408
     2013.10061        -0.99136         6.70312
     2013.10335        -6.94117         6.45736
     2013.10609        -4.64898         6.38850
     2013.10882        -4.55779         6.40038
     2013.11156       -11.96060         6.55590
     2013.11430        -9.33342         6.38969
     2013.11704        -8.74423         6.48586
     2013.11978        -2.99404         6.74586
     2013.12251        -8.22485         6.45499
     2013.12525       -13.76566         6.46092
     2013.12799        -4.58647         6.48467
     2013.13073         0.59972         6.43362
     2013.13347        -3.45509         6.47992
     2013.13620         1.40610         6.45380
     2013.13894        -0.95271         6.50010
     2013.14168        -1.69152         6.52622
     2013.14442         4.24067         6.74467
     2013.14715         1.38886         6.72805
     2013.14989        -6.57695         6.43243
     2013.15263        -4.81876         6.46567
     2013.15537       -14.18858         6.41937
     2013.15811       -12.99839         6.42175
     2013.16084       -11.02020         6.39563
     2013.16358       -10.62501         6.52266
     2013.16632       -12.78782         6.49654
     2013.16906        -5.96563         6.54047
     2013.17180        -8.32744         6.36357
     2013.17453        -7.53925         6.39444
     2013.17727        -5.33806         6.52622
     2013.18001        -5.71187         6.52266
     2013.18275        -9.26768         6.47280
     2013.18548        -6.03449         6.35645
     2013.18822        -8.53230         6.37426
     2013.19096        -6.83411         6.40512
     2013.19370       -11.25792         6.44786
     2013.19644        -6.77673         6.52147
     2013.19917         0.43645         6.55946
     2013.20191         0.25964         6.45499
     2013.20465         0.74883         6.46805
     2013.20739         0.78902         6.69243
     2013.21013        -7.51579         6.45143
     2013.21286        -3.94260         6.45380
     2013.21560         0.90359         6.57727
     2013.21834        -3.47522         6.43599
     2013.22108        -4.10703         6.37663
     2013.22381        -8.88584         6.40038
     2013.22655       -12.03865         6.33389
     2013.22929       -10.61546         6.36001
     2013.23203       -10.61227         6.36357
     2013.23477        -6.91908         6.36357
     2013.23750        -9.90689         6.54640
     2013.24024       -10.49270         6.49179
     2013.24298       -16.68252         6.50485
     2013.24572        -7.21133         6.55353
     2013.24846       -11.82314         6.49773
     2013.25119       -11.05695         6.53809
     2013.25393       -11.67076         6.72449
     2013.25667       -17.64457         6.80878
     2013.25941       -10.07938         6.55472
     2013.26214        -7.11719         6.71143
     2013.26488        -7.45700         6.55234
     2013.26762        -5.44681         6.60220
     2013.27036       -18.87862         6.43599
     2013.27310        -6.11943         6.94650
     2013.27583       -14.42624         6.71262
     2013.27857       -12.60305         6.67819
     2013.28131        -9.55586         6.70193
     2013.28405        -8.26167         6.57490
     2013.28679        -9.20549         6.58202
     2013.28952       -17.12630         6.40512
     2013.29226       -19.33311         6.45618
     2013.29500       -20.83092         6.55234
     2013.29774        -9.46473         6.61526
     2013.30047       -17.24854         6.83372
     2013.30321       -21.25935         6.59033
     2013.30595       -19.51816         6.53097
     2013.30869       -25.53597         6.53453
     2013.31143       -23.13078         6.55472
     2013.31416        -3.27859         6.52503
     2013.31690       -14.26940         6.67106
     2013.31964       -22.55821         6.69956
     2013.32238       -13.44102         6.59271
     2013.32512        -6.51183         6.66869
     2013.32785        -8.85164         6.59508
     2013.33059       -15.10146         6.54047
     2013.33333       -17.72027         6.59508
     2013.33607       -21.81408         6.51435
     2013.33880        -9.59589         6.54997
     2013.34154        -4.38370         6.74230
     2013.34428       -14.36251         6.57727
     2013.34702       -12.92032         6.66275
     2013.34958       -10.45327         7.21719
     2014.45585        -8.65362         6.61170
     2014.72416         3.85093         6.49179
     2014.83367         0.27251         6.44905
     2014.83641        -7.39530         6.54878
     2014.83915        -6.79811         6.57134
     2014.84188         2.51108         6.91089
     2014.84462        -1.64173         6.88477
     2014.84736         5.16746         6.85509
     2014.85010        -5.64235         6.65682
     2014.85284        -4.65017         6.57252
     2014.85557        -6.33298         6.82540
     2014.85831         0.33021         6.62476
     2014.86105       -10.94360         6.56065
     2014.86379       -15.90641         6.49060
     2014.86653        -8.89422         6.48823
     2014.86926        -9.78603         6.55234
     2014.87200        -8.46484         6.55115
     2014.87474       -11.89365         6.51672
     2014.87748       -12.21846         6.45499
     2014.88021       -10.84727         6.53335
     2014.88295        -6.51208         6.52503
     2014.88569       -11.80889         6.83965
     2014.88843        -5.42470         6.80641
     2014.89117        23.99249         7.73245
     2014.89390         7.47768         6.78504
     2014.89664         3.54786         6.63782
     2014.89938        -4.70695         6.73161
     2014.90212        -5.10676         6.74586
     2014.90485        -4.07057         6.77435
     2014.90759         1.78662         6.62714
     2014.91033         5.14281         6.64851
     2014.91307        -7.75800         6.37900
     2014.91581        -7.09781         6.42412
     2014.91854        -3.51162         6.39919
     2014.92128       -11.97243         6.40038
     2014.92402        -5.46824         6.38969
     2014.92676        -9.89505         6.46686
     2014.92950       -16.92786         6.61645
     2014.93223        -9.49867         6.54640
     2014.93497       -14.26148         6.54284
     2014.93771       -10.97630         6.59271
     2014.94045         5.94089         6.79097
     2014.94318        -2.01392         6.87527
     2014.94592        -6.34873         6.66157
     2014.94866       -13.26054         6.42768
     2014.95140       -18.50535         6.37782
     2014.95414        -8.98216         6.33270
     2014.95687        -5.69197         6.43480
     2014.95961         1.22122         6.40512
     2014.96235       -10.73659         6.35289
     2014.96509        -5.04540         6.50604
     2014.96783        -8.61121         6.44312
     2014.97056        -1.08602         6.65088
     2014.97330       -13.98783         6.52978
     2014.97604       -19.00164         6.41462
     2014.97878        -2.62245         6.46211
     2014.98151        -7.95127         6.50723
     2014.98425        -9.83608         6.39325
     2014.98699       -12.22489         6.40394
     2014.98973       -10.77970         6.49535
     2014.99247         2.34349         6.46567
     2014.99520       -19.83632         6.38494
     2014.99794       -13.05713         6.35882
     2015.00068       -10.04394         6.44430
     2015.00342       -15.78575         6.50010
     2015.00616       -17.91356         6.35526
     2015.00889       -13.92237         6.48348
     2015.01163       -13.07318         6.63545
     2015.01437       -10.49099         6.47280
     2015.01711       -14.57880         6.74230
     2015.01984       -13.84161         6.43480
     2015.02258        -8.23042         6.58202
     2015.02532        -5.46024         6.46092
     2015.02806       -12.20005         6.45024
     2015.03080        -8.66586         6.50010
     2015.03353       -16.60767         6.43480
     2015.03627       -12.75948         6.40750
     2015.03901       -13.49829         6.56303
     2015.04175        -1.02510         6.47398
     2015.04449        -9.53291         6.53097
     2015.04722         0.38328         6.70787
     2015.04996        -8.95653         6.46211
     2015.05270       -11.05934         6.40275
     2015.05544       -11.21415         6.33033
     2015.05817        -5.64896         6.57252
     2015.06091       -18.32277         6.39206
     2015.06365        -8.65958         6.97262
     2015.06639       -11.30939         6.46211
     2015.06913        -7.67721         6.39206
     2015.07186       -13.97702         6.36238
     2015.07460        -7.20983         6.43599
     2015.07734       -20.55464         6.39800
     2015.08008       -18.53045         6.34932
     2015.08282        -7.02326         6.40750
     2015.08555       -11.82707         6.35645
     2015.08829        -2.66688         6.45974
     2015.09103        -9.17269         6.34814
     2015.09377        -8.38550         6.30540
     2015.09650        -7.52431         6.55709
     2015.09924         3.24888         6.58915
     2015.10198        -4.48893         6.55709
     2015.10472        -6.78074         6.43480
     2015.10746        -6.10155         6.42175
     2015.11019       -11.21436         6.52622
     2015.11293       -12.60318         6.47398
     2015.11567       -13.73899         6.68769
     2015.11841       -11.87880         6.47873
     2015.12115        -9.64961         6.44074
     2015.12388       -13.65342         6.38732
     2015.12662       -14.98523         6.39088
     2015.12936       -13.35004         6.47992
     2015.13210       -11.27485         6.37188
     2015.13483       -10.65366         6.41937
     2015.13757       -11.12247         6.46686
     2015.14031       -15.80028         6.33983
     2015.14305       -12.75209         6.40631
     2015.14579       -14.86990         6.37544
     2015.14852        -9.50771         6.43599
     2015.15126       -13.44452         6.42412
     2015.15400       -11.70533         6.25909
     2015.15674       -10.49315         6.33508
     2015.15948        -0.04396         6.46092
     2015.16221       -10.53477         6.42175
     2015.16495        -8.54758         6.37188
     2015.16769        -8.77539         6.38019
     2015.17043       -11.20520         6.36832
     2015.17316       -12.28301         6.47636
     2015.17590        -9.29782         6.60695
     2015.17864        -5.82863         6.38613
     2015.18132        -7.47049         6.51554
     2015.18412        -4.61125         6.41818
     2015.18685        -6.82906         6.37426
     2015.18953       -17.40092         6.69956
     2015.19233        -6.17068         6.56540
     2015.19501       -13.40154         6.49535
     2015.19775         2.81565         6.62476
     2015.20049        -0.80816         6.55353
     2015.20328        -7.01393         6.39919
     2015.20596       -14.68678         6.79691
     2015.20876       -17.69555         6.44668
     2015.21149       -18.28036         6.30540
     2015.21418       -12.73921         6.76604
     2015.21691        -4.47502         6.73636
     2015.21965       -11.11684         6.61052
     2015.22239       -11.28965         6.54047
     2015.22513        -3.67146         6.66750
     2015.22786        -7.35627         6.57609
     2015.23060       -10.35708         6.58677
     2015.23334       -12.16889         6.77079
     2015.23608        -6.15170         6.98687
     2015.23882       -14.82351         6.91089
     2015.24155        -7.02432         6.90851
     2015.24429       -11.76813         7.07472
     2015.24703       -11.15494         6.68769
     2015.24977       -15.41575         6.55590
     2015.25250       -15.12356         6.43243
     2015.25524        -7.56437         6.57252
     2015.25798       -10.59918         6.47042
     2015.26072        -5.95799         6.46686
     2015.26346        -4.28081         6.54759
     2015.26619       -11.84462         6.50248
     2015.26893       -11.02843         6.50010
     2015.27167        -5.93924         6.81235
     2015.27441         8.38495         6.90732
     2015.27715        -7.49986         6.54403
     2015.27988        -9.09367         6.50010
     2015.28262         0.59152         6.53809
     2015.28536       -12.40229         6.67344
     2015.28810       -16.04210         6.64020
     2015.29083       -11.21791         6.52029
     2015.29357        -8.07772         6.60220
     2015.29631       -13.75453         6.58321
     2015.29905        -6.43634         6.55946
     2015.30179        -6.86915         6.68887
     2015.30452        -4.06996         6.55472
     2015.30726        -6.89578         6.43718
     2015.31000       -10.28559         6.54284
     2015.31274        -9.91940         6.35526
     2015.31548       -11.68621         6.46211
     2015.31821       -15.23802         6.30302
     2015.32101       -12.26478         6.32914
     2015.32369       -11.61864         6.51079
     2015.32643       -11.70745         6.53691
     2015.32916        -8.62026         6.51198
     2015.33190        -9.90807         6.47280
     2015.33470        -6.52184         6.37426
     2015.33744       -14.79365         6.20567
     2015.34012        -8.63450         6.57609
     2015.34285       -11.65531         6.32558
     2015.34559       -11.56412         6.34695
     2015.34833       -15.35394         6.45499
     2015.35107        -6.07775         6.43362
     2015.35381        -9.75956         6.34220
     2015.35654       -16.78037         6.31371
     2015.35928       -10.15418         6.45618
     2015.36202       -10.76199         6.41937
     2015.36481        -1.41675         6.35645
     2015.36749        -3.31461         6.45736
     2015.37023        -7.32242         6.30896
     2015.37297       -16.73623         6.36832
     2015.37571       -16.33004         6.30302
     2015.37845       -15.19985         6.66394
     2015.38118        -8.71466         6.41343
     2015.38392       -12.51447         6.28640
     2015.38666        -9.67628         6.47042
     2015.38940       -14.23509         6.57965
     2015.39214       -10.93991         6.51079
     2015.39487        -3.12472         6.45974
     2015.39761       -12.78053         6.42412
     2015.40035       -12.46534         6.46923
     2015.40309       -12.56815         6.52385
     2015.40582        -7.62296         6.46805
     2015.40856        -4.61777         6.63663
     2015.41130       -11.29358         6.41106
     2015.41404       -13.05839         6.33745
     2015.41678       -13.49420         6.35289
     2015.41951        -8.37101         6.36476
     2015.42225        -9.19482         6.26147
     2015.42499       -13.63963         6.50129
     2015.42773       -12.25544         6.55234
     2015.43047        -6.79725         6.30658
     2015.43320        -8.11006         6.37900
     2015.43594        -1.19688         6.42649
     2015.43868        -8.35269         6.35882
     2015.44147       -10.52445         6.65563
     2015.44421        -3.05626         6.35407
     2015.44689       -11.08912         6.26740
     2015.44963       -12.47093         6.28759
     2015.45237       -13.38674         6.42056
     2015.45511        -5.27155         6.33389
     2015.45784        -3.59636         6.69125
     2015.46058        -7.71217         6.51791
     2015.46332         1.98302         6.54047
     2015.46606        -0.97979         6.28403
     2015.46880        -2.90260         6.38732
     2015.47153        -5.01841         6.31846
     2015.47427       -17.58222         6.64732
     2015.47707        -9.32199         6.56184
     2015.47980        -4.38080         6.43480
     2015.48248        -9.50666         6.49179
     2015.48522        -7.51347         6.36832
     2015.48796        -2.63128         6.34932
     2015.49070        -6.29809         6.64376
     2015.49344         4.54110         6.79454
     2015.49617        -1.99771         6.76723
     2015.49891        -9.42152         6.58677
     2015.50165        -1.24833         6.68531
     2015.50439        -3.51314         6.44549
     2015.50713        -2.30495         6.67700
     2015.50986        -4.08476         6.51316
     2015.51260        -1.57157         6.54997
     2015.51534        -5.94538         6.52385
     2015.51808        -0.45419         6.82540
     2015.52081         3.06700         6.49892
     2015.52355        -4.30082         6.55709
     2015.52629        -2.63663         6.48704
     2015.52903        -0.45044         6.68056
     2015.53177         1.19975         6.46449
     2015.53450        -9.32706         6.60933
     2015.53724        -5.07987         6.72330
     2015.53998        -1.53768         6.55946
     2015.54272        -2.91549         6.52147
     2015.54545         1.57370         6.56065
     2015.54819        -2.63411         6.65088
     2015.55093        11.14908         6.59864
     2015.55367         5.32227         6.68175
     2015.55641         8.97546         6.49179
     2015.55914         2.30265         6.60695
     2015.56468        -2.60193         6.50248
     2015.56741        -0.91474         6.33389
     2015.57015         2.66445         6.56303
     2015.57289        -2.55236         6.54640
     2015.57563        -4.98617         6.45618
     2015.57837       -11.14198         6.38375
     2015.58110        -1.43279         6.42887
     2015.58384         1.09940         6.44668
     2015.58658         5.98259         6.35170
     2015.58932        -7.16822         6.77198
     2015.59206        20.13696         6.83490
     2015.59479        10.19315         6.46923
     2015.59753         0.37934         6.33626
     2015.60027        -1.42347         6.52622
     2015.60301        10.00972         6.71855
     2015.60574        -0.43909         6.60458
     2015.60848         3.97510         6.51198
     2015.61122        -0.93271         6.35526
     2015.61396         0.56148         6.45380
     2015.61670        -7.16333         6.58796
     2015.61943         0.29986         6.37426
     2015.62217        -0.61795         6.44312
     2015.62491         3.31524         6.30540
     2015.62765         1.73343         6.28403
     2015.63039         1.32662         6.26147
     2015.63312         7.23981         6.81353
     2015.63586         6.34599         6.51198
     2015.63860        -3.23382         6.26266
     2015.64134         7.20137         6.24841
     2015.64407        -2.74244         6.47042
     2015.64681        -2.11925         6.43480
     2015.64955        -0.96006         6.33983
     2015.65229        -4.26387         6.36713
     2015.65503        15.75332         6.30065
     2015.65776         5.29351         6.55828
     2015.66050         9.11270         6.44312
     2015.66324        12.98389         6.37069
     2015.66598        -0.28692         6.75536
     2015.66872        13.75527         6.78623
     2015.67145         5.37946         6.27809
     2015.67419         4.12665         6.23654
     2015.67693         6.55283         6.28165
     2015.67967         8.67402         6.56778
     2015.68240        -2.79879         6.36001
     2015.68514         0.48540         6.30777
     2015.68788         3.87959         6.34101
     2015.69062         0.47578         6.29352
     2015.69336        -4.50903         6.50723
     2015.69609         2.14716         6.29827
     2015.69883        12.21435         6.60933
     2015.70157         0.60154         6.28640
     2015.70431        -1.90527         6.42531
     2015.70705         3.01792         6.21517
     2015.70978        -0.13489         6.28640
     2015.71252         0.23730         6.31371
     2015.71526         3.22349         6.31133
     2015.71800        16.22568         6.53691
     2015.72073        16.11886         6.58915
     2015.72347        -2.68795         6.36832
     2015.72621        -1.47576         6.36832
     2015.72895        -6.45057         6.30302
     2015.73169         4.00962         6.38138
     2015.73442         2.10781         6.39800
     2015.73716         2.42000         6.38494
     2015.73990         4.14719         6.46686
     2015.74264        -3.81962         6.36476
     2015.74538         5.66357         6.54640
     2015.74811        -2.64424         6.53691
     2015.75085        -4.73805         6.36357
     2015.75359        -0.88386         6.59746
     2015.75633        -1.36167         6.32439
     2015.75906         0.93252         6.30183
     2015.76180        -0.81429         6.30065
     2015.76454         5.82289         6.34695
     2015.76728        -6.86392         6.35051
     2015.77002        -1.54073         6.49773
     2015.77275        14.95746         6.47042
     2015.77549         9.48865         6.62358
     2015.77823         1.89384         6.29709
     2015.78097        -3.36797         6.41700
     2015.78371         1.72522         6.38732
     2015.78644        -0.71659         6.24841
     2015.78918        -2.78140         6.36357
     2015.79192         1.08379         6.27928
     2015.79466         1.30698         6.22348
     2015.79739        -2.60383         6.31727
     2015.80013        -5.64764         6.67819
     2015.80287        -4.47845         6.35763
     2015.80561        -4.32726         6.37663
     2015.80835        -7.68808         6.26503
     2015.81108       -11.09689         6.29352
     2015.81382        -1.35370         6.48823
     2015.81656        -0.89551         6.28996
     2015.81930        -7.96732         6.22229
     2015.82203        -4.44113         6.28640
     2015.82477        -5.10394         6.32914
     2015.82751        -0.93675         6.63663
     2015.83025         5.30644         6.67225
     2015.83299         5.67663         6.45380
     2015.83572        -6.55518         6.40156
     2015.83846        -5.66599         6.40631
     2015.84120       -11.39280         6.38019
     2015.84394        -8.04661         6.53216
     2015.84668        -8.43242         6.49535
     2015.84941        -1.97123         6.44312
     2015.85215        -2.15205         6.45143
     2015.85763        -4.91267         6.43599
     2015.86031        -8.47252         6.81709
     2015.86310        -0.22129         6.57609
     2015.86584         0.29590         6.57965
     2015.86858        -0.69091         6.52029
     2015.87132         1.16528         6.67225
     2015.87405        -8.54053         6.47517
     2015.87679        -8.04234         6.62120
     2015.87953        -1.50815         6.64969
     2015.88227        -5.22296         6.38850
     2015.88501       -14.62077         6.45380
     2015.88774       -11.53158         6.52741
     2015.89048        -2.62439         6.45499
     2015.89322        -5.72920         6.49892
     2015.89596        -7.49702         6.41818
     2015.89869        -0.79983         6.48823
     2015.90143       -13.37864         6.39444
     2015.90417       -17.92245         6.42293
     2015.90691       -13.28026         6.37900
     2015.90965       -10.04307         6.32439
     2015.91238       -11.19888         6.40631
     2015.91512        -9.22469         6.48348
     2015.91786       -12.70450         6.54284
     2015.92060         0.75769         6.54166
     2015.92334       -14.39512         6.92395
     2015.92607        -9.62893         6.58083
     2015.92881       -20.18674         7.18632
     2015.93155       -11.45555         6.75298
     2015.93429         6.05064         7.04504
     2015.93702        -4.30617         6.79097
     2015.93976         0.89101         6.84321
     2015.94250        -8.48680         6.65682
     2015.94524        -5.31661         6.56303
     2015.94798        -1.69542         6.70431
     2015.95071        -2.09023         6.45380
     2015.95345       -12.81504         6.48467
     2015.95619       -13.38585         6.44668
     2015.95893       -13.62866         6.69481
     2015.96167        -1.36547         6.62239
     2015.96440        -8.38128         6.41106
     2015.96714         0.19891         6.57490
     2015.96988        -4.73990         6.45618
     2015.97262         7.39329         6.44430
     2015.97535         0.80948         6.40512
     2015.97809        -6.54533         6.62595
     2015.98083       -10.67114         6.42649
     2015.98357       -16.72696         6.45261
     2015.98631       -16.77377         6.42056
     2015.98904       -11.33158         6.38732
     2015.99178       -12.75839         6.45618
     2015.99452       -12.20820         6.47280
     2015.99726       -14.68201         6.45855
     2016.00000       -15.79682         6.50960
     2016.00273       -16.27063         6.47398
     2016.00547       -12.95344         6.50485
     2016.00821        -5.68725         6.48586
     2016.01095        -3.60206         6.50366
     2016.01368        -8.92787         6.96431
     2016.01642       -10.24268         6.68769
     2016.01916       -13.82149         6.72212
     2016.02190        -5.84030         6.48942
     2016.02464       -10.75312         6.58202
     2016.02737       -14.78593         6.60933
     2016.03011       -12.08874         6.51672
     2016.03285        -6.55055         6.34932
     2016.03559        -9.67236         6.32795
     2016.03833       -11.37717         6.47161
     2016.04106        -8.80098         6.51554
     2016.04380        -1.20079         6.38494
     2016.04654        -0.75060         6.42768
     2016.04928       -11.91841         6.33745
     2016.05201       -11.60522         6.39088
     2016.05475         3.10697         6.67819
     2016.05749        -6.16384         6.45143
     2016.06023        -7.85865         6.39919
     2016.06297       -12.57446         6.29827
     2016.06570       -14.86127         6.48229
     2016.06844       -17.68709         6.59152
     2016.07118       -17.51790         6.57727
     2016.07392        -6.33371         6.62832
     2016.07666        -7.10752         6.63426
     2016.07939         3.59067         6.49417
     2016.08213       -13.11814         6.59864
     2016.08487       -12.82895         6.43124
     2016.08761       -20.97876         6.54759
     2016.09034       -16.69657         6.54522
     2016.09308       -10.32138         6.54759
     2016.09582       -19.99619         6.52978
     2016.09856       -14.98500         6.54284
     2016.10130       -22.98781         6.62951
     2016.10403       -29.48062         6.47042
     2016.10677       -25.22043         6.39681
     2016.10951       -20.09224         6.50248
     2016.11225       -18.46106         6.53097
     2016.11498       -14.12687         6.58321
     2016.11772       -20.89568         6.59864
     2016.12046       -13.86249         6.40987
     2016.12320       -20.87530         6.61883
     2016.12594       -15.36711         6.65682
     2016.12867       -10.15192         6.51079
     2016.13141        -4.32873         6.54878
     2016.13415        -7.76554         6.47873
     2016.13689       -10.12535         6.47992
     2016.13963       -16.45816         6.54522
     2016.14236       -24.40197         6.47517
     2016.14510       -23.14578         6.34695
     2016.14784       -22.50059         6.45380
     2016.15058       -12.64840         6.33270
     2016.15331       -19.95321         6.45736
     2016.15605       -20.19203         6.46449
     2016.15879       -13.42484         6.70668
     2016.16153       -10.49565         6.69243
     2016.16427       -12.29346         6.60220
     2016.16700       -17.72927         6.60220
     2016.16974       -16.77208         6.57609
     2016.17248       -15.77989         6.59389
     2016.17522       -13.78070         6.55709
     2016.17796         0.37949         6.79335
     2016.18069        -9.84232         6.61883
     2016.18343       -18.27213         6.67106
     2016.18617       -12.88094         6.39563
     2016.18891        -5.79275         6.47992
     2016.19164       -12.15656         6.27453
     2016.19438        -0.54037         6.34458
     2016.19712        -7.69618         6.44430
     2016.19986        -8.72900         6.45024
     2016.20260       -17.00781         6.59627
     2016.20533       -20.81962         6.60220
     2016.20807       -13.45343         6.60695
     2016.21629       -17.43986         6.33745
     2016.21902       -12.15867         6.35407
     2016.22176       -10.09848         6.32202
     2016.22450       -15.65229         6.31133
     2016.22724       -14.00010         6.44193
     2016.22997       -14.68891         6.38138
     2016.23271       -15.92372         6.35645
     2016.23545       -13.63453         6.41700
     2016.23819       -17.88134         6.28640
     2016.24093       -18.25815         6.43124
     2016.24366       -12.36697         6.31252
     2016.24640        -9.75778         6.36476
     2016.24914       -14.76559         6.35051
     2016.25188        -3.43540         6.50366
     2016.25462       -16.64721         6.42056
     2016.25735       -11.96802         6.43243
     2016.26009       -11.87983         6.37307
     2016.26283       -16.87264         6.52741
     2016.26557       -17.75545         6.38138
     2016.26830       -13.37926         6.36120
     2016.27104       -12.55907         6.35526
     2016.27378       -11.27288         6.39681
     2016.27652       -11.66169         6.39444
     2016.27926        -5.74650         6.50604
     2016.28199       -15.28731         6.56065
     2016.28473       -13.27012         6.39088
     2016.28747       -17.23894         6.32320
     2016.29021       -19.27975         6.37188
     2016.29295       -25.58056         6.32677
     2016.29568       -19.41937         6.37900
     2016.29842       -14.36918         6.52622
     2016.30116       -15.26999         6.46567
     2016.30390       -13.66580         6.62001
     2016.30658        -9.38466         6.57609
     2016.30942       -18.40438         6.45499
     2016.31211       -14.11023         6.41106
     2016.31485       -11.29404         6.38257
     2016.31759       -10.51385         6.37663
     2016.32032       -17.66866         6.34576
     2016.32306       -22.43147         6.35170
     2016.32580       -19.61028         6.40156
     2016.32854       -19.77609         6.40275
     2016.32996       -40.93695       135.57849
     2016.33480        -4.72209         9.67951
     2016.33675       -15.67553         6.39563
     2016.33949        -9.28334         6.54878
     2016.34223       -16.17815         6.48111
     2016.34496       -10.87396         6.54640
     2016.34770       -12.46277         6.60577
     2016.35044        -4.10958         6.72212
     2016.35318       -14.15039         6.51435
     2016.35592       -22.05020         6.44549
     2016.35865       -24.56801         6.33389
     2016.36139       -18.94982         6.31133
     2016.36413        -7.16863         6.38494
     2016.36687        -8.35844         6.44430
     2016.36961        -7.50325         6.43006
     2016.37234        -2.65706         6.34339
     2016.37508        -7.27988         6.38375
     2016.37782       -16.19769         6.47517
     2016.38056        -7.94650         6.44074
     2016.38329       -11.38131         6.30183
     2016.38603       -11.91412         6.33508
     2016.38877         1.12307         6.29115
     2016.39151       -10.00474         6.52029
     2016.39425       -13.41955         6.37188
     2016.39698       -10.45436         6.27453
     2016.39972        -9.13517         6.50723
     2016.40246       -11.27998         6.45143
     2016.40520        -7.08579         6.45855
     2016.40794       -21.34860         6.39919
     2016.41067       -16.05341         6.50960
     2016.41341       -20.90822         6.29352
     2016.41615       -26.02404         6.46449
     2016.41889       -14.82485         6.65326
     2016.42162        -9.02466         6.49892
     2016.42436       -19.25547         6.52385
     2016.42710       -14.47028         6.39206
     2016.42984       -23.95009         6.38613
     2016.43258        -2.77390         6.40750
     2016.43531        -0.88771         6.47280
     2016.43805        -0.29252         6.54522
     2016.44079        -7.22133         6.56659
     2016.44353       -13.60514         6.45736
     2016.44626       -14.93895         6.46805
     2016.44900       -11.59076         6.53453
     2016.45174        -0.88457         6.44312
     2016.45448        -3.58438         6.41937
     2016.45722        -9.95919         6.35526
     2016.45995        -9.31201         6.28521
     2016.46269        -8.68982         6.49417
     2016.46543        -6.93863         6.29471
     2016.46817       -12.37644         6.50129
     2016.47091       -12.18125         6.40750
     2016.47364        -4.46006         6.51435
     2016.47638        -2.67587         6.64138
     2016.47912         1.67032         6.61289
     2016.48186        -9.96249         6.40869
     2016.48459       -19.27130         6.35051
     2016.48733       -11.48311         6.42293
     2016.49007       -12.27692         6.27572
     2016.49281        -2.60473         6.48586
     2016.49555       -12.87954         6.43006
     2016.49828        -8.47135         6.63070
     2016.50102       -10.52916         6.51435
     2016.50376         8.53602         6.81472
     2016.50650        -9.82879         6.49535
     2016.50924        -8.73860         6.40750
     2016.51197       -10.14741         6.34814
     2016.51471       -11.51122         6.44193
     2016.51745        -7.57203         6.49654
     2016.52019       -10.78084         6.48229
     2016.52292        -8.81865         6.33983
     2016.52566        -5.07946         6.30540
     2016.52840       -14.39827         6.46923
     2016.53114       -17.97408         6.27453
     2016.53388       -18.35489         6.22823
     2016.53661        -9.21570         6.53809
     2016.53935       -10.59351         6.31489
     2016.54209        -4.83732         6.40869
     2016.54483        -2.07413         6.31846
     2016.54757       -13.96195         6.38019
     2016.55030        -7.36776         6.48467
     2016.55304        -4.86157         6.41106
     2016.55578       -10.21538         6.72924
     2016.55852        -9.22319         6.31846
     2016.56125       -12.08400         6.22585
     2016.56399        -3.28581         6.29352
     2016.56673        -9.21562         6.42768
     2016.56947        -9.71743         6.55472
     2016.57221        -7.39324         6.21279
     2016.57494        -9.99005         6.59033
     2016.57768        -9.67886         6.57846
     2016.58042        -8.34867         6.34695
     2016.58316       -10.16448         6.31015
     2016.58590         0.75371         6.35407
     2016.58863        -1.26010         6.33626
     2016.59137       -13.11292         6.25553
     2016.59411        -6.34973         6.22229
     2016.59685        -5.31754         6.32202
     2016.59958        -9.13335         6.36001
     2016.60232       -10.19916         6.27690
     2016.60506       -11.71797         6.28284
     2016.60780       -10.98578         6.21279
     2016.61054       -13.63859         6.23416
     2016.61327       -13.14040         6.24841
     2016.61601        -4.67721         6.25553
     2016.61875        -7.65202         6.31964
     2016.62149        -7.97083         6.39206
     2016.62423        -5.55864         6.37900
     2016.62696       -11.94145         6.31371
     2016.62970        -7.62726         6.35289
     2016.63244       -10.23507         6.36238
     2016.63518        -9.07289         6.22348
     2016.63791        -0.67470         6.34576
     2016.64065         6.55649         6.35645
     2016.64339        -8.81132         6.16649
     2016.64613        -5.45213         6.30777
     2016.64887       -13.81994         6.31608
     2016.65160        -6.76075         6.34932
     2016.65434        -7.90156         6.47992
     2016.65708        -8.74837         6.43124
     2016.65982       -16.31118         6.39800
     2016.66256        -3.40199         6.42293
     2016.66529        -1.81280         6.38375
     2016.66803       -11.99661         6.63901
     2016.67077       -12.47442         6.43718
     2016.67351        -5.76623         6.23891
     2016.67624        -4.50904         6.34101
     2016.67898        -5.96486         6.19498
     2016.68172         1.70433         6.35170
     2016.68446        -2.72248         6.59864
     2016.68720        -0.88229         6.81235
     2016.68993        -4.59710         6.38613
     2016.69267        -7.22691         6.33983
     2016.69541        -8.55872         6.63663
     2016.69815         4.94547         6.23060
     2016.70089        -3.93334         6.24841
     2016.70362        -2.63215         6.39088
     2016.70636        -4.11396         6.74586
     2016.70910        -6.08777         6.62476
     2016.71184        -5.13458         6.45499
     2016.71457        -4.98439         6.34576
     2016.71731        -6.22220         6.34339
     2016.72005        -6.05201         6.28640
     2016.72279        -0.74883         6.16768
     2016.72553        -5.64264         6.46330
     2016.72826         0.07155         6.80878
     2016.73100        -4.86426         6.31846
     2016.73374        -7.81807         6.21873
     2016.73648       -11.16588         6.18905
     2016.73921         0.69031         6.45736
     2016.74195         2.74650         6.39325
     2016.74469        -1.55831         6.49892
     2016.74743         6.28988         6.39919
     2016.75017         4.87307         6.41106
     2016.75290        -5.94674         6.16174
     2016.75564        -1.47855         6.32795
     2016.75838         0.16664         6.18786
     2016.76112        -0.11717         6.78504
     2016.76386        -5.70399         6.16055
     2016.76659        -8.96580         6.67106
     2016.76933         3.35239         6.37900
     2016.77207         2.98658         6.59271
     2016.77481        -3.77323         6.32439
     2016.77754        -7.48204         6.14631
     2016.78028        -9.33985         6.15818
     2016.78302        -4.35266         6.35407
     2016.78576         5.00253         6.77792
     2016.78850         7.67572         6.49654
     2016.79123         0.55291         6.40631
     2016.79397         1.20910         6.62714
     2016.79671         1.91929         6.28403
     2016.79945       -13.87552         6.27928
     2016.80219        -7.23433         6.78385
     2016.80492       -12.28914         6.29827
     2016.80766        -8.92996         6.55234
     2016.81040       -11.08277         6.19142
     2016.81314        -7.71558         6.47636
     2016.81587        -7.45239         6.41581
     2016.81861       -11.76620         6.58202
     2016.82135        -3.07901         6.28996
     2016.82409        -8.98282         6.12138
     2016.82683        -7.81363         6.30777
     2016.82956        -3.68044         6.47755
     2016.83230        -4.68225         6.48942
     2016.83504        -3.00006         6.50010
     2016.83778       -10.04087         6.63070
     2016.84052       -14.78368         6.28759
     2016.84325       -13.88549         6.33745
     2016.84599        -4.70830         6.33270
     2016.84873        -2.24611         6.44668
     2016.85147        -8.51493         6.26503
     2016.85420        -7.26074         6.32914
     2016.85694        -7.24055         6.27572
     2016.85968       -13.60136         6.63545
     2016.86225        -7.61730         6.76842
