# ================= DQRFIT RESULTS ================
# INPUT FILE: series/BASQ.rad
# OUTPUT: LDETRENDED
# FILTER FUNCTION: f(t)
# f(t)=+line(t)+annual(t)
# line(t)=+P 1+P 2*t
# annual(t)=+P 3*sin(2*pi*t+P 4)
# heav(t)=(t<0?0:1)
# TOTAL OBSERVATIONS MTOT= 1100
# INITIAL TIME INTERVAL= 2022.7488 - 2019.6660 =  3.0828
# TOTAL OBSERVATIONS AFTER PREFILTER M= 1100
# TIME-SPAN= 2022.7488 - 2019.6660 =  3.0828
# OBSERVATIONS: USED M=  1100 REJECTED MTOT-M=     0 %USED=  100.0000
# N=  4 PARAMETERS
# MAXSIG= 175.00000
# MAXRES=  44.31947
# SCALE FACTOR FOR LENGTHS: SCL=  10.00000
# SCALE FACTOR FOR SIGMAS: SCLSIG=   1.00000
# CHI^2=    802.951 DOF=  1096 CHI^2/DOF=   0.73262
# RMS=      5.066 SDEV=      5.068 MEAN=    0.04153
#  P #       PARAMETER +-    SIGMA %error PARAMETER NAME
# P 1 =     -1224.66296 +-  339.111  27.69 YZERO                              
# P 2 =         0.60810 +-    0.168  27.59 SLOPE                              
# P 3 =         2.81448 +-    0.204   7.25 ANNUAL AMPLITUDE                   
# P 4 =        -3.12186 +-    0.102   3.28 ANNUAL PHASE                       
#       T            LDETRENDED       SIG_OBS
     2019.66598         0.95015         4.75470
     2019.66872         2.93748         4.72731
     2019.67145         5.54182         4.72560
     2019.67419         7.22115         4.78124
     2019.67693         1.14949         4.96869
     2019.67915        -2.35387         6.26628
     2019.68240        -1.25784         4.78124
     2019.68514         2.91149         4.84543
     2019.68788         7.51183         4.81890
     2019.69062         3.20616         4.81719
     2019.69336        -1.64150         4.75813
     2019.69609        -0.77417         4.61176
     2019.69883        -0.05283         4.69736
     2019.70157         2.91050         4.69907
     2019.70431         1.32084         4.69051
     2019.70705         0.26817         4.71362
     2019.70978        -0.68349         4.67425
     2019.71252         3.69484         4.66397
     2019.71526         6.21918         4.66825
     2019.71800         2.57151         4.87368
     2019.72073         1.53485         4.87197
     2019.72347         1.56518         4.65028
     2019.72621        -2.63248         4.65969
     2019.72895         1.25185         4.66055
     2019.73169         2.43619         4.65627
     2019.73442         6.76852         4.68024
     2019.73665       -14.47083         6.09081
     2019.73990         4.73919         4.88908
     2019.74264         2.66353         4.74614
     2019.74538         2.70786         4.62032
     2019.74811         3.21920         4.75128
     2019.75085         1.75953         4.77696
     2019.75359         0.31887         4.85228
     2019.75633        -5.52580         4.76155
     2019.75906         2.65554         4.63915
     2019.76180        -1.18213         4.61433
     2019.76454        -1.26079         4.65969
     2019.76728        -0.11846         4.76583
     2019.77002        -4.65712         4.73844
     2019.77275         0.02122         4.85998
     2019.77549         0.59655         4.75214
     2019.77823         2.14489         4.80520
     2019.78097         4.41322         4.77696
     2019.78371         0.64656         4.75984
     2019.78644         1.02989         4.83773
     2019.78918         0.65623         4.83088
     2019.79192        12.77156         4.86683
     2019.79466         8.17390         4.81205
     2019.79739         3.15123         4.78808
     2019.80013         5.34757         4.82917
     2019.80230         0.28725         6.44603
     2019.80561         1.51224         4.90021
     2019.80835        -1.42743         4.77953
     2019.81108         1.25091         4.76583
     2019.81382         3.18424         4.76412
     2019.81656         8.86758         4.81205
     2019.81930         3.74391         4.77439
     2019.82203         1.06925         4.78637
     2019.82477        -1.07242         4.77011
     2019.82751        -0.91508         4.69564
     2019.83025         1.05425         4.82489
     2019.83299         2.95659         4.88224
     2019.83572         1.18692         4.74614
     2019.83846         2.79326         4.71704
     2019.84120         2.54559         4.72303
     2019.84394         1.30593         4.85656
     2019.84668        -0.73774         4.68794
     2019.84941        -0.34940         4.68024
     2019.85215         2.86793         4.68109
     2019.85489        -0.53273         4.71447
     2019.85763        -0.22940         4.70420
     2019.86036         0.78994         4.72560
     2019.86310         3.15427         4.71533
     2019.86584         9.90261         4.81291
     2019.86858         4.80394         4.68366
     2019.87132         2.24928         4.76497
     2019.87405         1.05061         4.72475
     2019.87679         3.66395         4.82660
     2019.87953         6.95128         4.71191
     2019.88227        15.23962         4.77439
     2019.88501        13.34895         4.70164
     2019.88774         9.50129         4.83944
     2019.89048        10.94562         4.73502
     2019.89322         9.87196         4.69650
     2019.89596         5.44429         4.72903
     2019.89869        10.97163         4.74529
     2019.90143         8.41097         4.73587
     2019.90417         9.26730         4.78808
     2019.90691         5.45864         4.75641
     2019.90965         2.19697         4.76326
     2019.91238         5.98431         4.77525
     2019.91512         6.02164         4.80948
     2019.91786        -1.85202         4.85314
     2019.92060         0.46331         4.83174
     2019.92334         7.92065         4.80435
     2019.92607         5.37698         4.81462
     2019.92881         4.04432         4.78038
     2019.93155         4.70765         4.90449
     2019.93429         5.11999         4.82232
     2019.93702         2.69532         4.72988
     2019.93976         0.58566         4.82403
     2019.94250         2.01499         4.83602
     2019.94524        -2.23567         4.83944
     2019.94798         0.24366         4.79322
     2019.95071         8.50900         5.00121
     2019.95345         5.96633         4.78209
     2019.95619        -0.51133         4.80092
     2019.95893        -4.52900         4.72560
     2019.96167         0.08234         4.73930
     2019.96440         0.98967         4.85913
     2019.96714        -4.33799         4.85570
     2019.96988        -0.46466         4.77610
     2019.97262         5.50368         4.76412
     2019.97535         5.04201         4.79322
     2019.97809        -3.95665         4.72817
     2019.98083         1.89468         4.76669
     2019.98357        -0.44298         4.75470
     2019.98631         0.75335         4.78723
     2019.98904        -0.73531         4.79493
     2019.99178         0.79902         4.72389
     2019.99452        -1.37264         4.77268
     2019.99726         3.39069         4.77525
     2020.00000        13.98903         4.80863
     2020.00273         2.60736         4.85656
     2020.00547        -0.33630         4.95499
     2020.00821         1.01903         4.96954
     2020.01095        -1.61763         4.89593
     2020.01368        -5.71130         4.90192
     2020.01642        -1.53196         4.81719
     2020.01916        -1.94763         4.81205
     2020.02190        -2.30629         4.89336
     2020.02464        -5.63496         4.85314
     2020.02737        -5.39062         4.80777
     2020.03011        -3.22029         4.79322
     2020.03285        -6.92295         4.80092
     2020.03559        -3.25561         4.61262
     2020.03833        -1.37928         4.60663
     2020.04106        -1.00594         4.78380
     2020.04380        -4.75461         4.77696
     2020.04654        -1.85627         4.68024
     2020.04928        -5.22394         4.61262
     2020.05201        -1.45060         4.65028
     2020.05475         0.92073         4.61262
     2020.05749        -5.53893         4.64086
     2020.06023         0.32940         4.65798
     2020.06297        -6.53526         4.68195
     2020.06570         1.59907         4.60491
     2020.06844        -1.54159         4.68366
     2020.07118         2.63274         4.71447
     2020.07392        -0.53492         4.68794
     2020.07666        -4.61059         4.66226
     2020.07939        -1.69525         4.62717
     2020.08213        -0.21992         4.68623
     2020.08487         0.00142         4.68195
     2020.08761         1.01375         4.69736
     2020.09034         3.58709         4.68880
     2020.09308         1.86842         4.69992
     2020.09582         1.75976         4.68195
     2020.09856        -8.36391         4.68280
     2020.10130        -5.00057         4.73930
     2020.10403         1.17176         4.77953
     2020.10677        -2.69190         4.69308
     2020.10951        -5.08257         4.66740
     2020.11225        -5.43523         4.62203
     2020.11498        -0.07590         4.69650
     2020.11772        -2.42056         4.79750
     2020.12046        -2.71723         4.84372
     2020.12320        -5.70789         4.68794
     2020.12594        -7.36156         4.70677
     2020.12867        -7.19122         4.70164
     2020.13141        -4.20289         4.70591
     2020.13415        -2.41955         4.68537
     2020.13689        -2.38622         4.76497
     2020.13963        -0.47488         4.75556
     2020.14236        -2.01755         4.70335
     2020.14510         4.89479         4.78295
     2020.14784        -2.89888         4.79408
     2020.15058        -4.68254         4.75727
     2020.15331        -8.51721         4.75556
     2020.15605        -6.81787         4.69479
     2020.15879        -1.66854         4.69650
     2020.16153         0.65580         4.77439
     2020.16427         0.71014         4.71019
     2020.16700         1.05047         4.72303
     2020.16974        -0.00819         4.71447
     2020.17248         0.18314         4.69479
     2020.17522         0.67248         4.59636
     2020.17796         4.78181         4.68537
     2020.18069         3.20515         4.63145
     2020.18343        -0.65252         4.60491
     2020.18617        -4.35718         4.64429
     2020.18891        -1.85485         4.73930
     2020.19164        -0.62151         4.76497
     2020.19438        -1.92018         4.73330
     2020.19712        -2.48084         4.75214
     2020.19986        -3.02551         4.80435
     2020.20260        -0.35517         4.71704
     2020.20533        -4.03684         4.74443
     2020.20807        -0.49950         4.76925
     2020.21081        -2.64217         4.73502
     2020.21355        -0.62183         5.10906
     2020.21629        -3.79150         4.93958
     2020.21902        -3.21216         4.80777
     2020.22176        -1.18983         4.70249
     2020.22450         1.25751         4.80178
     2020.22724        -0.63216         4.75641
     2020.22997         0.75618         4.72303
     2020.23271         0.88851         4.70934
     2020.23545         0.99285         4.83944
     2020.23819         0.49918         4.74786
     2020.24093        -1.34248         4.71105
     2020.24366        -2.87515         4.68708
     2020.24640        -3.93081         4.78894
     2020.24914       -11.52448         4.74015
     2020.25188        -1.24614         4.79322
     2020.25462        -2.76181         4.75128
     2020.25735         1.92753         4.73930
     2020.26009         7.59786         4.78637
     2020.26283         3.15920         4.73587
     2020.26557        -2.86747         4.65884
     2020.26830        -1.14113         4.78637
     2020.27104         0.00620         4.71790
     2020.27378        -3.00646         4.71790
     2020.27652         0.27187         4.73758
     2020.27926         4.87621         4.75984
     2020.28199        -2.76646         4.79408
     2020.28473        -4.33112         4.76669
     2020.28747        -3.62579         4.79836
     2020.29021        -0.53045         4.75299
     2020.29295        -2.25411         4.74358
     2020.29568         4.55722         4.74957
     2020.29842         2.47356         4.79236
     2020.30116         4.41989         4.77610
     2020.30390         2.18923         4.75727
     2020.30663         0.45356         4.73502
     2020.30937        -1.82810         4.90107
     2020.31211        -2.05677         4.82575
     2020.31485         1.01457         4.77525
     2020.31759        -0.55910         4.69992
     2020.32032        -4.99776         4.66055
     2020.32306        -4.01943         4.65456
     2020.32580        -3.11509         4.61861
     2020.32854        -2.83176         4.79921
     2020.33128        -1.20342         4.67510
     2020.33401        -0.63509         4.65028
     2020.33675         2.86925         4.64258
     2020.33949        -1.49542         4.64771
     2020.34223        -1.87708         4.73502
     2020.34496        -5.59975         4.81291
     2020.34770        -5.28641         4.63830
     2020.35044        -2.49608         4.71019
     2020.35318        -8.23174         4.73159
     2020.35592        -1.49841         4.70164
     2020.35865        -2.15707         4.61519
     2020.36139        -0.43174         4.78637
     2020.36413        -1.86040         4.64600
     2020.36687        -6.40007         4.70763
     2020.36961         0.75427         4.72817
     2020.37234         0.27360         4.62974
     2020.37508         1.45994         4.73844
     2020.37782         0.18927         4.74957
     2020.38056        -4.90639         4.66397
     2020.38329        -4.88006         4.66740
     2020.38603        -2.21572         4.66825
     2020.38877        -2.72639         4.79921
     2020.39151        -3.72905         4.67681
     2020.39425        -5.21172         4.70506
     2020.39698        -3.17238         4.69479
     2020.39972        -1.65505         4.69051
     2020.40246        -1.63171         4.64857
     2020.40520        -1.32638         4.75299
     2020.40794       -11.32404         4.82318
     2020.41067        -3.96471         4.75727
     2020.41341         0.23763         4.73330
     2020.41615        -3.94804         4.66654
     2020.41889        -5.89370         4.68280
     2020.42162        -6.48437         4.73758
     2020.42436         0.29297         4.87282
     2020.42710         0.82331         4.99008
     2020.42984        -0.26736         4.84629
     2020.43258        -0.03402         4.81034
     2020.43531        -6.90469         4.73245
     2020.43805        -5.85135         4.78038
     2020.44079        -2.94002         4.79322
     2020.44353        -0.67268         4.80520
     2020.44626        -2.48035         4.68623
     2020.44900        -5.95201         4.77353
     2020.45174        -1.60768         4.76754
     2020.45448        -4.79734         4.76412
     2020.45722        -1.93301         4.71276
     2020.45995         0.37733         4.71961
     2020.46269        -9.06534         4.66997
     2020.46543        -5.99100         4.68794
     2020.46817        -0.76267         4.73673
     2020.47091         4.10567         4.74786
     2020.47364        -1.96200         4.67253
     2020.47638         5.48234         4.66483
     2020.47912        -1.64433         4.81719
     2020.48186        -0.54099         4.75299
     2020.48459        -1.64466         4.74957
     2020.48733        -0.91532         4.79065
     2020.49007         5.44301         4.77439
     2020.49281         0.33635         4.76326
     2020.49555        -2.99132         4.71533
     2020.49828         1.65602         4.70591
     2020.50102         0.54035         4.66312
     2020.50376        -0.10131         4.63915
     2020.50650        -7.47298         4.67082
     2020.50924        -6.85264         4.67082
     2020.51197        -0.82031         4.71105
     2020.51471         2.74703         4.69821
     2020.51745         1.93436         4.59978
     2020.52019         3.02970         4.68195
     2020.52292         8.67703         4.83858
     2020.52566         2.91437         4.78209
     2020.52840         2.42270         4.74614
     2020.53114         4.88204         4.76925
     2020.53388        -0.36163         4.74015
     2020.53661        -1.00229         4.76840
     2020.53935         1.34604         4.79493
     2020.54209         4.93938         4.80606
     2020.54483        -0.90329         4.82403
     2020.54757        -1.15295         4.80863
     2020.55030         3.73938         4.82061
     2020.55304         3.34772         4.81205
     2020.55578         2.50806         4.88224
     2020.55852        -4.76461         4.99180
     2020.56125        -1.12227         4.83858
     2020.56399         2.05406         4.76241
     2020.56673         0.07540         4.77182
     2020.56947         7.76373         4.79664
     2020.57221         3.39807         4.99608
     2020.57494        -0.98160         4.80264
     2020.57768         0.38374         4.90877
     2020.58042         2.18407         4.82831
     2020.58316        -0.57059         4.80092
     2020.58590         2.87174         4.79664
     2020.58863         1.17708         4.76326
     2020.59137         2.36141         4.79322
     2020.59411        11.46975         4.83858
     2020.59685         3.45208         4.99693
     2020.59958         3.88642         4.91819
     2020.60232         1.12275         4.77696
     2020.60506        -0.14791         4.76583
     2020.60780         1.82242         4.78209
     2020.61054         3.79076         4.86255
     2020.61327        -3.55291         4.93445
     2020.61601         0.61243         4.85399
     2020.61875        -0.46724         4.81547
     2020.62149         3.19010         4.79836
     2020.62423         3.54743         4.85314
     2020.62696        -2.78223         4.99180
     2020.62970        -2.79890         4.90706
     2020.63244         5.66744         4.88908
     2020.63518         5.31177         4.98837
     2020.63791         0.35811         4.97896
     2020.64065        -8.70556         4.88138
     2020.64339         0.72878         4.86512
     2020.64613         5.82111         5.76042
     2020.64887         5.98945         5.02603
     2020.65160        -5.79322         4.90535
     2020.65434        -1.40688         4.84458
     2020.65708         6.16145         4.87368
     2020.65982         5.52479         4.77610
     2020.66256         3.75112         4.78124
     2020.66529         3.09346         4.83602
     2020.66803         1.22979         4.80435
     2020.67077         1.06713         4.80264
     2020.67351         5.77846         4.80948
     2020.67624        -1.90820         4.75385
     2020.67898        -4.80187         4.80435
     2020.68172        -1.51953         4.76155
     2020.68446         0.94881         4.85656
     2020.68720        -1.38686         4.91562
     2020.68993         2.14548         4.77439
     2020.69267        -2.16919         4.89508
     2020.69541        -0.89585         5.06027
     2020.69815        -0.97352         4.86683
     2020.70089         0.52282         4.81034
     2020.70362        -2.18585         4.79664
     2020.70636         0.88949         5.04486
     2020.70910        -2.58918         5.04572
     2020.71184         1.89816         4.86854
     2020.71457        -6.38451         4.99351
     2020.71731         1.43583         4.94986
     2020.72005        -1.56784         4.90278
     2020.72279         1.01350         4.80520
     2020.72553         0.54483         4.95157
     2020.72826         0.43717         4.96697
     2020.73100        10.45950         4.91904
     2020.73374        12.21784         4.88908
     2020.73648         4.42117         4.89679
     2020.73921        -3.59349         4.84115
     2020.74195         4.47484         4.85228
     2020.74469        -1.32382         4.84286
     2020.74743        -1.81349         4.84543
     2020.75017        -1.94215         4.85228
     2020.75290        -3.51082         4.87025
     2020.75564        -2.96348         4.88309
     2020.75838         1.99085         4.77182
     2020.76112        -1.68681         4.77525
     2020.76386         2.63352         4.80863
     2020.76659         4.34986         4.77011
     2020.76933         8.96019         4.88652
     2020.77207         6.05353         4.77353
     2020.77481         4.34286         4.78295
     2020.77754         6.73520         4.82746
     2020.78028         6.76153         4.88138
     2020.78302         4.50987         4.82660
     2020.78576         5.66020         4.74529
     2020.78850        -4.90646         4.71362
     2020.79123        -0.58713         4.70848
     2020.79397        -1.70879         4.76497
     2020.79671        -1.42246         4.76583
     2020.79945        -0.36212         4.70677
     2020.80219        -2.74479         4.81975
     2020.80492         5.84155         4.77867
     2020.80766         3.47388         4.81804
     2020.81040         0.51222         4.79408
     2020.81314         3.10655         4.74272
     2020.81587         0.69089         4.68109
     2020.81861         2.15723         4.70249
     2020.82135         4.92856         4.75641
     2020.82409        -0.26410         4.75042
     2020.82683         1.64323         4.74700
     2020.82956         3.96457         4.77182
     2020.83230         3.09490         4.80264
     2020.83504         1.83624         4.79750
     2020.83778         0.14257         4.69650
     2020.84052         3.48591         4.65884
     2020.84325        -2.81776         4.84800
     2020.84599         3.65858         4.88994
     2020.84873        10.30591         4.66226
     2020.85147         5.60725         4.67339
     2020.85420        15.39658         4.65456
     2020.85694        13.73292         4.75214
     2020.85968        12.73825         4.75556
     2020.86242         6.72659         4.71704
     2020.86516         7.02192         4.89593
     2020.86789         7.00326         4.97725
     2020.87063        10.11059         4.69393
     2020.87337         8.34993         4.77097
     2020.87611        12.54026         4.94900
     2020.87885         8.99560         4.89936
     2020.88158         4.65893         4.97553
     2020.88432         0.54827         4.92418
     2020.88706        -1.55540         4.98409
     2020.88980         0.19694         4.88395
     2020.89253         2.25227         4.79236
     2020.89527         6.00161         4.91476
     2020.89801         7.18394         5.00464
     2020.90075         7.30628         4.79322
     2020.90349         1.14361         4.87881
     2020.90622         1.19195         4.79236
     2020.90896         3.17728         4.92760
     2020.91170         2.89362         5.02175
     2020.91444         4.18795         4.85485
     2020.91718        -0.27571         4.74957
     2020.91991        -4.75138         4.74101
     2020.92168        -4.92545         8.69969
     2020.92550        -4.92378         4.90107
     2020.92773        -7.02513         5.59352
     2020.93765        -2.09416       111.28316
     2020.93908        -4.63503         4.76069
     2020.94182        -1.66070         4.81633
     2020.94455        -5.77036         4.73330
     2020.94729        -6.06702         4.74015
     2020.95003        -9.45969         4.81975
     2020.95277       -13.00735         4.78380
     2020.95551        -4.48802         4.74272
     2020.95824        -1.22068         4.87625
     2020.96098        -4.95135         4.82831
     2020.96372        -6.69601         4.80520
     2020.96646        -3.22768         4.84629
     2020.96919        -4.01034         4.87111
     2020.97193        -9.76201         4.77953
     2020.97467        -4.52467         4.89508
     2020.97741        -7.14934         4.83687
     2020.98015        -5.17900         4.94301
     2020.98288        -5.27567         4.86854
     2020.98562         4.14567         4.75898
     2020.98836         0.87900         4.73587
     2020.99110         1.22434         4.68537
     2020.99384        -2.25333         4.70506
     2020.99657         0.00601         4.71191
     2020.99931         6.13234         4.76155
     2021.00205        -3.58232         4.75470
     2021.00479        11.10501         4.74871
     2021.00752         4.78635         4.78980
     2021.01026         1.93768         4.88652
     2021.01300         3.94502         4.73159
     2021.01574         4.72335         4.74700
     2021.01848         4.74069         4.76326
     2021.02121        -1.71298         4.69992
     2021.02395        -0.98264         4.64086
     2021.02669        -2.32031         4.68965
     2021.02943        -0.53997         4.68537
     2021.03216        -1.46164         4.76754
     2021.03450         4.21594         5.91192
     2021.04038        -3.67163         4.72988
     2021.04312         2.62470         4.68965
     2021.04585        -0.80196         4.85142
     2021.04859         0.33137         4.82917
     2021.05133        -1.09429         4.76840
     2021.05407         1.94604         4.93530
     2021.05681         2.49038         4.85142
     2021.05954         1.28271         4.78808
     2021.06776         3.41672         4.69479
     2021.07049         1.63805         4.68537
     2021.07323         7.43939         4.78124
     2021.07597        -3.55527         4.78637
     2021.07871        -2.58594         4.74700
     2021.08145        -6.37160         4.69650
     2021.08418        -5.26427         4.76069
     2021.08692        -0.11093         4.73502
     2021.08966        -1.97860         4.80092
     2021.09240        -6.12126         4.80092
     2021.09514        -3.32293         4.90021
     2021.09787       -12.10559         4.92503
     2021.10061        -4.96126         4.73758
     2021.10335        -0.74092         4.82403
     2021.10609        -2.10959         4.85741
     2021.10882        -2.61825         4.81119
     2021.11156        -6.52992         4.75299
     2021.11430        -6.52858         4.75299
     2021.11704        -4.97325         4.85314
     2021.11978         0.55909         4.81376
     2021.12251        -4.92458         4.80777
     2021.12525         3.48676         4.80092
     2021.12799        -3.16391         4.70934
     2021.13073        -3.62357         4.67596
     2021.13347        -2.55824         4.82147
     2021.13620        -6.31490         4.83516
     2021.13894         1.42043         4.73673
     2021.14168        -5.78923         4.62203
     2021.14442        -2.27590         4.65456
     2021.14715        -0.65756         4.80948
     2021.14989        -6.48023         4.72560
     2021.15166        -6.20830         9.78416
     2021.16722         4.05023         7.92593
     2021.16906         5.01712         4.67168
     2021.17180        -4.42155         4.63573
     2021.17453       -11.72721         4.80777
     2021.17727        -0.88688         4.86940
     2021.18001        -3.12854         4.76326
     2021.18275        -2.71121         4.94130
     2021.18548        -0.83587         4.71447
     2021.18822        -3.70454         4.71362
     2021.19079        -1.00010         5.05171
     2021.19370        -2.72187         4.74015
     2021.19644        -6.42853         4.67938
     2021.19917        -3.26520         4.68366
     2021.20191        -3.19486         4.69222
     2021.20465         0.46847         4.65199
     2021.20739        -6.82219         4.71447
     2021.21013         1.95615         4.86169
     2021.21286         1.42548         4.96697
     2021.21560        -0.35918         4.71362
     2021.21834        -3.72285         4.66226
     2021.22068        -6.53727         5.69195
     2021.22381        -8.85818         6.06342
     2021.22655        -1.03584         4.67510
     2021.22929        -3.14551         4.71790
     2021.23203        -1.68017         4.67510
     2021.23477        -9.93884         4.65884
     2021.23750        -7.62250         4.67510
     2021.24024        -3.38517         4.79836
     2021.24298        -3.70783         4.66569
     2021.24572        -4.41150         4.74614
     2021.25119        -0.03383         4.71105
     2021.25393         0.52151         4.65028
     2021.25667         2.36684         4.65456
     2021.25941         4.29018         4.67339
     2021.26214         1.19751         4.65370
     2021.26488        -0.83115         4.71105
     2021.26762         4.81318         4.70934
     2021.27036        -1.00948         4.69992
     2021.27310        -0.19815         4.66397
     2021.27583        -2.35781         4.67082
     2021.27857        -2.74248         4.76497
     2021.28131         4.69386         4.71533
     2021.28405         3.46019         4.71447
     2021.28679         3.65853         4.73245
     2021.28952         2.98786         4.73758
     2021.29226        -3.28480         4.74101
     2021.29500         3.29953         4.71533
     2021.29774         2.33887         4.84886
     2021.30047         0.71620         4.75299
     2021.30321         6.04554         4.73074
     2021.30595         6.88687         4.84458
     2021.30869        10.33221         4.86597
     2021.31143         1.55454         4.69564
     2021.31416        12.21988         4.68623
     2021.31690         2.45721         4.68109
     2021.31878        -4.56593         7.63577
     2021.32238        -1.84712         4.76925
     2021.32512        -5.30178         4.66397
     2021.32785         0.58755         4.67510
     2021.33059         8.01189         4.69393
     2021.33333         7.60622         4.67425
     2021.33607        -0.85744         4.67253
     2021.33880         1.30190         4.72903
     2021.34154        -0.73877         4.72132
     2021.34428         0.50557         4.76326
     2021.34702        -2.31210         4.79322
     2021.34976        -4.61376         4.66654
     2021.35249        -5.42443         4.67938
     2021.35523         1.52191         4.71276
     2021.35797        -2.99376         4.73159
     2021.36071        -2.27542         4.74272
     2021.36344        -4.78309         4.69222
     2021.36618        -6.80775         4.68537
     2021.36892        -2.99642         5.05514
     2021.37166         2.00992         4.80863
     2021.37440         0.15425         4.78124
     2021.37616         2.49418         8.66802
     2021.37987        -1.72408         4.86169
     2021.38261         1.00226         5.03802
     2021.38535         7.80959         4.94729
     2021.38809         1.51693         4.83602
     2021.39082        -2.13274         4.77781
     2021.39356        -5.85340         4.79750
     2021.39630         1.97593         4.85142
     2021.39904        -4.72273         4.85485
     2021.40177        -0.17040         4.77867
     2021.40451        -0.19906         4.90963
     2021.40725        -1.91673         4.81291
     2021.40999        -1.49139         4.79579
     2021.41273        -3.20106         4.78124
     2021.41546        -0.84272         4.81547
     2021.41820        -3.98339         4.81975
     2021.42094        -0.52405         4.93017
     2021.42368         2.79928         4.96697
     2021.42642         1.25962         4.91134
     2021.42915         5.27495         4.81291
     2021.43189         4.83829         4.82746
     2021.43463         0.21062         4.90791
     2021.43737        -0.64504         4.87881
     2021.44010        -8.49871         4.90620
     2021.44284        -4.69137         4.93274
     2021.44558        -4.79004         4.90620
     2021.44832        -0.54670         4.87111
     2021.45106         0.57463         4.94301
     2021.45379         5.64397         5.03203
     2021.45653        -3.17270         4.92675
     2021.45927         3.37364         4.77097
     2021.46201        -0.44403         4.77781
     2021.46475        -0.06369         4.80349
     2021.46748        -0.28535         4.82917
     2021.47022         5.73498         4.87796
     2021.47296         8.12232         5.03545
     2021.47570        -1.06835         5.03203
     2021.47843         1.92299         4.86255
     2021.48117        -6.42368         4.90620
     2021.48391        -4.86334         4.83944
     2021.48665        -3.58801         4.85314
     2021.48939         1.68633         4.86169
     2021.49212        -2.69934         4.86683
     2021.49486         2.46000         4.92589
     2021.49760        -1.36867         5.01747
     2021.50034         4.30367         5.01063
     2021.50308         1.78800         4.95071
     2021.50581         1.42334         4.96954
     2021.50855         0.91067         4.83858
     2021.51129         2.49401         4.85228
     2021.51403        -3.57566         4.88395
     2021.51676         6.41768         4.79750
     2021.51950         0.40601         4.87025
     2021.52224        -1.58865         4.77610
     2021.52498         0.97768         4.78124
     2021.52772         0.32302         4.77097
     2021.53045         4.13035         4.77182
     2021.53319         2.91269         4.77268
     2021.53593        -4.95898         4.94472
     2021.53867         6.75736         5.15186
     2021.54141         0.43569         4.88053
     2021.54414        -2.97797         4.87710
     2021.54688        -3.19064         4.84201
     2021.54962         4.65570         4.83773
     2021.55509        -0.06563         4.84115
     2021.55783        -5.73630         4.82489
     2021.56057         1.91604         4.79408
     2021.56331         1.80937         4.77182
     2021.56559        -1.32801         5.96071
     2021.56940        -4.00933         7.73677
     2021.57152        -7.17962         4.84543
     2021.57426        -2.76329         4.81890
     2021.57694         2.31908         4.97297
     2021.57956        -8.70951         5.22718
     2021.58521        -7.68095         4.86341
     2021.58795         0.45339         4.85570
     2021.59069        -1.37728         4.89593
     2021.59342        -2.53194         4.90706
     2021.59616         2.35139         4.94301
     2021.59890         0.23873         4.77867
     2021.60164         0.06007         4.89165
     2021.60438        -0.77360         4.78980
     2021.60711        -1.22126         4.77353
     2021.60985         1.43607         4.78637
     2021.61259         4.83641         4.78980
     2021.61533        -4.70126         4.76669
     2021.61807        -3.23692         4.81119
     2021.62080        -5.22759         4.77182
     2021.62354        -0.06325         4.78894
     2021.62628        -2.77192         4.91562
     2021.62902         3.18442         4.79408
     2021.63175        -1.27925         4.84372
     2021.63449        -0.95991         4.74272
     2021.63723         1.60442         5.05941
     2021.63997         1.85976         4.83773
     2021.64225        -2.35363         5.95472
     2021.64617        -0.81902         7.01436
     2021.64818        -2.39824         4.79408
     2021.65092         2.61310         4.76583
     2021.65366        -2.83257         4.75385
     2021.65639         1.35577         4.73758
     2021.65913        -4.91890         4.75299
     2021.66187         4.81044         4.82232
     2021.66461         3.53477         4.80349
     2021.66735         5.78311         4.74957
     2021.67008         1.64544         4.82489
     2021.67282        -0.64422         4.97297
     2021.67556         0.83211         5.03973
     2021.67830        -1.75155         4.88395
     2021.68104         3.39378         4.70506
     2021.68377         2.31212         4.70506
     2021.68651        -0.10955         4.77610
     2021.68925         6.04679         4.77182
     2021.69199         0.85312         4.89679
     2021.69472        -1.96154         4.80435
     2021.69746        -2.38321         4.76069
     2021.70020         1.85713         4.81291
     2021.70294         0.74546         4.82489
     2021.70568         2.70080         4.81205
     2021.70841         1.30213         4.77353
     2021.71115         1.02947         4.80691
     2021.71389         4.01880         4.85741
     2021.71663        -2.93386         4.95585
     2021.71937         0.93447         4.77696
     2021.72210        -5.49519         4.76412
     2021.72484        -5.14986         4.77353
     2021.72758        -3.42052         4.75727
     2021.73032        -6.81218         5.03459
     2021.73305         2.62915         4.73587
     2021.73579         5.84649         4.75385
     2021.73807         8.93410         5.84602
     2021.74200        -0.23529         7.10766
     2021.74401        -2.56851         4.75556
     2021.74674         2.72283         4.74186
     2021.74948         0.17616         4.72817
     2021.75222         1.39350         4.74443
     2021.75496         4.76783         4.75813
     2021.75770         1.33417         4.76840
     2021.76043         3.23850         4.75727
     2021.76317         4.34784         4.81376
     2021.76591         0.57017         4.74443
     2021.76865         4.74251         4.76669
     2021.77138         0.38384         4.76840
     2021.77412         5.49018         4.79750
     2021.77686         5.19151         4.77182
     2021.77960         6.55485         4.73416
     2021.78234         5.69818         4.77439
     2021.78507         8.02752         4.74186
     2021.78781         5.42685         4.74700
     2021.79009         2.17446         5.77412
     2021.79603         6.99286         4.72988
     2021.79876         4.15619         4.71875
     2021.80150         2.13253         5.03288
     2021.80424         8.10286         5.00121
     2021.80698         7.17020         4.90877
     2021.80971         3.46053         4.77696
     2021.81245         9.93987         4.85656
     2021.81519        16.08620         4.79579
     2021.81793         1.24954         4.78980
     2021.82067        -3.48313         4.92247
     2021.82340         4.10621         4.85827
     2021.82614         1.79654         4.85228
     2021.82888         3.13688         4.84030
     2021.83162         8.32921         4.96013
     2021.83436         1.07455         4.81547
     2021.83709         0.29888         4.89593
     2021.83983        -6.48178         4.84629
     2021.84234         6.67069         5.46085
     2021.84531         0.90989         4.85485
     2021.84804         0.11322         4.87881
     2021.85010         9.53698         6.74988
     2021.85352         3.69989         4.82746
     2021.85626        -1.42377         4.77268
     2021.85900        -0.63743         4.71191
     2021.86173        -6.53810         4.75984
     2021.86447        -5.30176         4.91904
     2021.86721        -0.41043         4.94986
     2021.86995         2.60091         4.92931
     2021.87269         2.18424         4.82232
     2021.87542        -8.83042         4.88994
     2021.87816        -5.13909         4.71447
     2021.88090         0.38325         4.76583
     2021.88364         4.85058         4.79151
     2021.88637        -5.04608         4.69650
     2021.88911        -8.21475         4.75898
     2021.89185       -10.39541         4.72303
     2021.89459        -2.31508         4.72389
     2021.89733        -4.18474         4.75641
     2021.90006        -7.40741         4.73930
     2021.90280        -5.47507         4.79408
     2021.90565        -6.58681         4.91990
     2021.90828         4.83560         4.74015
     2021.91102         2.80193         4.76069
     2021.91375        -1.53473         4.76925
     2021.91649        -1.44840         4.80435
     2021.91923        -0.35206         4.87967
     2021.92197        -8.40573         4.98666
     2021.92470        -6.34239         4.84458
     2021.92744         1.84394         4.88994
     2021.93018        -6.57472         4.84458
     2021.93292         3.59661         4.97297
     2021.93566         4.32995         4.93873
     2021.93839         3.48828         4.88480
     2021.94113         7.13562         4.97810
     2021.94387         6.95195         4.91134
     2021.94661        -0.45871         4.83773
     2021.94935         2.13562         4.81975
     2021.95208         3.89296         4.84971
     2021.95482         4.11729         4.89936
     2021.95756         8.73063         4.91562
     2021.96030        -2.23204         4.93103
     2021.96303         4.10630         4.95157
     2021.96577         6.36163         4.97725
     2021.96851         1.84597         4.93787
     2021.97125         3.62330         4.93017
     2021.97399         8.01864         4.93958
     2021.97672         1.22297         4.96526
     2021.97946        13.16231         4.95756
     2021.98220         9.18664         4.92760
     2021.98494        10.72198         4.92589
     2021.98767         9.69031         4.87197
     2021.99041         7.21165         4.81034
     2021.99315         7.64499         4.79836
     2021.99589         8.42232         4.87625
     2021.99863         6.12266         4.80435
     2022.00136         0.10599         4.82318
     2022.00410        -4.42867         4.83174
     2022.00684        -7.33134         4.92332
     2022.00958        -4.43700         4.92675
     2022.01232        -7.75667         4.91904
     2022.01505        -0.25933         4.94729
     2022.01779         5.19700         5.05171
     2022.02053         3.08234         4.90706
     2022.02327        -3.73533         5.13902
     2022.02600       -10.86599         4.80948
     2022.02874        -9.36566         4.81034
     2022.03148       -11.24632         4.81547
     2022.03422        -8.69999         4.86769
     2022.03696        -6.86065         4.83003
     2022.03969       -13.54932         4.81291
     2022.04243        -4.01498         4.78124
     2022.04517        -7.25465         4.80863
     2022.04791        -5.39931         4.84800
     2022.05065        -3.18198         4.83858
     2022.05338        -6.74364         4.83174
     2022.05612       -11.43931         4.83602
     2022.05886       -13.80797         4.78723
     2022.06160       -10.40864         4.80606
     2022.06433        -6.41930         4.83944
     2022.06707       -10.55497         4.83259
     2022.06981        -2.16963         4.80092
     2022.07255       -12.51230         4.73416
     2022.07529        -9.31396         4.69821
     2022.07802        -5.43563         4.73502
     2022.08076        -2.26929         4.77353
     2022.08310         2.10029         5.81691
     2022.08696        -2.85606         7.12478
     2022.08898        -3.73429         4.70591
     2022.09171        -6.33495         4.71362
     2022.09445       -10.02462         4.74015
     2022.09719        -9.55528         4.70763
     2022.09993       -11.58395         4.84372
     2022.10266       -13.63061         4.76583
     2022.10540        -4.87128         4.78038
     2022.10814        -3.30194         4.80178
     2022.11088        -6.01661         4.73416
     2022.11362        -3.24027         4.74957
     2022.11630        -0.68390         4.87625
     2022.11909        -7.36260         4.85485
     2022.12183        -2.59426         4.71619
     2022.13278        -7.92292         4.67253
     2022.13552        -4.85959         4.69821
     2022.13826        -1.46925         4.69821
     2022.14099        -2.59892         4.71447
     2022.14373        -7.67358         4.71276
     2022.14647        -3.95225         4.66654
     2022.14921         3.35909         4.95499
     2022.15195        -4.06458         4.95242
     2022.15468        -5.00724         4.72047
     2022.15742         0.07309         4.73330
     2022.15976        -6.62033         5.69452
     2022.16381        -6.85879         8.12879
     2022.16564        -6.31190         4.72132
     2022.16837         3.83843         4.76754
     2022.17111        -3.45023         4.76326
     2022.17385         0.77010         4.73587
     2022.17659        -3.90556         4.70848
     2022.17932        -6.85323         4.70848
     2022.18206        -7.73789         4.71191
     2022.18480        -6.97556         4.72988
     2022.18754        -1.65222         4.78380
     2022.19028        -5.90189         4.80007
     2022.19301        -0.92755         4.75128
     2022.19575         6.02478         4.75813
     2022.19849        -3.49488         4.72560
     2022.20123        -1.39055         4.73416
     2022.20397         6.15779         4.83174
     2022.20670         0.27312         4.81462
     2022.20944         0.47546         4.83602
     2022.21218        -0.83221         4.73502
     2022.21492        -5.84087         5.20150
     2022.21765        -3.82054         4.78380
     2022.22039        -4.55020         4.75214
     2022.22193        -7.21414        15.84330
     2022.22587        -5.48753         4.93616
     2022.22861        -3.58220         4.96783
     2022.23134         0.35214         4.77696
     2022.23408         3.15547         4.76840
     2022.23636         6.40009         5.94958
     2022.24636        41.50501       100.86818
     2022.24777         7.67715         4.73758
     2022.25051        -1.31751         4.77696
     2022.25336         0.36675         4.84115
     2022.25598         7.81316         4.78466
     2022.25872        -0.61251         4.89936
     2022.26146        -2.72817         4.71533
     2022.26420        -2.21084         4.66740
     2022.26694         2.72650         4.79579
     2022.26967         2.67283         4.66312
     2022.27241         6.57517         4.70677
     2022.27515         3.75250         4.82831
     2022.27789        -0.00116         4.69136
     2022.28062        -2.45583         4.67082
     2022.28336        -1.23449         4.75385
     2022.28610        -0.24816         4.78380
     2022.28884        -7.89582         4.85485
     2022.29158        -4.11849         4.72560
     2022.29431        -4.75715         4.70848
     2022.29705        -3.01282         4.74015
     2022.29979         1.76752         4.68965
     2022.30253         2.97485         4.86169
     2022.30527        -2.28381         4.83858
     2022.30800        -4.50148         4.71019
     2022.31074        -3.05014         4.76497
     2022.31302        -1.72953         5.74673
     2022.31622        -5.08247         4.76069
     2022.31895       -21.47414         4.91476
     2022.32169        -3.19680         4.93188
     2022.32443        -2.55547         4.76241
     2022.32717        -7.86513         4.76925
     2022.32991        -3.14880         4.76497
     2022.33264        -8.21246         4.94900
     2022.33538        -2.92713         4.97125
     2022.33812        -8.54679         4.95670
     2022.34086         3.32254         4.75641
     2022.34360        -1.12112         4.86940
     2022.34633         6.97521         4.89165
     2022.34907        -6.56445         4.79065
     2022.35181        -1.03612         4.79408
     2022.35455        -2.71578         4.74529
     2022.35728        -6.35545         4.75727
     2022.36002        -3.12111         4.76326
     2022.36276         0.13822         4.79322
     2022.36550        -5.92044         4.74272
     2022.36824         0.40489         4.74700
     2022.37097       -11.26977         4.80948
     2022.37371        -7.19444         4.75214
     2022.37645        -4.72110         4.71105
     2022.37919         6.19923         4.82746
     2022.38193        -5.89343         4.85228
     2022.38466        -8.19509         4.74700
     2022.38740       -17.33676         4.71362
     2022.38968        -6.93115         5.71335
     2022.41598        20.71686        13.88236
     2022.41752        -1.50307         4.80777
     2022.42026        -2.91674         4.87539
     2022.42231        -7.83099         6.77727
     2022.42925        -3.85821         7.31394
     2022.43121        -2.29740         5.42747
     2022.43394         2.95894         6.20722
     2022.43668        -6.54573         5.07739
     2022.43942        -4.22039         4.72218
     2022.44216        -6.71206         4.80007
     2022.44490         9.41028         5.04572
     2022.44763         0.40561         4.73587
     2022.45037        -9.52205         4.75727
     2022.45311        -9.47872         4.78808
     2022.45585        -3.79738         4.75214
     2022.45859       -12.94905         4.77867
     2022.46132        -4.18271         4.85485
     2022.46406        -6.70838         4.75470
     2022.46680        -5.46904         4.74529
     2022.46954        -7.48171         4.76326
     2022.47227       -16.77837         4.72132
     2022.47501         1.51596         4.83088
     2022.47775        -4.55470         4.94729
     2022.48049        -6.72137         4.72817
     2022.48323         1.58097         4.76583
     2022.48551         1.04058         5.76898
     2022.48943         5.09920         7.02464
     2022.49144        -3.67203         4.75727
     2022.49418        -4.94269         4.81547
     2022.49692        -8.06036         4.75299
     2022.49965        -3.69302         4.70078
     2022.50239       -17.31169         4.88395
     2022.50513        -3.92335         4.94558
     2022.50787         5.02398         4.96098
     2022.51060        -6.96768         4.92075
     2022.51334        -2.34634         4.76326
     2022.51608       -12.53901         4.82489
     2022.51882        -4.73867         4.82318
     2022.52156        -8.56734         4.78038
     2022.52429        -0.47800         4.74015
     2022.52703         7.12333         4.71619
     2022.52977        10.13367         4.79065
     2022.53251         4.28900         4.84458
     2022.53525        -6.40666         4.89679
     2022.53798         0.86267         4.79921
     2022.54072         2.29501         4.91048
     2022.54346         3.93134         4.75385
     2022.54620         4.76668         4.76583
     2022.54893         1.35301         4.77525
     2022.55167         2.50035         4.73844
     2022.55441         6.77668         4.74871
     2022.55715         9.05702         4.72389
     2022.55989         1.93835         4.68280
     2022.56262         3.94969         4.71362
     2022.56536        -3.90398         4.72988
     2022.56810        -1.34064         4.78980
     2022.57084        -0.01631         4.78295
     2022.57357         4.48903         4.89508
     2022.57586        -1.00436         5.83831
     2022.57939        -2.39051         5.35642
     2022.58179         6.27203         4.72303
     2022.58453         1.47137         5.00549
     2022.58726         0.26870         4.80349
     2022.59000         4.90604         4.85913
     2022.59274        -6.07063         4.80007
     2022.59548        -2.18729         4.74786
     2022.59822        -7.67096         4.73330
     2022.60095        -9.14962         4.72132
     2022.60369         0.18071         4.81975
     2022.60643        -4.36895         5.07225
     2022.60917         0.41238         4.88823
     2022.61190         6.43972         4.93274
     2022.61464        11.14105         4.64942
     2022.61738         8.75539         4.64172
     2022.62012        -2.65528         4.68366
     2022.62286         4.29106         4.69907
     2022.62559         3.54939         4.66055
     2022.62833         6.77873         4.76583
     2022.63107         3.96906         4.74443
     2022.63381         9.27140         4.70420
     2022.63655         8.78873         4.75042
     2022.63928         6.00207         4.77696
     2022.64202         7.05041         5.19979
     2022.64476         6.65474         5.02090
     2022.64750         5.35608         4.81804
     2022.65023         4.39341         4.83516
     2022.65297        11.88475         4.88309
     2022.65571        11.45508         4.78295
     2022.65845        12.66742         4.75385
     2022.66119         8.75575         4.63059
     2022.66392         7.49109         4.70420
     2022.66666        10.26842         4.69907
     2022.66940        10.19076         4.66397
     2022.67214        13.36009         4.64600
     2022.67488         5.69343         4.63830
     2022.67718        11.46003         5.64573
     2022.68108         5.80365         6.83205
     2022.68309         9.38743         4.78723
     2022.68583         8.68777         4.95927
     2022.68856         9.91510         4.73587
     2022.69130         8.92544         4.69650
     2022.69404         6.57277         4.73930
     2022.69678         9.99211         4.80092
     2022.69952         1.80244         4.83516
     2022.70225        13.01178         4.85057
     2022.70499        15.02211         4.86426
     2022.70773        11.01545         4.82917
     2022.71047         8.28778         4.70677
     2022.71321        16.18212         4.68024
     2022.71549        17.83673         5.76128
     2022.71941         8.90035         6.86714
     2022.72142        12.42412         4.66397
     2022.72416         6.90446         4.75470
     2022.72689        12.20279         4.72303
     2022.72963        12.96813         4.66055
     2022.73237         9.13946         4.63059
     2022.73465         8.90908         5.74758
     2022.73857         7.97069         6.74988
     2022.74058        14.66047         4.80178
     2022.74332        17.02380         4.91476
     2022.74606        12.41914         4.67853
     2022.74880        11.51047         4.61347
