# ================= DQRFIT RESULTS ================
# INPUT FILE: series/BCCG.rad
# OUTPUT: LDETRENDED
# FILTER FUNCTION: f(t)
# f(t)=+line(t)+annual(t)
# line(t)=+P 1+P 2*t
# annual(t)=+P 3*sin(2*pi*t+P 4)
# heav(t)=(t<0?0:1)
# TOTAL OBSERVATIONS MTOT= 4155
# INITIAL TIME INTERVAL= 2022.7488 - 2009.0212 = 13.7276
# TOTAL OBSERVATIONS AFTER PREFILTER M= 4142
# TIME-SPAN= 2022.7488 - 2009.0212 = 13.7276
# OBSERVATIONS: USED M=  4142 REJECTED MTOT-M=    13 %USED=   99.6871
# N=  4 PARAMETERS
# MAXSIG= 175.00000
# MAXRES=  21.36312
# SCALE FACTOR FOR LENGTHS: SCL=  10.00000
# SCALE FACTOR FOR SIGMAS: SCLSIG=   1.00000
# CHI^2=   4798.163 DOF=  4138 CHI^2/DOF=   1.15954
# RMS=      5.994 SDEV=      5.994 MEAN=    0.01030
#  P #       PARAMETER +-    SIGMA %error PARAMETER NAME
# P 1 =     -1676.55409 +-   54.957   3.28 YZERO                              
# P 2 =         0.83348 +-    0.027   3.27 SLOPE                              
# P 3 =         6.32563 +-    0.131   2.06 ANNUAL AMPLITUDE                   
# P 4 =        -2.99118 +-    0.029   0.96 ANNUAL PHASE                       
#       T            LDETRENDED       SIG_OBS
     2009.02121        -0.74462         5.96126
     2009.02395        -8.28390         5.96449
     2009.02669       -18.64718         5.91173
     2009.02943       -14.06146         5.84820
     2009.03216       -16.37774         5.91173
     2009.03490       -12.34603         5.83528
     2009.03764       -19.02931         5.83851
     2009.04038       -16.63259         5.88266
     2009.04312       -16.78387         5.85466
     2009.04585       -21.16615         5.81697
     2009.04859       -19.11543         7.17376
     2009.05133       -16.97772         5.83528
     2009.05407       -18.28000         5.81805
     2009.05681       -11.20028         5.82989
     2009.05954       -10.40056         5.85466
     2009.06228       -17.03584         5.91711
     2009.06502       -12.90113         5.82666
     2009.06776       -14.82841         5.82235
     2009.07049       -15.27369         5.80405
     2009.07323        -9.53997         5.84066
     2009.07597        -8.27225         5.80189
     2009.07871       -11.16554         5.81051
     2009.08145       -12.18982         5.76528
     2009.08418        -9.60710         5.84497
     2009.08692        -7.95038         5.80728
     2009.08966       -20.42666         5.81159
     2009.09240       -17.66695         5.76744
     2009.09514        -7.49923        10.14147
     2009.09787        -7.54351         5.80082
     2009.10061       -17.42979         5.79866
     2009.10335       -11.29307         5.82882
     2009.10561        -9.38296         7.29760
     2009.11804        -9.95032        11.17306
     2009.11978        -9.55876         5.81051
     2009.12251        -9.46105         5.73406
     2009.12525       -12.66033         5.75990
     2009.12799        -6.95361         5.78790
     2009.13073        -6.12389         5.90635
     2009.13347       -13.68617         5.79651
     2009.13620       -11.99946         5.79759
     2009.13894       -15.42674         5.80297
     2009.14168       -15.57902         5.87512
     2009.14442       -10.97230         5.83958
     2009.14614       -17.28174        12.13251
     2009.16721        -8.12930         9.79474
     2009.16906         0.02316         5.98926
     2009.17180        -7.99012         5.81266
     2009.17453       -11.34040         5.85466
     2009.17727        -4.15469         5.98603
     2009.18001       -13.00597         5.80297
     2009.18360        -9.03596         9.46415
     2009.18617        -6.73710         8.33995
     2009.18851       -12.78605         6.55567
     2009.19096       -14.79910         5.88050
     2009.19370       -13.47338         5.83420
     2009.19644        -9.52466         5.85035
     2009.19917        -3.77994         5.84604
     2009.20191       -15.74022         5.83312
     2009.20465        -8.04650         5.87727
     2009.20739       -10.35779         5.97634
     2009.21013       -15.32707         5.91281
     2009.21286        -7.81335         5.93219
     2009.21560        -6.36863         5.84281
     2009.21834       -12.18891         5.82020
     2009.22108        -2.29320         5.81912
     2009.22381        -9.53848         5.87296
     2009.22655       -11.87776         5.82558
     2009.22929        -8.81404         5.82882
     2009.23203       -15.37032         6.23478
     2009.23442        -7.50732         6.76995
     2009.23842        -9.31565        10.02517
     2009.24372        -3.58207         8.69100
     2009.24572        -5.21473         5.86112
     2009.24846        -7.88202         5.85574
     2009.25119        -2.63830         6.00541
     2009.25393        -9.93158         5.99465
     2009.25667       -12.42886         5.89235
     2009.25941       -16.07814         5.84712
     2009.26214       -14.11743         5.88804
     2009.26488       -12.51071         5.86543
     2009.26762        -5.22199         5.89665
     2009.27036        -7.49927         5.81912
     2009.27310       -10.68755         5.86543
     2009.27583        -6.89284         5.86435
     2009.27857       -14.10012         5.88373
     2009.28131        -9.08140         5.94403
     2009.28405       -10.78068         5.83743
     2009.28679       -11.27496         5.86004
     2009.28952       -15.43624         5.85897
     2009.29226       -15.49553         5.89558
     2009.29500       -15.31881         5.90958
     2009.29774       -15.32109         5.81051
     2009.30047       -16.38537         5.81374
     2009.30321       -15.49465         5.84820
     2009.30595        -0.01294         5.92465
     2009.30869        -1.90622         5.85681
     2009.31143        -8.05550         5.81051
     2009.31416        -3.57978         5.85358
     2009.31690        -7.86706         5.82343
     2009.31964       -11.93535         5.83312
     2009.32238        -8.07863         5.82128
     2009.32512       -13.84191         5.98065
     2009.32785       -16.61019         5.96449
     2009.33059       -11.37347         5.77174
     2009.33333       -10.62676         5.81912
     2009.33607        -4.15004         5.91711
     2009.33880        -7.44932         5.86004
     2009.34154       -10.73760         5.86004
     2009.34428        -9.92388         5.80620
     2009.34702        -8.29017         5.76205
     2009.34976       -13.83545         5.88373
     2009.35249       -17.32673         5.83851
     2009.35523       -11.90301         5.89558
     2009.35797        -6.63829         5.86973
     2009.36071        -6.41058         5.94942
     2009.36344       -10.55386         5.83528
     2009.36618        -8.82614         5.83851
     2009.36892       -12.95742         5.85358
     2009.37166       -16.39870         5.84820
     2009.37440       -12.06798         5.82666
     2009.37713       -15.73527         5.99572
     2009.37987       -12.48055         6.14648
     2009.38261        -7.57883         5.89235
     2009.38535       -12.45611         5.86973
     2009.38809       -15.79539         5.86220
     2009.39082       -20.32468         5.85358
     2009.39356       -14.69096         5.85897
     2009.39630       -13.61624         5.88912
     2009.39904        -6.27652         5.87620
     2009.40177         1.65020         5.89235
     2009.40451        -8.62109         5.94403
     2009.40725        -6.58537         5.85251
     2009.40999        -4.55865         5.89989
     2009.41273       -16.16793         9.73551
     2009.41546        -2.22021         5.89450
     2009.41820        -5.68650         5.85358
     2009.42094        -9.43678         5.82020
     2009.42368        -6.49306         5.86435
     2009.42642       -10.37334         5.91496
     2009.42915        -8.71262         6.01295
     2009.43189        -8.11291         5.85897
     2009.43463        -7.80619         5.93542
     2009.43737        -9.20747         5.88266
     2009.44010       -15.63375         5.95373
     2009.44284       -19.49703         5.96772
     2009.44501       -13.36384         7.84570
     2009.93839         1.42794         9.13034
     2009.94387         2.13437         6.01618
     2009.94661         3.09409         5.98388
     2009.94935         1.06881         5.89665
     2009.95208         0.10153         5.89773
     2009.95482        -4.06175         5.90419
     2009.95756       -12.20604         6.25093
     2009.96030       -21.02532         5.91496
     2009.96303        -8.75960         5.91819
     2009.96577        -5.21288         5.97634
     2009.96851        -1.93216         5.98818
     2009.97125         2.31155         6.00218
     2009.97399        -0.21073         6.01834
     2009.97672        -5.37601         5.85143
     2009.97878        -9.65272         8.39487
     2009.99589        -7.74098         5.86220
     2009.99863       -12.03327         5.88804
     2010.00410        -1.71483         5.86112
     2010.00684        -9.05811         5.89019
     2010.00958       -10.07339         5.88050
     2010.01232       -22.77368         5.89127
     2010.01505       -10.18196         5.90850
     2010.01779        -7.92424         5.86543
     2010.02053        -3.67652         5.91711
     2010.02327       -14.03880         5.96772
     2010.02600        -5.85809         5.86327
     2010.02874         1.41363         5.91927
     2010.03148         3.25535         5.95265
     2010.03428        -3.12398         6.27462
     2010.03696        -3.45921         6.22293
     2010.03969         3.10851         6.01295
     2010.04243         1.87722         6.02803
     2010.04517         2.97594         5.94619
     2010.04791       -11.22334         6.19278
     2010.05065         0.72138         5.95696
     2010.05338         3.35310         6.10448
     2010.05612         3.46781         5.90419
     2010.05886         2.03653         6.05925
     2010.06160        -0.22275         5.83743
     2010.06433        -4.45503         5.83420
     2010.06707       -15.19931         5.85681
     2010.06981        -6.60760         6.00326
     2010.07255        -8.05788         6.02049
     2010.07529        -6.95516         6.01834
     2010.07802        -4.85944         5.82558
     2010.08076        -5.24372         5.81482
     2010.08350        -0.96701         5.78790
     2010.08584        -0.23695         7.33744
     2010.08898         7.53043         6.00972
     2010.09171         2.82215         5.83743
     2010.09445         1.55187         5.96342
     2010.09719        -2.97042         5.92681
     2010.09993        -3.23070         5.82128
     2010.10266        -1.25298         5.85466
     2010.10540        -2.24126         5.90635
     2010.10814        -0.97754         5.88481
     2010.11088        -2.11383         5.96988
     2010.11362         0.51789         5.80189
     2010.11635        -1.72739         5.84927
     2010.11909         0.08433         5.85358
     2010.12183        -6.45295         5.78251
     2010.12457         0.57777         5.78467
     2010.12731        -1.11652         5.89881
     2010.13004       -10.36580         5.90096
     2010.13278        -7.61508         5.93757
     2010.13552        -7.14836         6.08510
     2010.13826        -5.29464         5.96988
     2010.14099        -7.14893         5.76098
     2010.14373        -3.01421         5.99680
     2010.14647        -6.20849         6.01187
     2010.14921        -1.87877         5.89665
     2010.15195        -5.74205         5.82451
     2010.15468        -3.79234         5.82774
     2010.15742        -2.11962         5.87727
     2010.16016        -1.54890         5.96880
     2010.16290        -8.56818         5.84604
     2010.16564        -8.83846         5.89019
     2010.16837        -4.26075         5.82343
     2010.17111        -0.02403         5.82343
     2010.17385        -2.31431         5.81697
     2010.17659        -4.18559         5.81266
     2010.17932         1.79513         5.79759
     2010.18206         4.85284         5.99680
     2010.18480         1.97956         5.88696
     2010.18754         0.15928         5.79113
     2010.19045         3.12886         6.49537
     2010.19301        -6.60028         5.79866
     2010.19575        -0.16657         5.85466
     2010.19849        -6.02885         5.77605
     2010.20123       -10.07613         5.82666
     2010.20397        -6.37041         5.91065
     2010.20670       -12.87369         5.98926
     2010.20944        -4.93097         5.86435
     2010.21218        -3.16226         5.83851
     2010.21492        -4.73854         5.80836
     2010.21765        -3.19182         5.80943
     2010.22039        -3.49410         5.85466
     2010.22313       -10.44838         5.85251
     2010.22587        -2.99767         5.92573
     2010.22861        -0.14895         5.91711
     2010.23134         0.34577         5.96234
     2010.23408        -9.08351         5.93004
     2010.23682        -2.97379         5.96880
     2010.23956         3.88392         5.97849
     2010.24230         5.72164         6.13355
     2010.24503         0.00236         5.96880
     2010.24777         0.60308         5.99034
     2010.25051        -1.19720         6.10879
     2010.25325         5.31051         5.97526
     2010.25598         2.74323         5.98818
     2010.25872         6.74695         5.95157
     2010.26146         3.36767         6.08402
     2010.26420         3.83939         6.11094
     2010.26694         1.84210         5.95480
     2010.26967        -1.55118         6.03987
     2010.27241        -0.49746         6.04741
     2010.27515         1.78826         5.95480
     2010.27789        -0.43202         6.07756
     2010.28062         0.02870         5.83851
     2010.28336        -7.43859         5.99034
     2010.28610        -5.08987         6.09156
     2010.28884        -4.94915         5.87620
     2010.29158         3.29857         6.03341
     2010.29431        -0.90971         5.96772
     2010.29705        -1.65400         5.88589
     2010.29979         1.00372         6.00111
     2010.30253         4.89044         6.00003
     2010.30527        13.25616         6.08617
     2010.30800        11.10488         5.87943
     2010.31074         0.63659         5.95911
     2010.31348         2.35231         5.91388
     2010.31622         0.89203         5.93004
     2010.31895         6.31775         6.13571
     2010.32158         9.59356         6.55890
     2010.32540        12.23338        13.04457
     2010.32717         1.73590         7.08762
     2010.32991         3.96562         5.88804
     2010.33173        -2.33090        10.85971
     2010.34360        -3.73879         5.87081
     2010.34633        -4.81207         5.96988
     2010.34907        -2.71335         5.85143
     2010.35181        -3.23464         5.88589
     2010.35455        -1.65992         5.82666
     2010.35728        -3.78520         5.90635
     2010.36002        -6.42648         6.02910
     2010.36276        -3.42176         5.83420
     2010.36550        -5.29604         6.11525
     2010.36824        -9.80733         6.06895
     2010.37097        -0.36161         5.85358
     2010.37371         3.58911         5.90419
     2010.37645         7.42483         6.09156
     2010.37919        -1.50245         6.02480
     2010.38193         1.97826         6.14109
     2010.38466        -0.70502         5.98280
     2010.38740         1.85670         5.90419
     2010.39014        -2.45558         5.90527
     2010.39288        -3.27486         5.89665
     2010.39561        -6.14815         5.90527
     2010.39835        -1.13243         5.83958
     2010.40109        -4.92771         5.80728
     2010.40383        -1.24099         5.83635
     2010.40657        -0.33727         5.81697
     2010.40930        -0.03356         5.81697
     2010.41204        -4.18784         5.96126
     2010.41478         0.62588         5.84389
     2010.41752         5.07660         5.84066
     2010.42026         7.69932         5.91604
     2010.42299         5.15103         5.76528
     2010.42573        -2.09925         5.76098
     2010.42847        -5.65553         5.79651
     2010.43121         0.65219         5.82882
     2010.43394        -6.84509         5.80405
     2010.43668        -5.63638         5.90312
     2010.43942         1.91334         5.76744
     2010.44216        -7.89594         5.83097
     2010.44490       -10.27722         6.78826
     2010.44763        -6.40050         5.79220
     2010.45037       -14.06578         5.98495
     2010.45311        -4.68107         5.83205
     2010.45585        -3.14035         5.84497
     2010.45859        -2.09463         5.89127
     2010.46132        -5.10191         5.88912
     2010.46406        -6.09719         5.77390
     2010.46680         0.35352         5.87081
     2010.46954        -5.20676         5.85681
     2010.47227       -12.47204         5.89558
     2010.47501        -7.20332         5.82666
     2010.47775       -12.21960         6.06895
     2010.48049         2.66311         6.15832
     2010.48323        -1.52817         5.82989
     2010.48596         5.93655         5.86866
     2010.48870         4.63327         5.87943
     2010.49144         3.94099         5.83528
     2010.49418         6.49370         5.89342
     2010.49692        -0.11758         5.76959
     2010.49965         4.62014         5.78359
     2010.50239         3.65286         5.80082
     2010.50513         5.80158         5.75236
     2010.50787         1.49329         5.80836
     2010.51060        -3.98499         5.84820
     2010.51340        -2.30732         5.93004
     2010.51608         1.67045         5.77713
     2010.51882         1.34217         5.84712
     2010.52156         3.27888         5.87296
     2010.52429         7.55360         5.86004
     2010.52703        -0.26468         6.27139
     2010.52977         7.51704         5.94296
     2010.53251         0.03176         5.74698
     2010.53525         5.98248         5.82666
     2010.53798        10.63419         5.93004
     2010.54072        -0.12009         5.80836
     2010.54346         0.09563         5.92681
     2010.54620        -2.04265         5.90742
     2010.54893        -2.94393         5.84066
     2010.55167         0.29878         5.80728
     2010.55441        10.60850         5.85251
     2010.55715        -3.61778         5.80082
     2010.55989        -2.79606         5.78790
     2010.56262         8.65066         5.97419
     2010.56536         3.47037         5.84389
     2010.56810        -4.64991         5.83958
     2010.57084         3.16381         5.87835
     2010.57357         7.01753         5.99465
     2010.57631         0.80925         6.02803
     2010.57905         4.83696         5.95911
     2010.58179         2.23668         5.94296
     2010.58453         6.41540         5.83851
     2010.58726        -2.77988         5.98172
     2010.59000         9.42184         5.94511
     2010.59274         8.53055         5.85143
     2010.59548         7.69227         5.97096
     2010.59822        12.21799         5.94619
     2010.60095        10.27971         5.87512
     2010.60369         2.11443         5.94619
     2010.60643        11.41414         5.91388
     2010.60917         3.74486         5.97526
     2010.61190         4.23158         6.33492
     2010.61464         4.06530         6.19601
     2010.61738        -2.17298         5.80836
     2010.62012         4.32574         5.82666
     2010.62286         1.78145         5.82774
     2010.62559         6.90017         5.87296
     2010.62833        13.11389         6.29723
     2010.63107         2.58461         6.51259
     2010.63381         7.08333         5.82020
     2010.63655         6.72604         5.87189
     2010.63928         5.63376         5.89450
     2010.64202         1.13248         5.96449
     2010.64476        -2.32680         6.13355
     2010.64750         5.39392         5.80297
     2010.65023         4.71263         5.95803
     2010.65297         4.98435         6.32954
     2010.65571         4.78707         5.81805
     2010.65845         3.07879         5.76205
     2010.66119         5.84451         5.83958
     2010.66392         7.67422         5.84927
     2010.66666        14.35394         5.88912
     2010.66940         0.04866         5.77282
     2010.67214         2.60738         5.78574
     2010.67488        14.71010         5.84604
     2010.67761        13.20081         5.77067
     2010.68035         6.81453         5.73082
     2010.68309         8.23025         5.77174
     2010.68583        10.22297         5.75667
     2010.68856         6.67569         5.79113
     2010.69130         8.02240         5.74052
     2010.69404         1.02112         5.91496
     2010.69678         0.16084         5.79759
     2010.69952         1.95656         5.78682
     2010.70225         5.37028         5.80728
     2010.70499         4.77700         5.89989
     2010.70773        10.30471         5.79866
     2010.71047         7.69843         5.75990
     2010.71321         7.24115         5.79436
     2010.71594        14.07287         5.80728
     2010.71868        11.36759         5.78251
     2010.72142        12.72530         5.99680
     2010.72416         3.47302         5.97849
     2010.72689         3.80674         5.90312
     2010.72963         8.12146         5.78897
     2010.73237         6.51618         5.82774
     2010.73799        -3.86151         6.21862
     2010.74058        -4.15767         6.18093
     2010.74332        -0.44295         5.89450
     2010.74606         5.44977         5.90742
     2010.74880         5.65248         5.92358
     2010.75154         3.79820         5.85035
     2010.75427         8.79092         5.95696
     2010.75701        -0.78136         5.88266
     2010.75975         1.25136         5.80513
     2010.76249         8.75907         5.81374
     2010.76522         4.17679         5.84389
     2010.76796         9.34851         5.78897
     2010.77070         6.37023         5.78467
     2010.77344        16.66695         5.87727
     2010.77618         3.12466         5.89989
     2010.77891        -2.03762         5.80513
     2010.78165         1.06110         5.83205
     2010.78439         2.42282         5.87727
     2010.78713        10.98154         6.02264
     2010.78987         8.54326         5.92573
     2010.79260         8.84697         5.78359
     2010.79534         3.54069         5.76636
     2010.79808         9.32641         5.78144
     2010.80082         5.47713         5.81159
     2010.80355         5.74385         5.71467
     2010.80629         4.22656         5.76528
     2010.80903         9.91428         5.79005
     2010.81177        15.58500         5.71575
     2010.81451        18.20872         5.69960
     2010.81724        15.26744         5.68237
     2010.81998         8.04115         5.68452
     2010.82272         5.66587         5.81159
     2010.82546         7.92559         5.68345
     2010.82820         7.89331         5.66406
     2010.83093        13.62703         5.98388
     2010.83367         5.23174         5.92681
     2010.83641        11.37046         5.74913
     2010.83915        -2.22582         5.71683
     2010.84188        -2.18410         5.66299
     2010.84462         3.26162         5.69852
     2010.84736        10.85833         5.90635
     2010.85010         8.53605         5.68560
     2010.85284        13.02477         5.67052
     2010.86926         4.47408         6.81518
     2010.87200         3.14480         6.83456
     2010.87474         6.52052         6.99932
     2010.87748         3.73123         6.92394
     2010.88021         5.78095         6.82056
     2010.88295        -0.99233         6.85718
     2010.88569         6.35539         6.87010
     2010.88843         2.33411         7.22976
     2010.89117         5.05382         7.19637
     2010.89390         4.49254         6.83241
     2010.89664         5.07426         6.81303
     2010.89938         6.78198         6.84641
     2010.90212         1.05870         6.82056
     2010.90485         1.18241         6.75057
     2010.90759         1.59813         6.77318
     2010.91033         0.41485         6.79041
     2010.91307       -11.52743         6.77103
     2010.91581       -22.85871         6.79364
     2010.91854        -2.23800         6.74949
     2010.92128         1.22572         6.75057
     2010.92402        -3.05656         6.76672
     2010.92676         0.53216         6.74303
     2010.92950         1.47088         6.73442
     2010.93223        -3.40741         6.85502
     2010.93497        -3.29069         6.90133
     2010.93771        -6.35197         6.80011
     2010.94045         6.78775         7.00039
     2010.94318         3.50247         6.76134
     2010.94592         3.86319         6.84749
     2010.94866         2.36290         6.79364
     2010.95140         7.98262         7.09085
     2010.95414         6.45934         6.85072
     2010.95687         4.28106         6.85072
     2010.95961        -0.29722         7.05208
     2010.96235         4.56749         6.81410
     2010.96509         3.00521         6.78611
     2010.96783         2.22493         6.76888
     2010.97056       -17.42135         6.85395
     2010.97330       -23.53063         6.89702
     2010.97604       -17.98992         6.81087
     2010.97878       -15.75220         7.02085
     2010.98151         2.95852         6.77426
     2010.98425         2.71524         6.90133
     2010.98699        -0.56104         6.92179
     2010.98973         2.48867         6.98855
     2010.99247         6.40539         7.20499
     2010.99520         3.77911         6.92502
     2010.99794        -0.92517         6.82595
     2011.00108        -0.56879         8.55209
     2011.00342         3.73226         7.14576
     2011.00616         4.40998         6.89917
     2011.00889         6.89070         7.01224
     2011.01163         5.07842         6.72796
     2011.01437        -3.05386         6.88948
     2011.01711        -1.30815        10.09194
     2011.01984         6.02757         6.81733
     2011.02258        -1.41971         6.73119
     2011.02532        -4.46699         6.71719
     2011.02806        -5.06727         6.93148
     2011.03080       -14.58155         7.03377
     2011.03353       -23.54484         6.79687
     2011.03627       -27.80412         6.92502
     2011.03901        -3.21740         6.73980
     2011.04226         0.05089         9.11634
     2011.04449         2.03604         6.75488
     2011.04722         3.98375         7.03054
     2011.04996        -1.09253         6.99393
     2011.05270        -1.39481         6.76888
     2011.05544        -4.70209         6.73334
     2011.05817        -3.66937         6.73011
     2011.06091        -3.71766         6.79687
     2011.06365        -0.46194         6.77857
     2011.06639         5.28978         6.74519
     2011.06913        -1.71250         7.07039
     2011.07186        -6.01478         6.84749
     2011.07460       -10.18307         6.76888
     2011.07734         0.17465         6.79472
     2011.08008        -1.97063         6.79472
     2011.08282       -10.00191         6.79472
     2011.08555       -11.81619         6.80118
     2011.08829        -5.81948         6.81087
     2011.09103       -10.59976         6.80764
     2011.09377        -8.88704         6.80011
     2011.09650        -0.27432         6.90886
     2011.09924        -3.26360         6.83133
     2011.10198       -18.34789         6.80118
     2011.10472       -13.89517         6.78503
     2011.10746        -6.64045         6.83026
     2011.11019         1.20927         6.72904
     2011.11293        -1.92701         6.79364
     2011.11567         1.99671         6.82272
     2011.11841        -2.49558         6.82703
     2011.12115       -10.50986         6.75057
     2011.12388        -4.55314         7.09946
     2011.12662         2.59058         7.14684
     2011.12936         3.47330         6.76349
     2011.13210        -0.63899         6.81949
     2011.13483        -4.03327         6.79041
     2011.13757         1.04545         6.78934
     2011.14031         0.86517         6.73334
     2011.14305         0.58989         6.95947
     2011.14579        -2.15640         6.93471
     2011.14852        -1.98768         6.70319
     2011.15126         0.62604         6.72796
     2011.15400         6.45676         6.81733
     2011.15674         2.09748         6.71611
     2011.15948         0.99019         6.88194
     2011.16221        -5.41909         6.74842
     2011.16495        -6.09037         6.72796
     2011.16769        -9.48565         6.73227
     2011.17043        -8.57193         6.75380
     2011.17316       -17.58622         6.72796
     2011.17590       -11.72550         6.78718
     2011.17864        -0.61178         6.83133
     2011.18138        -5.53506         6.71073
     2011.18412        -4.66734         6.74088
     2011.18685        -7.52863         6.88840
     2011.18959        -1.20391         6.75811
     2011.19233        -4.72519         6.86687
     2011.19507         1.63253         6.83026
     2011.19780        -0.97975         6.93578
     2011.20054        -2.60103         6.79687
     2011.20328         2.82368         6.87979
     2011.20602         0.41340         6.84533
     2011.20876        -4.17088         6.94117
     2011.21149        -9.48916         6.84425
     2011.21423        -1.71044         6.80980
     2011.21697         3.04027         6.83349
     2011.21971         1.58499         6.89163
     2011.22245        -4.65729         6.83026
     2011.22518         3.07843         6.77857
     2011.22792         2.95515         6.76780
     2011.23066        -0.89014         6.71504
     2011.23340         2.85358         6.79580
     2011.23613         0.95030         6.84533
     2011.23887        -2.12398         6.76672
     2011.24161        -4.03026         6.77426
     2011.24435        -6.51755         6.87764
     2011.24709        -6.13783         6.78503
     2011.24982         0.31689         6.79795
     2011.25256        -3.24539         6.82810
     2011.25530        -0.56867         6.72904
     2011.25804         1.26904         7.11023
     2011.26078         1.96676         7.02947
     2011.26351        -5.66452         6.72796
     2011.26625       -14.12780         6.79903
     2011.26899        -0.08108         7.16730
     2011.27173        -5.87837         7.08869
     2011.27446        -2.07665         7.34174
     2011.27720        -3.39693         7.25452
     2011.27994        -1.00421         6.76565
     2011.28268        -8.35149         6.79903
     2011.28542        -5.85577         6.81410
     2011.28815        -2.61206         6.79687
     2011.29089         0.70866         7.02947
     2011.29363        -1.38362         7.25022
     2011.29637        -1.97190         6.71934
     2011.29911        -5.48618         6.72042
     2011.30184        -0.27047         6.70750
     2011.30458        -1.76275         6.80764
     2011.30732        -5.06403         6.74196
     2011.31006         1.49869         6.71934
     2011.31279        -2.19159         6.75273
     2011.31553        -0.35888         6.84641
     2011.31827        -2.29116         6.84425
     2011.32101        -3.85744         6.76995
     2011.32375        -5.22272         6.71396
     2011.32648       -10.84200         6.76026
     2011.32922       -13.86729         6.73119
     2011.33196       -12.82757         6.73657
     2011.33470        -6.58485         6.97132
     2011.33744       -10.62513         6.92394
     2011.34017        -4.42841         7.06500
     2011.34291        -3.33370         7.05316
     2011.34565        -0.60798         6.92717
     2011.34839        -7.95626         6.96378
     2011.35112        -8.49654         7.04131
     2011.35386       -14.67982         6.95732
     2011.35660       -10.95310         6.72473
     2011.35934        -9.26039         6.84749
     2011.36208       -16.90267         6.86256
     2011.36481        -8.52395         7.06823
     2011.36755        -6.39723         7.02516
     2011.37029        -7.72951         6.97024
     2011.37303        -5.81780         6.95517
     2011.37577       -11.70708         6.99286
     2011.37850       -13.85636         7.00255
     2011.38124        -8.73364         7.00685
     2011.38398       -13.13192         7.09731
     2011.38672        -9.65021         6.95840
     2011.38945        -7.43049         7.12100
     2011.39219        -7.30377         6.97455
     2011.39493        -3.50005         6.97563
     2011.39767         0.21267         7.05531
     2011.40041        -7.41262         7.05746
     2011.40314        -7.33190         6.92825
     2011.40588        -6.69618         6.94440
     2011.40862        -3.10446         6.96809
     2011.41136        -6.08874         7.03593
     2011.41410        -7.90303         7.04885
     2011.41683        -7.55731         7.02516
     2011.41957       -12.16559         7.00901
     2011.42231       -16.20187         7.00039
     2011.42505        -8.43715         7.31913
     2011.42778        -6.97444         6.95301
     2011.43052         2.10328         7.23729
     2011.43326       -12.17800         7.12853
     2011.43600       -14.36628         6.89487
     2011.43874        -7.21756         6.98747
     2011.44147        -3.44884         7.18345
     2011.44421        -1.23113         7.04885
     2011.44695        -5.21141         7.02301
     2011.44969        -7.82469         7.00039
     2011.45243        -2.99897         7.01978
     2011.45516        -8.21325         6.96809
     2011.45790        -1.02654         6.95624
     2011.46064        -1.04482         7.06393
     2011.46338        -5.58910         7.00255
     2011.46611        -8.43338         7.04347
     2011.46885        -0.65866         7.11023
     2011.47159       -13.38395         7.10915
     2011.47433        13.78077         7.25345
     2011.47707        -1.27051         7.17053
     2011.47980         0.81921         7.05854
     2011.48254        -8.18307         7.02408
     2011.48528        -8.98636         7.09623
     2011.48802        -2.63464         7.05746
     2011.49076         7.53908         7.17161
     2011.49349       -11.97320         7.22114
     2011.49623        -4.59748         7.40097
     2011.49897        -8.09877         7.03808
     2011.50171        -1.70105         7.14361
     2011.50444         1.41667         7.09946
     2011.50718        -6.40261         7.00793
     2011.50992        -0.35489         7.01332
     2011.51266         0.27982         7.11131
     2011.51540         3.40454         7.14899
     2011.51813        -0.52074         7.05639
     2011.52087        -3.76002         6.96486
     2011.52361        -3.09830         7.09515
     2011.52635        -3.24458         7.10161
     2011.52908         5.65713         7.16730
     2011.53182        -1.78515         7.13177
     2011.53456         5.68057         7.62710
     2011.53730        -0.42071         7.03162
     2011.54004        -3.30899         7.01332
     2011.54277        -0.74428         7.09085
     2011.54551         9.16044         6.99501
     2011.54825        -1.89884         7.10592
     2011.55099         3.23788         7.02839
     2011.55373         5.53060         7.12315
     2011.55646         1.60631         6.93040
     2011.55920         2.08803         6.97024
     2011.56194         9.08775         7.02516
     2011.56468         9.42147         7.14576
     2011.56741         5.17519         7.15438
     2011.57015         0.47590         7.18776
     2011.57289         7.46162         7.09731
     2011.57563        10.03134         6.98316
     2011.57837         3.40606         7.03377
     2011.58110        10.21478         7.24268
     2011.58384         4.84749         7.05423
     2011.58658         5.40021         7.35682
     2011.58932         4.44793         7.07792
     2011.59206        -3.21635         7.08546
     2011.59479         5.83137         7.01870
     2011.59753         2.40808         7.03701
     2011.60027         6.35880         6.99393
     2011.60301         2.12452         7.04454
     2011.60574         3.79224         7.12315
     2011.60848         8.93996         7.17807
     2011.61122         6.36268         7.35574
     2011.61396         0.10839         7.26960
     2011.61670         3.04611         7.19745
     2011.61943         7.61883         7.35897
     2011.62217         0.96555         7.17376
     2011.62491        -0.08773         7.08869
     2011.62765        -5.72502         7.13069
     2011.63039         2.03970         6.97563
     2011.63312        -1.11858         7.04239
     2011.63586         4.31714         7.02624
     2011.63860        10.10986         7.16838
     2011.64134        15.89357         7.65187
     2011.64407         4.55629         7.42251
     2011.64681        17.30701         7.10377
     2011.64955         9.31773         7.44189
     2011.65229         5.49345         7.16622
     2011.65508         3.83612         7.34282
     2011.65776         3.05788         7.24591
     2011.66050        12.82460         7.57003
     2011.66324        15.43732         7.53126
     2011.66598         7.12704         7.50004
     2011.66872         8.30975         7.46881
     2011.67145        11.48647         7.07792
     2011.67419         7.11019         7.07577
     2011.67693        13.84391         7.10808
     2011.67967         3.73063         7.04347
     2011.68240        -1.10066         7.20607
     2011.68514         9.93706         7.32990
     2011.68788         7.05578         7.24914
     2011.69062         6.13250         7.21576
     2011.69336         9.65522         7.14146
     2011.69609         7.49794         7.18668
     2011.69883         5.72865         7.22868
     2011.70157         3.99937         7.17915
     2011.70431        12.96009         7.16945
     2011.70705        12.75281         7.35897
     2011.70978        10.07253         7.12207
     2011.71252        13.43624         7.13500
     2011.71526        14.38596         7.41497
     2011.71800        10.99968         7.30406
     2011.72073        11.70540         7.09838
     2011.72347        12.69212         7.28252
     2011.72621        12.90483         7.18345
     2011.72895        16.20755         7.16299
     2011.73169        25.54427         7.23945
     2011.73442        19.37099         7.13607
     2011.73716         8.38271         7.29544
     2011.73990         2.47742         7.09623
     2011.74264         7.94014         7.04562
     2011.74538         9.22086         7.41928
     2011.74811        14.88558         7.67125
     2011.75085         2.10230         7.53019
     2011.75359         4.44701         7.50542
     2011.75633         3.46973         7.20176
     2011.75906        16.95145         7.23729
     2011.76180        12.16317         7.13715
     2011.76454        17.14989         7.15115
     2011.76728         2.81260         7.19207
     2011.77002        10.34532         7.25775
     2011.77275        11.64004         7.14361
     2011.77549        15.39376         7.22437
     2011.77823        12.86848         7.21683
     2011.78097         5.03220         7.19099
     2011.78371         1.13991         7.21899
     2011.78644         9.07163         7.22006
     2011.78918         4.73635         7.21576
     2011.79192        -0.77593         7.22114
     2011.79471         3.10074         7.32559
     2011.79739         4.38450         7.17376
     2011.80287         6.31894         7.18668
     2011.80561         1.68866         7.17484
     2011.80835        12.77938         7.42466
     2011.81108         9.34609         7.14361
     2011.81382        -4.24919         8.12028
     2011.81656         1.74653         7.12961
     2011.82203         5.81497         7.12315
     2011.82477         8.46868         7.08762
     2011.82751        -0.51260         7.17915
     2011.83025        11.65912         7.21253
     2011.83299         2.00084         7.43327
     2011.83572         2.57356         7.09623
     2011.84120        13.63399         7.17161
     2011.84394        12.19571         7.16838
     2011.84668        10.46443         7.13930
     2011.84941         6.72215         7.15007
     2011.85215        -2.94014         7.09300
     2011.85489         2.41858         7.36974
     2011.86036         2.75602         7.12530
     2011.86310         5.43574         7.31052
     2011.86584         8.62046         7.14792
     2011.86858        15.17717         7.15115
     2011.87132         7.32489         7.23191
     2011.87405         8.28761         7.14146
     2011.87953        -1.17995         7.24698
     2011.88244        -4.65938         7.90492
     2011.88501        -0.37452         7.16407
     2011.88774        -5.04380         7.17161
     2011.89048       -10.73608         7.21576
     2011.89322         7.06264         7.10808
     2011.89867         4.54410         7.28467
     2011.90160        -2.14135         7.82093
     2011.90417         8.15851         7.19314
     2011.90691         5.29823         7.29329
     2011.90965         5.18294         7.11131
     2011.91238        -1.62434         7.25345
     2011.91786         1.08810         7.20284
     2011.92060         1.69382         7.18668
     2011.92334         0.25953         7.30406
     2011.92607        -8.31775         7.30729
     2011.92881         2.57097         7.29006
     2011.93155         4.93869         7.32344
     2011.93702         0.58513         7.32667
     2011.93976        -1.87116         7.29436
     2011.94250         8.19856         7.30298
     2011.94524         6.16728         7.25237
     2011.94798        11.03700         7.33313
     2011.95071        13.18672         7.09300
     2011.95619         5.58115         7.16407
     2011.95893         6.50887         7.09192
     2011.96167        11.88959         7.08008
     2011.96440         7.69831         7.01978
     2011.96714         8.08002         7.04670
     2011.96988        10.72874         6.87333
     2011.97535        -0.90582         6.90025
     2011.97809        -4.15010         6.92179
     2011.98083         0.51061         6.96701
     2011.98357         1.44933         6.94871
     2011.98631         6.68805         6.96055
     2011.98904        15.97677         7.19960
     2011.99452        12.03020         7.01008
     2011.99726        13.67292         6.95194
     2012.00000         1.63264         6.90886
     2012.00273         6.85836         6.89379
     2012.00547         1.17108         6.87764
     2012.00821         5.94979         7.03808
     2012.01368         9.19823         6.87333
     2012.01642        10.31795         6.86148
     2012.01916         4.28467         6.80441
     2012.02190         9.14639         6.90563
     2012.02464         7.18210         6.90994
     2012.02737         2.49682         6.87118
     2012.03285         6.04926         6.99286
     2012.03559         9.90898         6.91102
     2012.03833         6.31969         6.99932
     2012.04106        11.54941         6.90994
     2012.04380        10.54913         6.98101
     2012.04654         7.62285         6.91640
     2012.05201        10.82028         6.91640
     2012.05475        -1.86200         6.94117
     2012.05749       -15.71028         7.05316
     2012.06023        -5.61656         7.19745
     2012.06288         9.57223         7.16515
     2012.07118        -1.58069         6.87656
     2012.07392         3.42003         6.94440
     2012.07666        -6.93525         6.92071
     2012.07939         0.46946         6.80118
     2012.08213        12.74918         6.83133
     2012.08487        13.63990         6.89917
     2012.09034        -0.93566         6.89271
     2012.09308         4.48105         6.86687
     2012.09582         4.13977         6.90671
     2012.09856         0.49849         6.97778
     2012.10130         0.47121         7.08223
     2012.10403         4.66093         7.57757
     2012.10694        -8.07050         6.21539
     2012.11012         2.53086         9.88196
     2012.11224       -10.16891        24.80235
     2012.11498         4.14381        24.99510
     2012.11771         1.58453        24.06580
     2012.12045         3.09824        24.89065
     2012.12320         4.85395         6.21001
     2012.12594        -2.75533         5.75990
     2012.12866        -7.02560         5.88266
     2012.13141        -7.91289        25.00048
     2012.13414         7.82983        25.18139
     2012.13689         4.85454        23.98181
     2012.13907        -0.78527         7.90600
     2012.14243         5.70893         6.60197
     2012.14510         4.34970         5.82343
     2012.14784        -1.98358         5.71360
     2012.15058        -4.67887         5.67591
     2012.15331         0.83285         5.71790
     2012.15605        -1.62643         5.88266
     2012.15879        -3.08971         5.82343
     2012.16153         1.79601         5.73298
     2012.16427        -5.95128         5.75451
     2012.16700         4.81344         5.78897
     2012.16974        -4.33184         5.72329
     2012.17248        -8.96412         5.71575
     2012.17522         5.05160         5.70606
     2012.17796         0.41831         5.80513
     2012.18069        -2.39297         5.80943
     2012.18343        -7.55425         5.71790
     2012.18617        -2.73253         5.93542
     2012.18891         4.77219         5.80082
     2012.19164         4.61891         5.76528
     2012.19438         7.90562         5.78790
     2012.19712        11.69334         5.74159
     2012.19986        -0.94494         5.71360
     2012.20260        -1.42222         5.72867
     2012.20533         8.97850         5.91496
     2012.20807         3.65721         5.66945
     2012.21081         6.40993         5.67698
     2012.21355         2.15165         5.65868
     2012.21629        -2.54363         5.73836
     2012.21902        -0.00991         5.83528
     2012.22176        -3.11420         5.69421
     2012.22450        -6.16048         5.70390
     2012.22724        -5.74776         5.65545
     2012.22997        -4.08904         5.66191
     2012.23271         3.39368         5.71790
     2012.23545         1.76739         5.69852
     2012.23819         1.84611         5.73836
     2012.24093         6.01583         5.68129
     2012.24366         2.31755         5.68883
     2012.24640         1.22527         5.72652
     2012.24914         2.83098         5.72221
     2012.25188        -4.44130         6.30262
     2012.25462        -5.78558         5.64468
     2012.25735        -1.53486         5.86112
     2012.26009        -9.64914         5.65652
     2012.26283        -6.17943         5.68883
     2012.26557        -9.54571         5.66837
     2012.26830        -9.38599         5.61884
     2012.27104        -4.48727         5.75344
     2012.27378        -1.15855         5.66837
     2012.27652        -3.86283         5.68129
     2012.27926        -4.18012         5.87727
     2012.28199        -1.63140         5.72759
     2012.28473        -5.10968         5.66622
     2012.28747        -3.64796         5.65868
     2012.29021        -2.40424         5.66729
     2012.29295        -7.22653         5.76851
     2012.29568        -6.74981         5.72006
     2012.29842        -3.66109         5.67052
     2012.30116        -4.12137         5.72221
     2012.30390       -12.19465         5.68237
     2012.30663        -7.85494         5.66191
     2012.30937        -4.47022         5.77067
     2012.31211         6.85950         6.12709
     2012.31485        -3.62578         5.86112
     2012.31759        -0.49206         5.72221
     2012.32032        -3.53935         5.75128
     2012.32306        -8.91963         5.68668
     2012.32580        -5.05191         5.70713
     2012.32854        -3.31619         5.68883
     2012.33128         2.77253         5.81482
     2012.33401        -6.88876         5.83097
     2012.33675        -4.21404         5.71360
     2012.33949        -2.52432         5.69637
     2012.34223       -11.55460         5.71467
     2012.34496       -18.25488         5.69529
     2012.34770       -12.31117         5.73190
     2012.35044       -11.93645         5.67052
     2012.35318        -3.27073         5.74375
     2012.35592        -1.60201         5.68345
     2012.35865       -11.03429         5.70175
     2012.36139        -9.68557         5.62960
     2012.36413       -10.40186         5.62637
     2012.36687        -8.03414         5.70067
     2012.36961        -5.75942         5.72221
     2012.37234         4.32830         5.71898
     2012.37508         3.99502         5.75451
     2012.37782        -1.34727         5.77390
     2012.38056        -6.44855         5.77820
     2012.38329        -3.24883         5.80082
     2012.38603        -0.25111         5.81159
     2012.38877         1.40961         5.91065
     2012.39151         6.89032         5.80728
     2012.39425        -3.03596         5.80297
     2012.39698        -5.29124         5.79651
     2012.39972        -4.76552         5.69314
     2012.40246        -4.59580         5.67268
     2012.40520        -3.40709         5.68452
     2012.40794        -4.37737         5.71467
     2012.41067        -2.30565         5.69421
     2012.41341        -4.27993         5.69314
     2012.41615        -7.97321         5.70498
     2012.41889         3.22150         5.92358
     2012.42162        -5.97378         5.69852
     2012.42436        -4.25506         5.64683
     2012.42710        -6.90434         5.72113
     2012.42984        -1.49862         5.65545
     2012.43258        -6.54691         5.70929
     2012.43531        -2.85519         5.70929
     2012.43805        -0.98347         5.64037
     2012.44079        -4.54075         5.66945
     2012.44353       -14.22003         5.70067
     2012.44626        -9.28331         5.71790
     2012.44900        -1.19660         5.73513
     2012.45174        -4.72288         5.79220
     2012.45448       -11.53116         5.77820
     2012.45722        -2.34344         5.66729
     2012.45995        -3.80972         5.97849
     2012.46269         7.20199         5.70175
     2012.46543        -3.63029         5.76313
     2012.46817        -2.50657         5.81912
     2012.47091        -9.92785         5.70175
     2012.47364         0.34487         5.71467
     2012.47638         0.04558         5.90204
     2012.47912        -4.26070         5.83528
     2012.48186        -1.98298         5.77174
     2012.48459        -1.12226         5.71898
     2012.48733        -5.78654         5.63930
     2012.49007        -8.11983         5.69852
     2012.49281        -1.15911         5.76528
     2012.49555        -0.92039         5.73406
     2012.49828         0.39433         5.77713
     2012.50102        -0.03795         5.81697
     2012.50376         7.72176         5.89342
     2012.50650        -5.86252         5.70498
     2012.50924        -1.00480         5.89235
     2012.51197        -2.62708         5.83743
     2012.51471        -6.70036         5.68129
     2012.51745         3.48436         5.75128
     2012.52019        -6.04393         5.75344
     2012.52292         2.52379         5.87512
     2012.52566        -6.24849         5.89773
     2012.52840        -0.05777         5.78467
     2012.53114         2.55695         5.89773
     2012.53388         1.70866         5.84712
     2012.53661        -3.50762         6.00864
     2012.53935        -0.38890         5.73729
     2012.54209         6.63782         5.86973
     2012.54483         5.58054         5.79651
     2012.54757         3.47025         5.70283
     2012.55030         9.60897         5.83635
     2012.55304         7.66869         5.77713
     2012.55578         1.82441         5.71037
     2012.55852        -2.58687         5.91604
     2012.56125         2.91284         5.65114
     2012.56399        -1.34844         5.71467
     2012.56673         2.94828         5.67914
     2012.56947        10.77500         5.86543
     2012.57221         3.61472         5.74805
     2012.57494         7.44643         5.73513
     2012.57768         4.47615         5.86543
     2012.58042         7.64087         5.80405
     2012.58316        -0.96841         5.75775
     2012.58590        12.48031         5.87620
     2012.58863        11.40702         5.77390
     2012.59137         4.21274         5.67375
     2012.59411         5.32846         5.69314
     2012.59685         6.23418         5.75775
     2012.59958        -2.04810         5.82020
     2012.60232         2.46462         5.98065
     2012.60506         5.98833         5.74482
     2012.60780         2.15605         5.70713
     2012.61054         9.95477         5.72867
     2012.61327         1.28649         5.67268
     2012.61601         6.92221         5.74698
     2012.61875         9.49392         5.81697
     2012.62149         7.95864         5.74052
     2012.62423         7.54836         5.72221
     2012.62696         7.36508         5.69098
     2012.62970         3.50980         5.67160
     2012.63244         8.35251         5.74267
     2012.63518         9.65823         5.77174
     2012.63791         9.22895         5.73944
     2012.64065        10.77467         5.83528
     2012.64339         9.89539         5.74590
     2012.64613        18.66210         5.80297
     2012.64887         5.71382         5.70283
     2012.65160        12.63054         5.72006
     2012.65434         8.88926         5.79759
     2012.65708         2.06998         5.97311
     2012.65982         0.19869         6.03126
     2012.66256         7.59041         5.70390
     2012.66529        11.35713         5.70283
     2012.66803        14.20485         5.71575
     2012.67077        12.01157         5.68668
     2012.67351         7.89328         5.66191
     2012.67624         7.26400         5.67052
     2012.67898         3.60372         5.70606
     2012.68172        12.41044         5.75021
     2012.68446         7.27616         5.71790
     2012.68720         7.56288         5.72652
     2012.68993        11.44359         5.78467
     2012.69267        23.00831         5.96019
     2012.69541         9.27103         5.81266
     2012.69815         6.54275         5.79220
     2012.70089         1.05247         5.82128
     2012.70362         0.81618         5.79436
     2012.70636         1.50990         5.71790
     2012.70910         2.78662         5.69529
     2012.71184         8.56834         5.68775
     2012.71457         7.94006         5.71575
     2012.71731        11.80077         5.71575
     2012.72005         9.36449         5.70175
     2012.72279         7.01721         5.65760
     2012.72553        11.44593         5.69098
     2012.72826        15.57465         5.73729
     2012.73100         7.32036         5.82666
     2012.73374         7.65508         5.96019
     2012.73648         3.46680         5.76313
     2012.73921         6.83152         5.76636
     2012.74195        10.30324         5.78682
     2012.74469        16.82095         5.79328
     2012.74743        16.01967         5.77067
     2012.75017         7.60239         6.03664
     2012.75290         7.17611         5.87620
     2012.75564         6.10883         5.69529
     2012.75838         2.79554         5.69206
     2012.76112         6.38426         5.65976
     2012.76386         6.58298         5.67052
     2012.76659         7.09070         5.76098
     2012.76933        12.44842         5.78574
     2012.77207        10.51714         5.84066
     2012.77481         6.81585         5.71898
     2012.77754         4.43057         5.74805
     2012.78028        18.19229         5.80189
     2012.78302        11.28001         5.75990
     2012.78576         6.18973         5.72329
     2012.78850         7.69244         5.80189
     2012.79123        16.09116         6.01403
     2012.79397         9.63888         5.76313
     2012.79671        10.87460         5.72221
     2012.79945        13.98032         5.74698
     2012.80219        21.30603         5.82774
     2012.80492         6.96375         5.77713
     2012.80766         8.36447         5.78682
     2012.81040         8.88219         5.74698
     2012.81314         3.35491         5.74482
     2012.81587         1.96762         5.77713
     2012.81861         3.59934         5.87512
     2012.82135         3.87806         5.78574
     2012.82409         6.58478         5.78251
     2012.82683         5.57650         5.81805
     2012.82956         5.97221         5.82774
     2012.83230         6.31193         5.72113
     2012.83504         5.14965         5.83205
     2012.83778         5.99737         5.76313
     2012.84052         3.68809         5.77282
     2012.84325         3.90580         5.81266
     2012.84599         5.75152         5.95480
     2012.84873        -0.86576         5.80082
     2012.85147         6.83796         5.88589
     2012.85420         1.55068         5.75559
     2012.85694         4.53040         5.78790
     2012.85968         1.89211         5.79759
     2012.86242         0.31083         5.76421
     2012.86516         0.24955         5.75775
     2012.86789        -5.92273         5.99788
     2012.87063         1.24799         5.80513
     2012.87337        -2.25430         5.79759
     2012.87611         1.87142         5.72652
     2012.87885         5.63314         5.68452
     2012.88158        10.32786         5.69314
     2012.88432        -2.48142         5.71360
     2012.88706        -2.99671         5.81805
     2012.88980         3.09601         5.85574
     2012.89253         0.70273         5.68883
     2012.89527        -4.71955         5.68775
     2012.89801       -16.18483         5.74913
     2012.90075         3.43088         5.67698
     2012.90349        -3.84340         5.67698
     2012.90622         0.29332         5.63714
     2012.90896         1.44904         5.70606
     2012.91170        -3.18624         5.75775
     2012.91444         6.90347         5.70390
     2012.91718         7.47819         5.68237
     2012.91991         8.64891         5.67160
     2012.92265         3.26263         5.66837
     2012.92539        -1.31965         5.69314
     2012.92813       -10.20794         5.77928
     2012.93086         1.73578         5.77820
     2012.93360        -0.09850         5.74052
     2012.93634         0.92422         5.67698
     2012.93908         0.77394         5.63822
     2012.94182        -0.33834         5.68021
     2012.94455        12.52137         5.67052
     2012.94729         5.37409         5.77390
     2012.95003         3.58281         5.77282
     2012.95277         5.40553         5.68775
     2012.95551        10.21825         5.66622
     2012.95824         6.24096         5.63068
     2012.96098        -3.99532         5.79113
     2012.96372        -4.63860         5.78359
     2012.96646        -0.34188         5.65222
     2012.97193        -2.66945         5.78574
     2012.97467         1.10027         5.64253
     2012.97741         7.19399         5.68991
     2012.98015         1.91371         5.63068
     2012.98288         0.38243         5.61561
     2012.98562         5.15714         5.63391
     2012.98836        -0.56314         5.62637
     2012.99110         1.35458         5.67268
     2012.99384         0.19130         5.69421
     2012.99657         3.60002         5.65114
     2012.99931         2.04973         5.70606
     2013.00205         2.80245         5.66945
     2013.00479        -0.16683         5.68668
     2013.00752        -0.80711         5.65222
     2013.01026        -1.45839         5.68775
     2013.01300         3.60432         5.65222
     2013.01574        -1.12796         5.65437
     2013.01848        -4.74224         5.70498
     2013.02121       -13.82452         5.74805
     2013.02395       -17.40380         5.76313
     2013.02669         1.42192         5.79220
     2013.02943         1.23363         5.69206
     2013.03216         0.67135         5.70175
     2013.03490        -2.68393         5.68129
     2013.03764        -3.55921         5.71790
     2013.04038        -0.57249         5.69852
     2013.04312         5.49922         5.77390
     2013.04585        -1.66106         5.80620
     2013.04859        -3.99734         5.86543
     2013.05133        -3.47462         5.71037
     2013.05407        -2.96490         5.70390
     2013.05681        -2.74719         5.69637
     2013.05954         2.25353         5.75667
     2013.06228        -1.19575         5.86004
     2013.06502        -6.63003         5.85681
     2013.06776        -0.87131         5.76636
     2013.07049         2.64540         5.71467
     2013.07323         3.73512         5.64899
     2013.07597         4.48284         5.69529
     2013.07871         9.71356         5.66083
     2013.08145         7.16928         5.70606
     2013.08418         5.21099         5.67806
     2013.08692         2.29671         5.67591
     2013.08966        -4.62957         5.67806
     2013.09240        -0.26385         5.67591
     2013.09514         2.10587         5.71144
     2013.09787         5.65459         5.87512
     2013.10061         0.47430         6.00757
     2013.10335        -1.09098         5.73082
     2013.10609        -2.03226         5.66622
     2013.10882         2.29446         5.67268
     2013.11156        -6.19682         5.78897
     2013.11430        -5.62411         5.69960
     2013.11704        -7.26139         5.77928
     2013.11978        -2.48767         5.98711
     2013.12251        -2.44195         5.79113
     2013.12525       -13.15123         5.71467
     2013.12799        -3.88752         5.76744
     2013.13073         1.83120         5.74590
     2013.13347        -2.24608         5.74590
     2013.13620        -1.22836         5.77174
     2013.13894         1.20736         5.74913
     2013.14168         2.67007         5.76528
     2013.14442         2.97579         5.90204
     2013.14715        10.16651         5.84066
     2013.14989        -2.66477         5.75236
     2013.15263        -3.14205         5.72652
     2013.15537        -7.93534         5.71898
     2013.15811        -8.65862         5.70821
     2013.16084        -7.35490         5.68991
     2013.16358       -10.15018         5.73729
     2013.16632       -12.39646         5.71683
     2013.16906        -1.43875         5.78251
     2013.17180        -5.76803         5.69960
     2013.17453        -6.16431         5.67160
     2013.17727         0.09541         5.83097
     2013.18001        -6.08287         5.84712
     2013.18275        -2.89515         5.73944
     2013.18548        -5.44744         5.71144
     2013.18822        -8.60472         5.70283
     2013.19096        -9.69200         5.71144
     2013.19370       -10.22828         5.69852
     2013.19644       -10.67956         5.73406
     2013.19917        -8.42385         5.70929
     2013.20191        -4.43613         5.73944
     2013.20465        -1.77141         5.72436
     2013.20739         5.78431         5.98280
     2013.21013         2.16503         5.71144
     2013.21286        -5.03226         5.66945
     2013.21560        -9.17254         5.71790
     2013.21834         0.26018         5.67375
     2013.22108        -4.30710         5.65545
     2013.22381        -7.01638         5.65222
     2013.22655       -12.74667         5.66083
     2013.22929        -9.12895         5.64683
     2013.23203        -7.78123         5.65329
     2013.23477        -7.71651         5.66945
     2013.23750        -8.60879         5.83528
     2013.24024        -6.99808         5.82128
     2013.24298        -7.87636         5.80082
     2013.24572        -3.00464         5.79436
     2013.24846        -5.98192         5.77497
     2013.25119        -9.42820         5.82882
     2013.25393       -11.18849         5.85251
     2013.25667        -4.97577         5.96665
     2013.25941         1.19795         5.82558
     2013.26214         3.71767         5.83635
     2013.26488        -1.74761         5.79651
     2013.26762        -5.17289         5.77390
     2013.27036       -10.00018         5.80620
     2013.27310        -2.89846         5.86112
     2013.27583         0.03626         5.85035
     2013.27857        -2.97302         5.90204
     2013.28131         8.44470         5.80082
     2013.28405        -4.34259         5.79113
     2013.28679        -3.09887         5.78144
     2013.28952        -8.75515         5.76205
     2013.29226        -8.34043         5.74375
     2013.29500        -8.87771         5.78790
     2013.29774       -13.39700         5.81374
     2013.30047        -8.30728         5.79543
     2013.30321       -17.16756         5.80836
     2013.30595       -11.33784         5.74805
     2013.30869       -12.63412         5.76205
     2013.31143       -11.60541         5.81051
     2013.31416        -7.21969         5.78144
     2013.31690        -3.41697         5.84281
     2013.31964        -3.25925         5.75128
     2013.32238        -3.37153         5.81159
     2013.32512         2.47918         5.86004
     2013.32785        -3.70310         5.79543
     2013.33059       -10.77838         5.78144
     2013.33333       -11.79466         5.75667
     2013.33607       -11.01894         5.77605
     2013.33880       -10.52523         5.75128
     2013.34154        -6.21151         5.78682
     2013.34428        -5.67179         5.82558
     2013.34702        -6.17007         5.84066
     2013.34976        -9.13035         5.78790
     2013.35249        -6.73563         5.79651
     2013.35523        -6.93192         5.87620
     2013.35797       -11.69820         5.77820
     2013.36071        -2.78848         5.81374
     2013.36344         8.05524         5.95050
     2013.36618        -0.03504         5.89881
     2013.36892        -1.88633         5.73298
     2013.37166        -5.55061         5.78897
     2013.37440        -7.57289         5.78359
     2013.37713        -2.25517         5.91065
     2013.37987        -4.47945         5.78144
     2013.38261        -9.61774         5.81697
     2013.38535        -6.72702         5.93434
     2013.38809        -6.01330         5.82666
     2013.39082        -5.32558         5.82774
     2013.39356        -4.36586         5.80405
     2013.39630        -1.28615         5.86866
     2013.39904        -4.58943         5.78574
     2013.40177        -0.20971         5.83958
     2013.40451        -2.39399         5.81912
     2013.40725         1.34073         5.92250
     2013.40999         0.54444         5.82020
     2013.41273         0.08816         5.86650
     2013.41546       -10.60212         6.17986
     2013.41820        -3.84740         5.86435
     2013.42094        -0.21868         5.86220
     2013.42368        -6.11697         5.89342
     2013.42642        -2.47925         5.88481
     2013.42915        -3.46753         5.98495
     2013.43189        10.33219         6.08402
     2013.43463        -4.15109         5.99249
     2013.43737        -3.78537         5.87943
     2013.44010        -3.05266         5.85358
     2013.44284        -1.93294         5.82128
     2013.44558        -5.16222         5.97742
     2013.44832        -5.96050         5.92465
     2013.45106        -5.54778         5.83743
     2013.45379        -6.26107         5.83097
     2013.45653        -5.16135         5.81912
     2013.45927         1.61337         5.81159
     2013.46201         0.15109         5.93650
     2013.46475        -1.37819         5.80189
     2013.46748        -0.84648         5.81374
     2013.47022        -3.26976         5.76851
     2013.47296        -3.82004         5.67591
     2013.47570        -9.10832         5.77390
     2013.47843         4.75140         5.73621
     2013.48117         3.54911         5.76421
     2013.48391        -1.69617         5.77067
     2013.48665        -1.67345         5.75667
     2013.48939        -4.57373         5.78897
     2013.49212        -8.69401         6.02695
     2013.49486        -3.32530         5.84497
     2013.49760         0.50642         5.77928
     2013.50034         0.09214         5.78144
     2013.50308        16.61586         6.07433
     2013.50581         4.97758         5.71790
     2013.50855         6.51629         5.72221
     2013.51129         6.31901         5.76528
     2013.51403         6.98073         5.73944
     2013.51676         6.79545         5.87943
     2013.51950         3.62917         5.77820
     2013.52224         6.37389         5.68883
     2013.52498        18.94460         6.14325
     2013.52772        -0.35268         5.73836
     2013.53045         0.60004         5.83635
     2013.53319         0.15376         5.80405
     2013.53593        14.24448         5.76528
     2013.53867        -0.39281         5.66191
     2013.54141        -0.12609         5.87727
     2013.54414        -6.70737         5.77067
     2013.54688         1.62635         5.76636
     2013.54962         4.87007         5.84927
     2013.55236        -0.78822         5.69637
     2013.55509         0.26150         5.74482
     2013.55783        -0.72678         5.74375
     2013.56057        -0.01106         5.81589
     2013.56331        -3.26634         5.82989
     2013.56605        -0.31663         5.83312
     2013.56878        14.37409         5.79866
     2013.57152         5.43681         5.73729
     2013.57426         4.59453         5.69529
     2013.57700         3.49025         5.78144
     2013.57974        -3.11204         5.72759
     2013.58247         6.73768         5.76959
     2013.58521         6.92740         5.75344
     2013.58795         5.53612         5.77605
     2013.59069         3.13984         5.73082
     2013.59342         2.24455         5.80082
     2013.59616         6.75027         5.82451
     2013.59890         5.24499         5.78467
     2013.60164         1.57271         5.72867
     2013.60438         5.04643         5.77174
     2013.60711         2.99915         5.76851
     2013.60985         4.69686         5.89881
     2013.61259         2.48658         5.87835
     2013.61533         5.78630         5.96665
     2013.61807         6.16702         5.86004
     2013.62080         3.41874         5.76636
     2013.62354         7.92845         5.79651
     2013.62628         8.49217         5.71467
     2013.62902         4.43889         5.80297
     2013.63175         9.09261         5.73298
     2013.63449         6.09033         5.85466
     2013.63723        10.78404         5.73082
     2013.63997         9.46176         5.75021
     2013.64271         6.86148         5.77605
     2013.64544        13.31920         5.72006
     2013.64818         7.14092         5.77067
     2013.65092         8.27063         5.81482
     2013.65366         6.75335         5.76528
     2013.65639         8.23807         5.67591
     2013.65913         7.36679         5.87512
     2013.66187        -1.39249         5.84174
     2013.66461         8.22622         5.79005
     2013.66735         5.27794         5.84389
     2013.67008        11.50366         5.75021
     2013.67282         8.17238         5.84066
     2013.67556         6.25110         5.91281
     2013.67830         9.51582         5.77928
     2013.68104        14.37153         5.96019
     2013.68377        11.00725         5.69421
     2013.68651        10.39297         5.64253
     2013.68925         2.94969         5.72221
     2013.69199         5.17741         5.70283
     2013.69472         7.16312         5.70283
     2013.69746         1.50584         5.74375
     2013.70020        10.30856         5.71360
     2013.70294         8.93328         5.69529
     2013.70568        11.67700         5.69206
     2013.70841        12.82671         5.82128
     2013.71115         9.60143         5.82451
     2013.71389        10.05815         5.71144
     2013.71663        -1.24813         5.70390
     2013.71937         5.50259         5.69314
     2013.72210        21.65530         5.71898
     2013.72484        20.63802         5.76636
     2013.72758        11.30174         5.76744
     2013.73032        13.54446         5.66622
     2013.73305         6.12818         5.66191
     2013.73579        10.46589         5.64037
     2013.73853         5.29861         5.70498
     2013.74127        10.05433         5.72436
     2013.74401         7.87505         5.85789
     2013.74674        15.65577         5.69637
     2013.74948         8.36648         5.64037
     2013.75222         3.59320         5.79543
     2013.75496         0.44592         5.66191
     2013.75770        -9.10436         5.68775
     2013.76043        -0.81964         5.66514
     2013.76317        -2.92092         5.68129
     2013.76591        11.11179         5.83851
     2013.76865        10.65751         5.70283
     2013.77138        -0.42677         5.73190
     2013.77412         8.86695         5.71898
     2013.77686        -1.13233         5.70713
     2013.77960         3.73938         5.68237
     2013.78234        -1.53390         5.73513
     2013.78507        -5.62218         5.72329
     2013.78781       -10.40046         5.78790
     2013.79055         6.65926         5.72006
     2013.79329         0.85897         5.67268
     2013.79603         2.59969         5.66191
     2013.79876         4.94141         5.67160
     2013.80150         6.46613         5.80513
     2013.80424        -0.39915         5.78144
     2013.80698         4.21156         5.77174
     2013.80971         7.67528         5.65437
     2013.81245         8.04800         5.67375
     2013.81519         0.46672         5.65868
     2013.81793         2.15644         5.83958
     2013.82067         8.85015         5.81912
     2013.82340         6.46887         5.67698
     2013.82614         5.56359         5.86220
     2013.82888         7.04531         5.72221
     2013.83162         7.35003         5.67914
     2013.83436         6.30774         5.81051
     2013.83709         9.15546         5.75128
     2013.83983        10.23818         5.75990
     2013.84257         4.58090         5.73836
     2013.84531         4.07562         5.82343
     2013.84804        -1.08866         5.75667
     2013.85078        -3.71895         5.68883
     2013.85352        -6.58923         5.67806
     2013.85626         3.51049         5.80189
     2013.85900         0.67221         5.64145
     2013.86173        -0.16007         5.74052
     2013.86447        -5.73436         5.64468
     2013.86995         6.39308         5.65114
     2013.87269         9.77680         5.69206
     2013.87542         8.49752         5.64576
     2013.87816         4.60923         5.65545
     2013.88090         4.79795         5.72436
     2013.88364         9.32167         5.93757
     2013.88637         5.08639         5.69852
     2013.88911        -1.88789         5.66837
     2013.89185        -9.29718         5.62745
     2013.89459        -8.62346         5.66514
     2013.89733        -0.67674         5.64576
     2013.90006        -0.61802         5.71683
     2013.90280        -2.12830         5.74590
     2013.90554         1.29541         5.65545
     2013.90828         2.51413         5.67375
     2013.91102        -1.41115         5.67160
     2013.91375        -4.45343         5.66406
     2013.91649        -3.80071         5.68775
     2013.91923        -9.85700         5.77605
     2013.92197       -16.36428         5.81589
     2013.92470       -10.21256         5.65437
     2013.92744        -5.04684         5.79436
     2013.93018        -3.58312         5.65976
     2013.93292        -2.60040         5.64576
     2013.93566        -0.48969         5.64468
     2013.93839         0.78203         5.62637
     2013.94113        -0.84225         5.66837
     2013.94387        -1.61653         5.64899
     2013.94661        -5.96881         5.75236
     2013.94935        -4.39410         5.63714
     2013.95208        -8.59238         5.62530
     2013.95482       -13.67566         5.63714
     2013.95756         0.37806         5.66299
     2013.96030         1.53978         5.68668
     2013.96303        -1.59751         5.69529
     2013.96577         2.40921         5.64791
     2013.96851         3.41893         5.64899
     2013.97125         3.57665         5.66729
     2013.97399        -1.93163         5.67052
     2013.97672        -5.05792         5.67806
     2013.97946        -0.65020         5.68452
     2013.98220        -6.47548         5.68345
     2013.98494       -11.53076         5.65545
     2013.98767         1.33696         5.64253
     2013.99041         1.05367         5.69098
     2013.99315        -6.53761         5.69098
     2013.99589        -3.00189         5.64683
     2013.99863       -10.52617         5.67591
     2014.00136       -12.26545         5.69098
     2014.00410        -1.87074         5.65976
     2014.00684        -5.55202         5.69314
     2014.00958         2.94470         5.72113
     2014.01232        -7.41358         5.78682
     2014.01505        -6.64086         5.78036
     2014.01779        -0.75214         5.78790
     2014.02053        -1.11143         5.65545
     2014.02327        -2.42771         5.89235
     2014.02600         7.38401         5.88266
     2014.02874         6.81473         5.80405
     2014.03148         9.55145         5.72975
     2014.03422        -6.29184         5.65652
     2014.03696         5.03388         5.66729
     2014.03969        -1.50540         5.71683
     2014.04243        -0.65068         5.85681
     2014.04517         0.87604         5.84281
     2014.04791        -0.76325         5.64145
     2014.05065         2.07747         5.63499
     2014.05338        -4.93381         5.64683
     2014.05612        -6.93309         5.65329
     2014.05886        -4.40237         5.64145
     2014.06160        -3.46066         5.64899
     2014.06433         0.59606         5.79328
     2014.06707        -1.17622         5.80728
     2014.06981         2.19450         5.72867
     2014.07255        -0.67178         5.69421
     2014.07529        -2.27907         5.66299
     2014.07802         1.08165         5.68237
     2014.08076        10.01637         5.68775
     2014.08350         7.91109         5.67375
     2014.08624         3.01481         5.77067
     2014.08898        -1.92548         5.87296
     2014.09171        -1.32376         5.91496
     2014.09445        -3.24004         5.68668
     2014.09719        -8.12032         5.80297
     2014.09993         0.42840         5.67268
     2014.10266         3.36412         5.82128
     2014.10540         3.27883         5.61130
     2014.10814         0.22555         5.65868
     2014.11088        -0.40873         5.80836
     2014.11362        -3.82801         5.65114
     2014.11635        -1.62229         5.72975
     2014.11909        -0.67358         5.64791
     2014.12183         2.70614         5.74913
     2014.12457         3.65386         5.68237
     2014.12731         1.06458         5.69098
     2014.13004       -11.03270         5.63068
     2014.13278         2.38001         5.81266
     2014.13552         7.64673         5.87512
     2014.14099         5.70117         5.66191
     2014.14373         1.44689         5.71575
     2014.14647         0.01560         5.75775
     2014.14921        -3.00468         5.72113
     2014.15195        -1.15796         5.80189
     2014.15468         3.62476         5.76098
     2014.15742         3.20448         5.80297
     2014.16016         7.27819         5.97419
     2014.16290        -2.37509         5.85143
     2014.16564        -7.57837         5.76098
     2014.16837       -15.78865         5.91819
     2014.17111       -19.31893         5.87512
     2014.17385         1.34678         5.88373
     2014.17659         0.58550         5.77928
     2014.17932         2.41422         6.03987
     2014.18206        -2.39206         5.89665
     2014.18480         2.63466         5.71683
     2014.18754        -2.98962         5.73298
     2014.19028        -2.35191         5.72759
     2014.19301        -5.05419         5.76528
     2014.19575        -2.24047         5.78036
     2014.19849         1.66725         5.79543
     2014.20123        -7.13103         5.75128
     2014.20397        -7.25432         5.73621
     2014.20670         2.21840         5.74698
     2014.20944        -2.06688         5.74482
     2014.21218        -1.75016         5.76959
     2014.21492        -3.00044         5.90096
     2014.21765        -5.83773         5.77174
     2014.22039        -6.51901         5.74267
     2014.22313        -7.26329         5.76098
     2014.22587        -6.00357         5.75344
     2014.22861        -1.90585         5.72221
     2014.23134        -2.57714         5.77605
     2014.23408        -0.25542         5.71575
     2014.23682        -5.17570         5.73190
     2014.23956        -5.93698         5.85681
     2014.24230        -2.49226         5.70606
     2014.24503        -8.78555         5.75882
     2014.24777        -1.03683         6.00541
     2014.25051        -5.16211         5.71252
     2014.25325        -7.55439         5.90742
     2014.25598         0.44033         5.90527
     2014.25872        -1.77895         5.74698
     2014.26146         0.09176         5.97096
     2014.26420       -10.67752         5.73944
     2014.26694        -7.32380         5.76098
     2014.26967        -6.50008         5.92788
     2014.27241        -7.85436         5.83420
     2014.27515        -2.71565         5.89773
     2014.27789        -7.07393         5.90635
     2014.28062        -3.97321         5.77067
     2014.28336        -8.87649         5.78790
     2014.28610        -3.14577         5.88589
     2014.28884        -5.00406         6.01187
     2014.29158        -7.47134         5.74267
     2014.29431        -2.23562         5.76205
     2014.29705        -6.88390         5.76959
     2014.29979       -15.99918         5.81697
     2014.30253        -5.69647         5.73406
     2014.30527        -0.67275         5.72113
     2014.30800        -6.22003         5.80943
     2014.31074        -1.10331         5.78790
     2014.31348        -7.77259         5.75128
     2014.31622        -3.52588         5.76851
     2014.31895        -2.52716         5.69637
     2014.32169        -6.31244         5.88696
     2014.32443       -18.09672         5.90096
     2014.32717       -16.10800         5.90096
     2014.32991        -8.61029         5.74482
     2014.33264        -4.63457         5.72867
     2014.33538         6.51415         5.86435
     2014.33812        -1.63613         5.93004
     2014.34086        -2.03641         5.78790
     2014.34360        -1.83369         5.74482
     2014.34633        -1.60498         5.69637
     2014.34907        -5.35526         5.89989
     2014.35181         0.87046         5.89558
     2014.35455        -5.18082         5.74698
     2014.35728       -15.62110         5.76528
     2014.36002       -16.38639         5.73190
     2014.36276       -16.29967         5.74482
     2014.36550        -6.67295         5.75990
     2014.36824        -9.03223         5.84389
     2014.37097        -6.83851         5.76098
     2014.37371        -8.85280         5.77067
     2014.37645        -3.45608         5.84604
     2014.37919        -3.17236         5.87189
     2014.38193       -10.85564         5.81051
     2014.38466        -7.98092         5.82020
     2014.38740        -7.70321         5.79974
     2014.39014        -1.88349         5.86004
     2014.39288        -8.59177         5.99249
     2014.39561         0.31795         5.79436
     2014.39835         0.59367         5.84927
     2014.40109       -10.32562         5.84174
     2014.40383        -8.75990         5.89881
     2014.40657        -9.46418         5.82989
     2014.40930        -7.28646         5.88696
     2014.41204       -13.76774         5.80943
     2014.41478        -2.33203         5.74052
     2014.41752        -2.81431         5.78144
     2014.42026        -0.71459         5.77605
     2014.42299        -5.30087         5.86220
     2014.42573        -0.36615         5.83851
     2014.42847        -5.63343         5.82451
     2014.43121        -3.06572         5.72759
     2014.43394        -9.21100         5.80405
     2014.43668         7.11772         5.96342
     2014.43942        -5.68056         5.84497
     2014.44216        -7.04184         5.75021
     2014.44490        -3.56113         5.90850
     2014.44763         3.65759         5.91711
     2014.45037         0.31231         5.77390
     2014.45311        -2.19397         5.83312
     2014.45585        -2.93925         5.74913
     2014.45859        -8.03054         5.76098
     2014.46132         0.76018         5.75775
     2014.46406        -5.48810         5.75236
     2014.46680        -2.88438         5.80620
     2014.46954       -10.58366         5.80513
     2014.47227        -3.38595         5.82343
     2014.47501        -7.48423         5.78144
     2014.47775        -3.92251         5.79113
     2014.48049        -0.32079         5.91927
     2014.48323         1.19693         5.79005
     2014.48596        -0.38236         5.81159
     2014.48870         3.79836         5.90419
     2014.49144         3.24908         5.86973
     2014.49418        -3.87120         5.72113
     2014.49692        -2.26748         5.71467
     2014.49965        -6.14177         5.68345
     2014.50239        -6.24505         5.94619
     2014.50513        -2.09733         5.86866
     2014.50787         2.99839         5.74805
     2014.51060         1.05511         5.73082
     2014.51334        -6.51317         5.81805
     2014.51608        -0.40946         5.77605
     2014.51882         7.99426         5.80082
     2014.52156         7.98198         5.83097
     2014.52429         3.12370         5.73082
     2014.52703         1.17542         5.74913
     2014.52977        -5.89187         5.70498
     2014.53251         0.60085         5.84820
     2014.53525         6.39857         5.81482
     2014.53798         1.60229         5.79651
     2014.54072         6.95701         5.88804
     2014.54346         8.48972         5.84820
     2014.54620        -0.22156         5.88696
     2014.54893         8.60616         5.88804
     2014.55167        -2.45512         5.79005
     2014.55441        -0.33340         5.80728
     2014.55715        -0.95969         5.82343
     2014.55989        -4.05797         5.91927
     2014.56262         3.65875         5.72544
     2014.56536         0.11447         5.78682
     2014.56810         0.86619         5.72867
     2014.57084         2.92890         5.74590
     2014.57357        -1.90438         5.81805
     2014.57631         1.60834         5.84174
     2014.57905        -1.46394         5.81912
     2014.58179        -3.86922         5.82989
     2014.58453         4.84449         5.94403
     2014.58726         6.88821         6.12817
     2014.59000         3.39993         5.82451
     2014.59274         2.32465         5.83312
     2014.59548         4.90737         5.92788
     2014.59822         6.25609         5.87296
     2014.60095         1.83180         5.88266
     2014.60369         1.10252         5.82666
     2014.60643        -2.97776         5.78251
     2014.60917         0.27896         5.83420
     2014.61190         1.03368         6.00111
     2014.61464        -1.98261         5.98280
     2014.61738         1.56311         6.05064
     2014.62012         7.82083         6.04095
     2014.62286         8.70055         5.82020
     2014.62559         4.54027         5.78897
     2014.62833        -0.84302         5.81589
     2014.63107         6.89870         5.83743
     2014.63381         9.78742         6.26708
     2014.63655        12.29614         6.02372
     2014.63928         3.73286         5.80189
     2014.64202        -1.35943         5.71467
     2014.64476         3.25529         5.77820
     2014.64750         3.68101         5.75236
     2014.65023        -1.42227         5.75021
     2014.65297         9.39745         5.78251
     2014.65571        17.46416         5.93542
     2014.65845         8.49388         5.75451
     2014.66119        11.57760         5.85681
     2014.66392        17.43032         5.80082
     2014.66666         8.71104         5.75236
     2014.66940         8.26975         5.75236
     2014.67214         7.95147         5.78897
     2014.67488         2.23319         5.73621
     2014.67761        -1.57209         5.70175
     2014.68035         0.69063         5.72975
     2014.68309        -3.61865         5.70175
     2014.68583         1.48706         5.80405
     2014.68856         1.73878         5.77605
     2014.69130         4.19450         5.78144
     2014.69404        -4.16978         5.78359
     2014.69678        -2.79106         5.77713
     2014.69952         2.27265         5.68237
     2014.70225        -0.80963         5.70929
     2014.70499         0.49409         5.69529
     2014.70773         7.93181         5.69529
     2014.71047         2.96153         5.72113
     2014.71321         9.52524         5.65222
     2014.71594        10.64296         5.76636
     2014.71868         2.54168         5.67914
     2014.72142         4.64540         5.65976
     2014.72416         1.12412         5.65868
     2014.72689         9.91083         5.75021
     2014.72963         8.07455         5.68129
     2014.73237         9.43927         5.74482
     2014.73511         5.16899         5.79543
     2014.73785         3.08771         5.69529
     2014.74058        -1.56258         5.70067
     2014.74332         4.98214         5.83205
     2014.74606        19.52686         5.82235
     2014.74880         2.89458         5.70283
     2014.75154        10.15030         5.92681
     2014.75427         4.41801         5.69314
     2014.75701         3.15073         5.73836
     2014.75986         1.84436         5.94403
     2014.76249        13.19317         5.78251
     2014.76522         0.23689         5.69206
     2014.76796         1.47561         5.71683
     2014.77070         2.23332         5.68991
     2014.77344        -0.27196         5.70175
     2014.77618        11.02976         5.79543
     2014.77891        11.34448         5.73729
     2014.78165         8.57120         5.70390
     2014.78439         2.97591         5.79220
     2014.78713        11.68163         5.72329
     2014.78987         7.17235         5.72329
     2014.79260         4.10707         5.70821
     2014.79534        13.34779         5.71037
     2014.79808         1.28650         5.83205
     2014.80082         5.67322         5.72436
     2014.80355         6.96894         5.89558
     2014.80629         4.90266         5.87512
     2014.80903         5.21938         5.79113
     2014.81177         4.30509         5.71252
     2014.81451         8.76981         5.68560
     2014.81724         7.25553         5.71467
     2014.81998         7.19025         5.76959
     2014.82272         6.99897         5.83420
     2014.82546         8.57868         5.66945
     2014.82820        -1.38260         5.64576
     2014.83093         4.74812         5.74052
     2014.83367         8.71984         5.78467
     2014.83641         3.03056         5.76959
     2014.83915         5.93828         5.74590
     2014.84188        11.69099         5.88696
     2014.84462        -4.33729         5.84820
     2014.84736         1.73843         5.83743
     2014.85010         4.80415         5.86004
     2014.85284        -1.73313         5.75667
     2014.85557        10.59858         5.81482
     2014.85831         5.02630         5.86327
     2014.86105        -4.46298         5.75882
     2014.86379        -5.08726         5.77605
     2014.86653        -1.68354         7.94584
     2014.86926        -1.74183         5.75021
     2014.87200        -0.06311         5.75344
     2014.87474        -5.80939         5.87620
     2014.87748        -3.10567         5.78036
     2014.88021         0.60005         5.74913
     2014.88295         4.14476         5.70606
     2014.88569         5.18948         5.84820
     2014.88843         9.63620         5.97957
     2014.89117        13.40192         6.05172
     2014.89390         9.48364         5.86543
     2014.89664         8.29835         5.87620
     2014.89938        -2.41393         5.86543
     2014.90212         2.71479         5.82020
     2014.90485       -21.28049         5.78682
     2014.90759         8.87023         5.74805
     2014.91033         9.75794         5.73298
     2014.91307         2.15266         5.68560
     2014.91581         3.21438         5.68021
     2014.91854         3.57410         5.68668
     2014.92128        -0.18418         5.72759
     2014.92402         2.56954         5.69529
     2014.92676         1.16225         5.70283
     2014.92950       -10.31603         5.71575
     2014.93223        -4.70531         5.72436
     2014.93497        -6.49859         5.75236
     2014.93771        -3.07787         5.78790
     2014.94045         3.39784         5.79328
     2014.94318         3.56856         5.90419
     2014.94592         2.36728         5.83958
     2014.94866         0.06900         5.67914
     2014.95140        -6.22328         5.64899
     2014.95414        -0.20557         5.64468
     2014.95687         2.61615         5.70821
     2014.95961         7.92287         5.67268
     2014.96235        -1.79941         5.66514
     2014.96509         2.45731         5.81697
     2014.96783        -2.02398         5.70283
     2014.97056        -8.71226         5.71683
     2014.97330        -9.04054         5.67806
     2014.97604        -9.30182         5.69744
     2014.97878        -5.39510         5.71144
     2014.98151         5.18361         5.79113
     2014.98425        -1.74367         5.70821
     2014.98699         2.12605         5.61884
     2014.98973        -7.69423         5.63068
     2014.99247        -9.78251         5.63176
     2014.99520       -20.55180         5.63391
     2014.99794       -12.14608         5.67591
     2015.00342       -11.10564         5.54992
     2015.00616       -11.00692         5.57684
     2015.00889       -10.63620         5.71467
     2015.01711       -15.72705         5.93434
     2015.01984         0.25067         5.65437
     2015.02258        -0.09661         5.79005
     2015.02532         3.18610         5.70606
     2015.02806        -1.46618         5.70175
     2015.03080         2.22354         5.64253
     2015.03353        -2.60974         5.65006
     2015.03627        -2.86802         5.66837
     2015.03901         1.75069         5.74267
     2015.04175         1.31341         5.75236
     2015.04449         2.83513         5.72113
     2015.04722         5.84785         5.76636
     2015.04996         0.66057         5.65006
     2015.05270        -0.38472         5.71144
     2015.05544        -1.72000         5.91173
     2015.05817         3.25172         5.71360
     2015.06091        -0.05756         5.66406
     2015.06365         1.87116         5.81051
     2015.06639         3.78087         5.70929
     2015.06913        -0.15941         5.71252
     2015.07186        -2.04969         5.70283
     2015.07460        -0.94997         5.72006
     2015.07734        -7.94825         5.65114
     2015.08008        -4.77054         5.65760
     2015.08282         0.52118         5.68883
     2015.08555        -4.37410         5.67268
     2015.08829       -18.61638         5.73729
     2015.09103        -4.01566         5.61991
     2015.09377        -2.09394         5.65760
     2015.09650         0.01677         5.66622
     2015.09924        -2.22451         5.82020
     2015.10198         4.68121         5.76851
     2015.10472         5.43793         5.62530
     2015.10746        -0.49035         5.65976
     2015.11019        -4.27364         5.79113
     2015.11293        -2.77592         5.78144
     2015.11567        -5.33720         5.69852
     2015.11841        -5.79148         5.61991
     2015.12115         1.80624         5.63499
     2015.12388        -7.58105         5.64037
     2015.12662        -2.40333         5.70283
     2015.12936        -3.54461         5.66083
     2015.13210        -4.08789         5.68129
     2015.13483        -4.04517         5.69744
     2015.13757        -2.57746         5.72436
     2015.14031        -5.96274         5.65222
     2015.14305        -6.49402         5.67914
     2015.14579        -7.54930         5.71252
     2015.14852         1.14942         5.61884
     2015.15126        -1.94087         5.59730
     2015.15400        -4.64115         5.63068
     2015.15674         1.95957         5.66729
     2015.15948        -0.39771         5.68129
     2015.16221        -1.51699         5.66945
     2015.16495        -1.19228         5.63822
     2015.16769         1.36344         5.67160
     2015.17043         0.37716         5.64360
     2015.17316        -1.28512         5.78359
     2015.17590        -0.89840         5.81374
     2015.17864         2.85732         5.62960
     2015.18138         0.43903         5.65868
     2015.18412         2.00875         5.68129
     2015.18685        -3.88153         5.68560
     2015.18959         0.09719         5.79759
     2015.19233        -1.21309         5.80620
     2015.19507        -5.60338         5.62745
     2015.19780         4.48034         5.64145
     2015.20054         1.16806         5.77497
     2015.20328       -12.17522         5.61345
     2015.20602        -6.32450         5.98818
     2015.20876        -8.90479         5.64576
     2015.21149       -10.89207         5.65652
     2015.21423         0.50365         5.79220
     2015.21697        -1.65763         5.69637
     2015.21971        -0.99091         5.65329
     2015.22245        -4.22220         5.66729
     2015.22518        -1.34648         5.66299
     2015.22792        -4.47676         5.67806
     2015.23066         0.14796         5.63714
     2015.23340         0.59468         5.74482
     2015.23613         0.72039         6.00864
     2015.23887        -3.16489         5.93111
     2015.24161         1.46983         5.96234
     2015.24435         1.33655         5.99465
     2015.24709         5.60327         5.87081
     2015.24982        -4.56602         5.67483
     2015.25256        -2.94230         5.65868
     2015.25530        -3.51258         5.67483
     2015.25804        -7.57786         5.65437
     2015.26078         4.55386         5.66622
     2015.26351         0.98658         5.72329
     2015.26625        -1.10071         5.67591
     2015.26899        -2.90599         5.65006
     2015.27173         2.64173         5.85681
     2015.27446         6.17845         5.80082
     2015.27720        -2.13183         5.71252
     2015.27994        -1.31712         5.68237
     2015.28268         3.17760         5.65006
     2015.28542        -4.40668         5.74913
     2015.28815        -7.44496         5.75775
     2015.29089        -4.45224         5.71037
     2015.29363        -4.11253         5.78467
     2015.29637        -4.98681         5.68345
     2015.29911         4.64791         5.66083
     2015.30184         2.68463         5.72006
     2015.30458        -0.94965         5.69421
     2015.30732        -0.92394         5.55423
     2015.31006         1.40178         5.59945
     2015.31279        -3.93950         5.52408
     2015.31553        -6.29278         5.54131
     2015.31827        -8.78106         5.55961
     2015.32101        -7.17235         5.53269
     2015.32375         1.35637         5.81589
     2015.32648        -3.56691         5.67806
     2015.32922        -2.22419         5.65868
     2015.33196         1.51553         5.64253
     2015.33470        -2.45476         5.56176
     2015.33744        -5.47404         5.55530
     2015.34017        -8.19932         5.63391
     2015.34291        -6.36160         5.54777
     2015.34565        -7.96488         5.54346
     2015.34839         1.04984         5.57576
     2015.35112        -5.24545         5.52731
     2015.35386        -3.31173         5.55853
     2015.35660        -2.65901         5.63930
     2015.35934        -4.21029         5.63499
     2015.36208         0.95343         5.68775
     2015.36481        -1.35886         5.52946
     2015.36755        -2.46014         5.62853
     2015.37029        -2.26242         5.54131
     2015.37303        -3.95770         5.51762
     2015.37577        -3.40298         5.58438
     2015.37850        -5.20927         5.67052
     2015.38124        -2.34755         5.54454
     2015.38398        -1.77283         5.55746
     2015.38672         1.37589         5.63391
     2015.38945        -2.80239         5.59945
     2015.39219        -3.37068         5.62530
     2015.39493        -6.04896         5.62422
     2015.39767        -5.88624         5.65114
     2015.40041        -5.99652         5.66837
     2015.40314        -5.41280         5.83851
     2015.40588        -2.52509         5.64683
     2015.40862        -0.37237         5.65329
     2015.41136         0.98035         5.82343
     2015.41410        -1.08093         5.62530
     2015.41683        -2.75321         5.63283
     2015.41957         1.21651         5.53484
     2015.42231        -2.78278         5.58438
     2015.42505        -3.89506         5.74805
     2015.42778        -1.36934         5.65006
     2015.43052        -2.97362         5.63714
     2015.43326        -6.38790         5.70498
     2015.43600         1.61781         5.65222
     2015.43874         1.57653         5.63391
     2015.44147         5.17425         5.88158
     2015.44421        -1.05603         5.83097
     2015.44695        -0.56431         5.64037
     2015.44969        -4.50860         5.60914
     2015.45243        -0.93688         5.76205
     2015.45516        -0.98016         5.96557
     2015.45790         3.07256         5.80836
     2015.46064         3.20328         5.78467
     2015.46338        12.20699         5.77497
     2015.46611         9.08871         5.59622
     2015.46885         5.42843         5.68775
     2015.47159         3.38215         5.62637
     2015.47433        -1.07913         5.98172
     2015.47707        -0.74742         5.71683
     2015.47980        -1.00670         5.67591
     2015.48254        -6.17898         5.76528
     2015.48528         3.82074         5.65545
     2015.48802         0.66846         5.71898
     2015.49076        -2.34583         5.68991
     2015.49349        -4.23811         5.89989
     2015.49623         3.72061         6.03018
     2015.49897        -2.25267         5.79436
     2015.50171         7.61405         5.66837
     2015.50444        -2.11923         5.70283
     2015.50718         5.16848         5.72113
     2015.50992         2.52420         5.56500
     2015.51266        15.38692         5.63930
     2015.51540         2.24364         5.62853
     2015.51813         4.05436         5.59192
     2015.52087         7.39907         5.63283
     2015.52361         4.71079         5.71037
     2015.52635         4.40551         5.73621
     2015.52908         9.90023         5.68345
     2015.53182         9.07295         5.76098
     2015.53456        13.59866         5.78359
     2015.53730         9.86638         5.72113
     2015.54004        11.09710         5.75882
     2015.54277         2.91282         5.78251
     2015.54551         9.35454         5.77282
     2015.54825        12.20125         5.92142
     2015.55099        13.99697         5.95157
     2015.55373         9.52269         5.84927
     2015.55646        13.32241         5.70606
     2015.55894         8.36734         6.04203
     2015.56293         0.20702        13.74881
     2015.56468        11.95256         5.70498
     2015.56741         6.89628         5.73729
     2015.57015        11.49000         5.80513
     2015.57289         5.45672         5.95373
     2015.57563         5.07843         5.71898
     2015.57837        12.05915         5.73944
     2015.58110         8.77587         5.73298
     2015.58384        12.46459         5.74375
     2015.58658        13.51631         5.75775
     2015.58932         9.53703         5.83851
     2015.59206        13.18274         5.82774
     2015.59479         8.95346         5.76421
     2015.59753        14.91118         5.71144
     2015.60027         8.21290         5.80728
     2015.60301        10.81562         5.93219
     2015.60574         3.47033         5.82558
     2015.60848        12.63205         5.90312
     2015.61122        16.26477         5.79005
     2015.61396        13.11949         5.74052
     2015.61943        10.52092         5.95050
     2015.62217        14.26364         5.77928
     2015.62491        18.87536         5.65652
     2015.62765        13.39808         5.62853
     2015.63039        12.38180         5.61561
     2015.63312        12.84951         5.63930
     2015.63586        15.06023         5.85143
     2015.63860        10.31495         5.67698
     2015.64134         7.65067         5.60484
     2015.64407        11.70739         5.64576
     2015.64681         7.77010         5.76851
     2015.64955         8.73682         5.61022
     2015.65229         9.19054         5.69206
     2015.65503        16.99826         5.63176
     2015.65776        19.23798         5.94619
     2015.66050        25.99369         5.76528
     2015.66324        16.96841         5.58545
     2015.66598        20.19013         5.71898
     2015.66872        20.28785         5.84174
     2015.67145         9.00657         5.71252
     2015.67419        13.16829         5.56500
     2015.67693        14.91500         5.59084
     2015.67967        10.55772         5.57684
     2015.68240         7.28744         5.59515
     2015.68514         7.77516         5.79866
     2015.68788         7.57288         5.71790
     2015.69062         8.45359         5.60376
     2015.69336         3.80231         5.78251
     2015.69609         6.78403         5.59622
     2015.69883        13.04375         5.75021
     2015.70157        13.11247         5.65545
     2015.70431        16.22318         5.68129
     2015.70705        12.00990         5.61238
     2015.70978        14.35462         5.61022
     2015.71252        10.14834         5.61991
     2015.71526        17.87606         5.59407
     2015.71800         9.99977         5.71144
     2015.72073        17.64049         6.13679
     2015.72347         5.44521         5.60807
     2015.72621         8.37693         5.57253
     2015.72895         4.94765         5.60376
     2015.73174        14.47132         5.89450
     2015.73442         1.03008         5.80513
     2015.73716        11.87980         5.65329
     2015.73990        12.15352         5.68775
     2015.74264        10.74724         5.70821
     2015.74538        10.34595         5.83528
     2015.74811         9.17467         5.94080
     2015.75085         0.58439         5.69637
     2015.75359         7.41611         5.65329
     2015.75633        11.92183         5.60914
     2015.75906         8.31355         5.60591
     2015.76180         5.90326         5.70067
     2015.76454        11.59398         5.71037
     2015.76728         5.32070         5.67698
     2015.77002        12.12142         5.76851
     2015.77275        17.60514         5.66191
     2015.77549        18.26585         5.69314
     2015.77823        11.57157         5.69421
     2015.78097        11.98729         5.66622
     2015.78371         5.29701         5.62207
     2015.78644        14.72673         5.63499
     2015.78918         8.60244         5.66837
     2015.79192        12.56416         5.62960
     2015.79466        12.37588         5.65868
     2015.79739        10.14960         5.61668
     2015.80013         6.77732         5.97849
     2015.80287         8.86103         5.63607
     2015.80561        10.35375         5.63068
     2015.80835         3.46547         5.64360
     2015.81108         0.53319         5.66191
     2015.81382         4.68891         5.65760
     2015.81656         8.14162         5.63714
     2015.81930         9.49834         5.65976
     2015.82203        10.25006         5.68560
     2015.82477        14.48478         5.69098
     2015.82751        13.15850         5.68452
     2015.83025        16.51921         5.68021
     2015.83299        12.74493         5.70498
     2015.83572         8.05965         5.67052
     2015.83846         7.69437         5.80513
     2015.84120         3.52509         5.76528
     2015.84394         8.05381         5.71360
     2015.84668         4.86752         5.74482
     2015.84941        12.28624         5.78682
     2015.85215        10.23496         5.78144
     2015.85489        11.81168         5.80620
     2015.85763         6.05340         5.75775
     2015.86036         6.42211         5.77928
     2015.86310         6.53183         5.76528
     2015.86584        11.27055         5.79759
     2015.86858         8.24527         5.79866
     2015.87132         7.49099         5.76744
     2015.87405         6.50770         5.71360
     2015.87679         6.17242         5.75667
     2015.87953         4.05114         5.87943
     2015.88227         8.68486         5.77390
     2015.88501         1.85558         5.72329
     2015.88774        -1.41071         5.71144
     2015.89048         3.76301         5.74482
     2015.89322         7.82373         5.71252
     2015.89596        11.04845         5.67483
     2015.89869         6.96217         5.74375
     2015.90143        -2.35112         5.74913
     2015.90417        -2.85940         5.72006
     2015.90691         1.14432         5.74052
     2015.90965         4.12904         5.71683
     2015.91238         2.11976         5.71790
     2015.91512         3.93048         5.70067
     2015.91786         3.03719         5.72652
     2015.92060         3.13791         5.74482
     2015.92334         3.51563         5.79866
     2015.92607         2.57735         5.79436
     2015.92881        -2.76693         5.82128
     2015.93155         3.23778         6.03556
     2015.93429         8.49850         6.21755
     2015.93702        15.61222         5.97203
     2015.93976         4.37894         5.99465
     2015.94250         6.59166         5.95050
     2015.94524         5.40337         5.90096
     2015.94798        -2.47691         5.92250
     2015.95071        11.12081         5.69960
     2015.95345         4.17953         5.71144
     2015.95619         5.28825         5.78682
     2015.95893         2.20796         5.88050
     2015.96167         2.49168         5.85789
     2015.96440        -3.00760         5.71144
     2015.96714         3.58312         5.79651
     2015.96988         3.12784         5.77713
     2015.97262        14.87755         5.73298
     2015.97535        13.89427         5.72759
     2015.97809         2.73199         5.84497
     2015.98083        -0.20629         5.71575
     2015.98357        -7.98557         5.70606
     2015.98631        -8.34986         5.76098
     2015.98904        -9.57914         5.70821
     2015.99178       -13.32642         5.72436
     2015.99452       -12.55270         5.67806
     2015.99726        -9.00698         5.77174
     2016.00000       -10.55226         5.72759
     2016.00273        -6.61755         5.74482
     2016.00547        -0.71983         5.75344
     2016.00821         1.47389         5.73944
     2016.01095         7.34861         5.75667
     2016.01368        -4.62467         5.75775
     2016.01642        -3.68296         5.87727
     2016.01916         4.59176         6.02695
     2016.02190         2.48248         5.89450
     2016.02464         0.64620         5.83958
     2016.02737         1.20492         5.66622
     2016.03011        -0.56637         5.67914
     2016.03285        -3.70365         5.70175
     2016.03559        -8.69093         5.71144
     2016.03833         3.98879         5.86327
     2016.04106         3.46751         5.64899
     2016.04380         2.55222         5.66729
     2016.04654        -8.78906         5.65545
     2016.04928         1.03866         5.68345
     2016.05201        -3.22962         5.72652
     2016.05475         1.05810         5.66622
     2016.05749       -18.77219         5.65868
     2016.06023         3.62153         5.63607
     2016.06297        -1.70575         5.65114
     2016.06570        -0.81303         5.74805
     2016.06844        -0.75731         5.77605
     2016.07118        -0.74260         5.74590
     2016.07392         3.95812         5.77928
     2016.07666         4.05584         5.85789
     2016.07939         8.17556         5.75236
     2016.08213         3.03828         5.87943
     2016.08487         2.38100         5.71360
     2016.08761        -4.40029         5.73082
     2016.09034        -6.38457         5.71144
     2016.09308        -3.99585         5.76636
     2016.09582        -3.82613         5.76313
     2016.09856       -13.82741         5.84389
     2016.10130       -10.92770         5.70175
     2016.10403       -11.67298         5.73836
     2016.10677       -12.20626         5.73836
     2016.10951        -7.27054         5.71144
     2016.11225        -5.57082         5.75236
     2016.11498        -2.04011         5.66729
     2016.11772        -6.35639         5.69637
     2016.12046        -5.46067         5.69314
     2016.12320        -5.12895         5.69314
     2016.12594        -3.26223         5.72221
     2016.12867         4.47348         5.69960
     2016.13141        11.30120         5.63714
     2016.13398         3.42806         6.06787
     2016.13689        -0.78236         5.64468
     2016.13963        -2.70564         5.66406
     2016.14236        -8.56093         5.68560
     2016.14510       -11.12121         5.61776
     2016.14784        -9.25649         5.63714
     2016.15041        -8.64463         6.03556
     2016.15223        -9.43015        12.81736
     2016.15531         1.33528         8.65331
     2016.15879        -3.91462         5.73944
     2016.16153        -5.35590         5.73836
     2016.16427       -15.71018         5.74052
     2016.16700       -15.66546         5.65329
     2016.16974        -6.33674         5.83420
     2016.17248        -4.76803         5.77282
     2016.17522         2.29669         5.66514
     2016.17796         3.98441         5.73621
     2016.18069        -0.21187         5.80836
     2016.18343        -5.79215         5.93650
     2016.18617        -4.48544         5.64576
     2016.18891        -2.23172         5.67806
     2016.19164        -0.41200         5.62853
     2016.19438         1.84672         5.57899
     2016.19712        -4.12856         5.57684
     2016.19986         1.55015         5.72544
     2016.20260        -2.99313         5.72867
     2016.20533        -5.21041         5.84604
     2016.20807        -3.41769         5.79974
     2016.21081       -11.51497         5.73190
     2016.21355        -6.02626         5.68668
     2016.21629        -5.33054         5.54777
     2016.21902        -3.72682         5.71898
     2016.22176         0.70990         5.68129
     2016.22450        -9.81238         5.97203
     2016.22724        -5.15867         5.58330
     2016.22992        -3.95390         5.85789
     2016.23271        -4.89423         5.56392
     2016.23545        -5.49151         5.57576
     2016.23819        -1.90879         5.71037
     2016.24093        -4.36908         5.64360
     2016.24366        -3.20036         5.58653
     2016.24640        -5.20664         5.58007
     2016.24914        -3.85792         5.58007
     2016.25188        -1.69020         5.62853
     2016.25462        -9.36048         5.61991
     2016.25735        -3.09077         5.61022
     2016.26009        -4.57305         5.61130
     2016.26283       -13.19933         5.61345
     2016.26557        -5.76561         5.64576
     2016.26830        -5.96889         5.62099
     2016.27104        -5.37518         5.62530
     2016.27378        -1.71846         5.61453
     2016.27521        15.33735        95.25854
     2016.27926        -1.46302         5.62745
     2016.28199        -0.49530         5.64576
     2016.28473         0.21841         5.62530
     2016.28747        -8.49787         5.60268
     2016.29021       -13.90815         5.60161
     2016.29295       -10.63843         5.64145
     2016.29568        -8.80771         5.66083
     2016.29842        -1.90300         5.72759
     2016.30116        -7.37328         5.76421
     2016.30390       -10.23656         5.63822
     2016.30663        -1.60384         5.70929
     2016.30937        -2.16812         5.65114
     2016.31211         0.40359         5.63607
     2016.31485        -1.05169         5.64253
     2016.31759        -3.60797         5.65006
     2016.32032        -7.13825         5.62745
     2016.32306       -11.98053         5.66837
     2016.32580        -6.46782         5.62960
     2016.32854        -4.90110         5.62422
     2016.33128        -8.59238         5.64360
     2016.33401       -10.26066         5.71037
     2016.33675        -7.15894         5.73836
     2016.33949        -7.51622         5.68237
     2016.34223        -3.85151         5.71467
     2016.34496        -1.41279         5.81374
     2016.34770        -0.58307         5.80620
     2016.35044       -11.70435         5.93542
     2016.35318        -0.34563         5.66299
     2016.35552       -10.66858         6.75919
     2016.35865       -11.21220         5.63499
     2016.36139        -3.69448         5.64899
     2016.36413         3.31924         5.64576
     2016.36687        -2.27104         5.61668
     2016.36961         8.51767         5.62853
     2016.37234         5.80339         5.63822
     2016.37508         4.96811         5.65329
     2016.37782       -10.49117         5.65222
     2016.38056        -5.65445         5.88589
     2016.38329        -0.13274         5.65868
     2016.38603         0.04898         5.59945
     2016.38877        12.22270         5.59945
     2016.39151         3.48142         5.61345
     2016.39425        -3.16386         5.65329
     2016.39698         3.12985         5.66622
     2016.39972        10.14057         5.74052
     2016.40246        -1.70871         5.71790
     2016.40520        -3.32899         5.61776
     2016.40794        -4.42727         5.70283
     2016.41067        -8.62856         5.70929
     2016.41341        -9.11384         5.61130
     2016.41615        -5.81812         5.66191
     2016.41889         2.38760         5.76744
     2016.42162         6.37432         5.76421
     2016.42436        -9.85896         5.67052
     2016.42710        -6.58825         5.71898
     2016.42984        -1.82253         5.67375
     2016.43258         2.13919         5.74159
     2016.43531         5.16891         5.84389
     2016.43805         3.31763         5.92573
     2016.44079         3.79534         5.65114
     2016.44353         4.46206         5.69098
     2016.44626        -0.78222         5.61453
     2016.44900         0.15950         5.67375
     2016.45174         2.66222         5.71144
     2016.45448         1.60993         5.66945
     2016.45722         4.61865         5.64791
     2016.45995         3.06637         5.61022
     2016.46269        -0.65491         5.62207
     2016.46543        -3.40519         5.61130
     2016.46817        -4.05348         5.65545
     2016.47091         2.49924         5.67483
     2016.47364         3.17796         5.63822
     2016.47638         1.26968         5.86650
     2016.47912         3.29240         5.76528
     2016.48186         1.94211         5.62637
     2016.48459         0.12983         5.65976
     2016.48733        -8.18445         5.69852
     2016.49007         3.04327         5.67483
     2016.49281        -3.66101         5.73836
     2016.49555        -2.53429         5.86220
     2016.49828         3.82342         5.76851
     2016.50102         2.51814         5.86327
     2016.50376         7.14486         5.84497
     2016.50650         7.36058         5.76744
     2016.50924         7.75830         5.65545
     2016.51197         2.41001         5.64468
     2016.51471         3.12273         5.66729
     2016.51745         5.20145         5.75021
     2016.52019         2.19517         5.82451
     2016.52292        -6.34211         5.63607
     2016.52566         4.12960         5.62099
     2016.52840         2.33032         5.62853
     2016.53114        -3.90796         5.65545
     2016.53388        -3.03224         5.69852
     2016.53661         3.78748         5.76313
     2016.53935         2.10919         5.71360
     2016.54209         3.06391         5.61776
     2016.54483         3.66563         5.64360
     2016.54757         3.88535         5.73836
     2016.55030         3.39907         5.79328
     2016.55304        -1.31022         5.63499
     2016.55578         8.66650         5.79974
     2016.55852         3.05922         5.60268
     2016.56125         3.48694         5.62422
     2016.56399        -3.32634         5.71144
     2016.56673        10.62037         5.82235
     2016.56947         6.93909         5.88481
     2016.57221        12.14081         5.67591
     2016.57494         0.16353         5.76851
     2016.57768         9.51425         5.86112
     2016.58042         4.55897         5.69529
     2016.58316         2.19368         5.60053
     2016.58590         1.42440         5.69637
     2016.58863         8.65912         5.70283
     2016.59137         2.66184         5.66514
     2016.59411         5.73456         5.67268
     2016.59685        13.83427         5.65868
     2016.59958         0.91299         5.68560
     2016.60232         8.53071         5.62207
     2016.60506         7.11243         5.62960
     2016.60780         7.04915         5.64145
     2016.61054         7.09886         5.68237
     2016.61327         1.16058         5.65976
     2016.61601         4.67430         5.59838
     2016.61875         2.14402         5.63714
     2016.62149         2.38374         5.69744
     2016.62423         5.92245         5.78036
     2016.62696         5.78917         5.55961
     2016.62970         0.77589         5.61668
     2016.63244         2.33461         5.79651
     2016.63518         2.96233         5.60268
     2016.63791        19.35604         5.64037
     2016.64065        12.49676         5.90419
     2016.64339         5.38348         5.56823
     2016.64613         6.12720         5.67483
     2016.64887         1.10792         5.61238
     2016.65160        10.77463         5.77713
     2016.65434         3.87635         5.69637
     2016.65708         3.02007         5.65868
     2016.65982         1.31379         5.64468
     2016.66256         7.40251         5.58330
     2016.66529        10.85523         5.70175
     2016.66803         8.30794         5.72759
     2016.67077         9.84466         5.72544
     2016.67351        11.47438         5.57146
     2016.67624         3.73510         5.64791
     2016.67898        16.36082         5.59407
     2016.68172        16.08153         5.60699
     2016.68446        12.38325         5.83312
     2016.68720        10.66597         6.12925
     2016.68993         5.38269         5.66514
     2016.69267        12.19341         5.76528
     2016.69541         5.92312         5.71037
     2016.69815        10.17284         5.56392
     2016.70089         7.84356         5.75559
     2016.70362         7.83928         5.78682
     2016.70636         5.63000         5.91173
     2016.70910         8.05871         5.94727
     2016.71184        14.89543         5.58653
     2016.71457        20.63215         5.89881
     2016.71731        11.95187         5.61991
     2016.72005        11.70659         5.59084
     2016.72279         9.85530         5.62745
     2016.72553        12.96002         5.72221
     2016.72826         5.84974         5.69098
     2016.73100         9.11546         5.82020
     2016.73374        10.77418         5.74805
     2016.73648         6.09689         5.57576
     2016.73921        20.81361         5.70821
     2016.74195         7.46733         5.62960
     2016.74469         3.79205         5.57038
     2016.74743        10.09777         5.73190
     2016.75017         6.53349         5.72006
     2016.75290         5.93120         5.60914
     2016.75564        10.31692         5.69421
     2016.75838        13.57564         5.54561
     2016.76112         9.80036         5.53592
     2016.76386         8.82508         5.54992
     2016.76659         6.01479         5.63499
     2016.76933         5.42251         5.63822
     2016.77207        12.33023         5.75775
     2016.77481         8.11495         5.57146
     2016.77754         4.36467         5.54023
     2016.78028         3.65038         5.73621
     2016.78302         7.37410         5.62960
     2016.78576         7.97882         5.62099
     2016.78855        18.42049         5.92681
     2016.79123        10.03626         5.57684
     2016.79397        14.85797         5.55315
     2016.79671         5.92769         5.58545
     2016.79939         0.05946         5.84712
     2016.80219         4.43113         5.58653
     2016.80492         2.52285         5.61238
     2016.80766         2.82756         5.62099
     2016.81040        -4.25272         5.61130
     2016.81314         4.68700         5.65437
     2016.81587        -2.97228         5.62314
     2016.81861        -7.66856         5.62207
     2016.82135         1.48915         5.64253
     2016.82409         2.22987         5.59299
     2016.82683        -5.15241         5.57253
     2016.82956         2.17031         5.52623
     2016.83230         5.22503         5.55638
     2016.83504         1.23675         5.58222
     2016.83778        -0.17254         5.59945
     2016.84052        -0.10582         5.64037
     2016.84325        -3.00810         5.55961
     2016.84599        -0.00638         5.57253
     2016.84873         5.64434         5.64899
     2016.85147        -2.16395         5.61238
     2016.85420        -8.01923         5.60268
     2016.85694        -6.75351         5.63822
     2016.85968        -1.93379         5.67375
     2016.86242        -1.76307         5.58653
     2016.86516         3.76264         5.67052
     2016.86789         1.07936         5.61345
     2016.87063         2.67308         5.63499
     2016.87337         3.46580         5.66622
     2016.87611         6.97252         5.58115
     2016.87885        -1.79477         5.54561
     2016.88158        -4.15205         5.60376
     2016.88432         0.98067         5.62745
     2016.88706         2.31139         5.64145
     2016.88980         8.56911         5.64145
     2016.89253         2.64282         5.61130
     2016.89527         2.47954         5.59730
     2016.89801         3.20926         5.61668
     2016.90081        -0.96907         5.78897
     2016.90349         3.38770         5.80405
     2016.90622         6.85141         5.74267
     2016.90896         9.17413         5.58869
     2016.91170         1.38485         5.61345
     2016.91444         3.93557         5.60053
     2016.91718         0.78029         5.73298
     2016.91991       -10.20299         5.75882
     2016.92265       -19.46828         5.63391
     2016.92539         0.89144         5.58438
     2016.92813        -2.10984         5.57899
     2016.93086        -1.44512         5.57684
     2016.93360        -2.97540         5.57684
     2016.93634        -4.21569         5.63391
     2016.93908        -7.33997         5.66191
     2016.94182         3.17975         5.59084
     2016.94455        -4.79153         5.60053
     2016.94729        -4.52281         5.63930
     2016.95003        -6.65810         5.73190
     2016.95277        -4.26038         5.73406
     2016.95551         0.06134         5.58653
     2016.95824         0.10206         5.58545
     2016.96098         0.62778         5.59192
     2016.96372        -2.95951         5.63068
     2016.96646        -3.01079         5.64145
     2016.96919        -6.06607         5.72975
     2016.97193       -11.29935         5.61345
     2016.97467        -4.71763         5.63283
     2016.97741        -5.90992         5.60053
     2016.98015       -13.52820         5.68883
     2016.98288        -9.86148         5.62745
     2016.98562        -0.07876         5.63068
     2016.98836       -12.50704         5.64253
     2016.99110       -12.07333         5.61884
     2016.99384        -9.80761         5.57253
     2016.99657       -12.45789         5.61991
     2016.99931        -7.46317         5.60376
     2017.00205        -7.41945         5.55961
     2017.00479        -9.05173         5.54561
     2017.00752       -14.18202         5.55853
     2017.01026       -11.02930         5.56930
     2017.01300        -1.04758         5.58976
     2017.01574        -2.34386         5.57576
     2017.01848        -4.21814         5.53807
     2017.02121        -1.78343         5.58653
     2017.02395         0.84529         5.54884
     2017.02669        -3.52799         5.63714
     2017.02943         6.91973         5.58115
     2017.03216        -1.84155         5.54454
     2017.03490        -3.61384         5.56823
     2017.03764        -7.06012         5.57576
     2017.04038        -3.77640         5.61668
     2017.04312         1.72632         5.60591
     2017.04585        12.89204         5.82774
     2017.04859        -7.42825         5.85466
     2017.05133        17.96147         5.67375
     2017.05407        15.07819         5.59945
     2017.05681        11.63191         5.58007
     2017.05954        -2.47037         5.58330
     2017.06228         3.84634         5.55638
     2017.06502        -5.06694         5.73082
     2017.06776         2.61378         5.61238
     2017.07049         1.64850         5.58007
     2017.07323        -2.23378         5.75451
     2017.07597        -6.62206         5.61561
     2017.07871        -7.23335         5.60484
     2017.08145        -2.86363         5.60161
     2017.08418        -7.42491         5.59299
     2017.08692        -1.25119         5.56823
     2017.08966        -3.45247         5.57146
     2017.09240        -0.94876         5.57469
     2017.09514         3.12096         5.58869
     2017.09787        -9.35332         5.72759
     2017.10061         2.86340         5.58007
     2017.10335         1.01712         5.68668
     2017.10609        -0.54317         5.60699
     2017.10882        -7.28145         5.58222
     2017.11156       -14.73873         5.83851
     2017.11430        -0.23301         5.59515
     2017.11704        -7.89829         5.61991
     2017.11978        -8.58858         5.57146
     2017.12251        -6.65586         5.74052
     2017.12525         2.15186         5.60914
     2017.12799         6.96558         5.82235
     2017.13073         5.90530         5.59622
     2017.13347         3.19001         5.59622
     2017.13620       -10.95327         5.60914
     2017.13894        -1.27755         5.60699
     2017.14168        -2.20283         5.59407
     2017.14442        -8.43411         5.91711
     2017.14715        -7.04840         5.84281
     2017.14989        -9.48468         5.60053
     2017.15263        -1.51396         5.62099
     2017.15537         0.80276         5.59515
     2017.15811         0.04948         5.72436
     2017.16084        -3.03180         5.61022
     2017.16358       -14.05809         5.59299
     2017.16632        -6.37437         5.60591
     2017.16906        -8.20265         5.58115
     2017.17180        -1.26993         5.63822
     2017.17453        -3.91521         5.60699
     2017.17727         2.71550         5.83097
     2017.18001        -4.58078         5.57361
     2017.18275        -4.13306         5.75667
     2017.18548        -9.93334         5.58330
     2017.18822        -0.93262         5.64253
     2017.19096       -13.45391         5.56607
     2017.19370        -7.75119         5.87404
     2017.19644        -4.24647         5.62422
     2017.19917        -4.35375         5.60807
     2017.20191        -2.78403         5.91173
     2017.20465       -15.41432         5.82343
     2017.20739        -6.39860         6.04741
     2017.21001       -11.36178         6.15078
     2017.21286        -6.49216         5.89235
     2017.21560        -8.31344         6.26816
     2017.21834        -5.68373         6.73442
     2017.22108         2.92999         6.14002
     2017.22381        -4.50629         6.10986
     2017.22655        -6.96457         6.20893
     2017.22929        -3.87685         5.60268
     2017.23203        -4.48214         8.90959
     2017.23477        -2.43842         5.76421
     2017.23750        -9.70870         5.56500
     2017.24024        -4.69498         5.57038
     2017.24298        -0.81626         5.76421
     2017.24572       -11.68654         5.70390
     2017.24846       -14.31183         5.97634
     2017.25119       -10.73111         5.62853
     2017.25393       -11.10639         5.60591
     2017.25667       -11.33867         5.58653
     2017.25941       -14.22395         5.78790
     2017.26214        -9.56824         5.60268
     2017.26488        -5.51552         6.26816
     2017.26762        -5.69180         5.78251
     2017.27042        -2.59113         6.01726
     2017.27310       -13.98136         5.75236
     2017.27583       -13.16265         5.58761
     2017.27857       -10.77093         5.79220
     2017.28131       -12.27221         5.99141
     2017.28405       -16.49049         6.18524
     2017.28679       -14.89377         5.76313
     2017.28952       -12.69506         6.41137
     2017.29226        -7.00234         5.98711
     2017.29500       -13.04062         6.35430
     2017.29774       -12.56290         5.80189
     2017.30047       -11.32418         5.91173
     2017.30321       -17.92947         6.60305
     2017.30595       -14.98275         6.14325
     2017.30869       -12.02603         5.74482
     2017.31143        -7.29531         5.81589
     2017.31416        -9.02759         5.71790
     2017.31690        -4.56488         5.86866
     2017.31964        -9.83116         5.72006
     2017.32238       -10.37044         6.15294
     2017.32512       -13.91672         5.59515
     2017.32785       -12.79600         6.02910
     2017.33059       -16.07128         5.57038
     2017.33333       -12.61257         5.59192
     2017.33607       -14.47285         6.30262
     2017.33880       -13.96513         6.20893
     2017.34154         1.42259         5.87296
     2017.34428        -7.85169         6.02695
     2017.34702       -14.53498         6.00326
     2017.34964        -8.33416         6.36722
     2017.35249       -13.86954         5.72006
     2017.35523       -15.31682         5.73298
     2017.35797       -15.06210         6.13894
     2017.36076        -7.53143         6.11525
     2017.36344       -11.28967         5.73729
     2017.36618       -11.31195         5.76205
     2017.36892       -10.98923         5.77067
     2017.37166        -4.84651         5.57469
     2017.37440       -10.18780         5.76851
     2017.37713       -11.30708         5.94080
     2017.37987       -15.92936         5.70821
     2017.38261       -12.49864         5.86435
     2017.38535       -16.18892         5.70067
     2017.38809        -9.94921         5.87943
     2017.39082        -8.75549         5.61561
     2017.39356         0.40823         6.70750
     2017.39630        -5.08905         5.58438
     2017.39904        -8.14333         5.58761
     2017.40177        -8.32862         6.02803
     2017.40440        -6.66180        11.90638
     2017.40714       -12.04408        10.75849
     2017.40999        -9.52446        22.86623
     2017.41273         2.61026         5.79220
     2017.41546        -7.54402         5.77928
     2017.41820        -5.39931         5.78790
     2017.42094        -7.22759         5.97849
     2017.42368        -6.85587         5.70498
     2017.42642       -13.16915         5.92465
     2017.42915        -9.47143         5.58869
     2017.43189        -3.03472         5.69098
     2017.43463         2.74400         5.73513
     2017.43737         0.51172         5.80943
     2017.44010         8.43744         5.99357
     2017.44284         1.13916         5.83097
     2017.44564        -4.96317         5.92573
     2017.44832         0.73559         5.81482
     2017.45106         4.20631         5.98603
     2017.45379        -1.04397         5.87727
     2017.45653        -0.30325         6.08510
     2017.45927        -5.06254         6.08941
     2017.46195        -4.70377         6.86148
     2017.46475        -5.42710         5.94403
     2017.46754        -3.17243         5.72113
     2017.47022        -8.30766         6.67735
     2017.47296        -1.81995         6.25739
     2017.47570        -7.33423         5.71252
     2017.47843        -8.27851         5.72867
     2017.48117        -6.75779         6.08402
     2017.48391        -6.24407         5.79651
     2017.48665        -4.20136         6.17232
     2017.48939         0.27136         5.75990
     2017.49212        -4.90092         5.92358
     2017.49486        -3.60420         5.96449
     2017.49760        -8.13048         5.96019
     2017.50034        -1.60676         5.93973
     2017.50308         2.79595         6.06356
     2017.50576        -1.64328         5.91711
     2017.50855        -3.70461         6.05602
     2017.51129         1.42211         6.23370
     2017.51403        -7.56717         6.00541
     2017.51671        -7.49441         5.95480
     2017.51950         4.62026         5.85897
     2017.52224         8.38198         5.68991
     2017.52498        -3.03130         6.09371
     2017.52772        -1.95858         5.77820
     2017.53051        -3.53291         5.88266
     2017.53319        -8.59015         6.10663
     2017.53593         6.64657         6.15509
     2017.53867         6.52729         5.81482
     2017.54141        11.38901         5.68452
     2017.54414         0.62372         5.69637
     2017.54688        -3.26856         5.83205
     2017.54962        -6.70784         6.58474
     2017.55236         2.68688         6.14109
     2017.55504         0.94064         6.10556
     2017.55783         6.92531         6.06787
     2017.56057         1.44403         6.12709
     2017.56331        -2.76525         6.31769
     2017.56605        -0.14253         5.78790
     2017.56878         0.66119         6.14432
     2017.57152        -3.35010         6.54167
     2017.57420        -0.38733         6.61382
     2017.57705         6.69329         6.19063
     2017.57974        -3.06594         5.77928
     2017.58247         1.64378         6.06356
     2017.58521        -4.35750         5.76205
     2017.58795        -3.79479         5.89342
     2017.59069        -2.24107         6.07325
     2017.59342        -0.98135         6.14648
     2017.59616         0.52637         6.38984
     2017.59890        -0.45991         5.69852
     2017.60164         2.58780         5.94511
     2017.60438        -4.97548         6.12171
     2017.60711         1.15924         6.16371
     2017.60985         1.25296         5.73406
     2017.61259         1.93268         6.21970
     2017.61533        10.81639         6.35107
     2017.61807        12.76211         6.30800
     2017.62080         5.45083         5.63499
     2017.62354         2.00155         5.65222
     2017.62628         3.60827         5.82558
     2017.62902         7.48698         5.93111
     2017.63175         5.52270         5.72113
     2017.63449        -2.32458         5.66406
     2017.63723         0.84014         5.59299
     2017.63997         3.31886         5.70713
     2017.64271         5.62057         5.67914
     2017.64544        -0.57871         5.99141
     2017.64818         5.85801         5.79651
     2017.65092         2.09173         5.58976
     2017.65366         3.31745         5.62745
     2017.65639         1.29817         5.71898
     2017.65913         2.04688         5.62960
     2017.66187         8.89460         5.60268
     2017.66461        11.43532         5.88804
     2017.66735         3.71904         5.78467
     2017.67008         8.87976         5.63283
     2017.67282        13.07447         5.82558
     2017.67556         4.12919         5.57253
     2017.67830         3.31991         5.59838
     2017.68104         6.77163         5.63607
     2017.68377         7.39435         5.95696
     2017.68651        10.23006         5.93973
     2017.68925        11.50478         5.75990
     2017.69199         2.44450         5.71360
     2017.69472        11.18722         5.64468
     2017.69746        12.65994         5.99895
     2017.70020        13.28865         5.98388
     2017.70294        11.32937         5.86435
     2017.70568         4.14809         5.76098
     2017.70841         6.83581         5.59084
     2017.71115         6.86653         5.64360
     2017.71389         5.20924         5.80405
     2017.71663        13.64196         5.74159
     2017.71937        13.19768         5.58545
     2017.72210         7.59640         5.56607
     2017.72473         0.46421         5.91281
     2017.72747         8.97193         6.89702
     2017.73032         7.49255         5.61453
     2017.73305         8.63527         5.59084
     2017.73579         1.63299         5.59084
     2017.73853        -0.59429         6.22831
     2017.74138         0.09833         6.59659
     2017.74401         6.03614         5.80405
     2017.74669         6.26991         5.84712
     2017.74977        19.78734        31.64337
     2017.75250        -3.23994        13.82634
     2017.75496         2.99802         8.53809
     2017.75770        -1.76827         5.96449
     2017.76043        21.03545        13.53452
     2017.76317         7.52817         5.60484
     2017.76591         8.13989         5.66837
     2017.76865         6.48561         5.60807
     2017.77138         0.58032         5.59945
     2017.77412         1.76704         5.64683
     2017.77686         4.91576         5.61668
     2017.77960         5.52148         5.72006
     2017.78234         2.38420         5.55961
     2017.78507        -1.48509         5.59192
     2017.78781        -0.20937         5.57253
     2017.79055         4.08435         5.64037
     2017.79329         2.09907         5.70929
     2017.79603         7.94279         5.59515
     2017.79871         4.89855         6.59336
     2017.80150        13.85422         7.58618
     2017.80424        11.31894         5.57038
     2017.80698         2.42666         5.73298
     2017.80971        -3.54862         5.64037
     2017.81245        -2.91191         5.66514
     2017.81519        -3.77919         5.75882
     2017.81793        -6.09647         5.58330
     2017.82067        -6.53475         5.69421
     2017.82340        -2.07103         5.61238
     2017.82614        -6.84731         5.69206
     2017.82888        -6.22260         5.88266
     2017.83162         7.28112         5.73621
     2017.83436         4.72584         5.54992
     2017.83709        -0.12444         5.73513
     2017.84257         3.54299         5.66083
     2017.84531        -0.05029         5.60484
     2017.84804        -4.44957         5.56392
     2017.85078         2.37315         5.61453
     2017.85352         0.49087         5.61238
     2017.85626         1.36358         5.73729
     2017.85900        -9.41170         5.76528
     2017.86173         4.90802         5.71790
     2017.86447         2.85674         5.58545
     2017.86721        -1.30354         5.63499
     2017.86995         3.09817         5.62207
     2017.87269        -0.76811         5.62530
     2017.87542         8.02261         5.62745
     2017.87816         9.71433         5.61130
     2017.88090         4.89805         5.58869
     2017.88364         2.31076         5.74052
     2017.88637         7.75848         5.58869
     2017.88911         6.10820         5.63499
     2017.89185        -2.17408         5.64899
     2017.89459        -3.66636         5.69098
     2017.89733         9.21735         5.63930
     2017.90006         2.58807         5.60699
     2017.90280         4.29579         5.67806
     2017.90554         2.52751         5.84820
     2017.90828         4.53723         5.62960
     2017.91102        -8.83605         5.69098
     2017.91375        -0.95534         5.68129
     2017.91649         3.91438         5.56500
     2017.91923         7.94010         5.60699
     2017.92197        -6.06418         5.66406
     2017.92470        -1.32946         5.59945
     2017.92744        -5.95375         5.62099
     2017.93018       -10.15303         5.63176
     2017.93292        -6.92831         5.59730
     2017.93566        -3.17959         5.63822
     2017.93839        -0.92887         5.62314
     2017.94113        -3.61116         5.66191
     2017.94387        -0.54944         5.61022
     2017.94661        -0.68372         5.62960
     2017.94935         1.16200         5.65652
     2017.95208        -1.04628         5.77497
     2017.95482        -3.21757         5.60699
     2017.95756         0.16215         5.56930
     2017.96030         5.66187         5.56715
     2017.96303        -3.23041         5.62099
     2017.96577         6.38631         5.93434
     2017.96851         8.55702         5.55423
     2017.97125         0.10074         5.57038
     2017.97399        -1.04654         5.54131
     2017.97672        -3.39482         5.52623
     2017.97946        -4.45010         5.56823
     2017.98220        -0.18239         5.58438
     2017.98494        -3.74167         5.55207
     2017.98767        -7.29595         5.55638
     2017.99041       -10.01723         5.52192
     2017.99315       -15.41251         5.58222
     2017.99589       -18.33979         5.60161
     2018.00684       -24.53092         5.60699
     2018.00958       -11.20520         5.60699
     2018.01232       -12.08449         5.60053
     2018.01505       -14.34477         5.63283
     2018.01779         0.67495         5.59515
     2018.02053        -6.95033         5.72544
     2018.02327        -6.13461         5.59945
     2018.02600       -18.66290         5.61991
     2018.02874         2.36482         5.58438
     2018.03148        -3.26046         5.58653
     2018.03422       -12.94774         5.57576
     2018.03969       -10.45831         5.57361
     2018.04243        -5.16959         5.62960
     2018.04517        -6.83087         5.62099
     2018.04791       -13.45315         5.63822
     2018.05065         1.47657         5.58869
     2018.05338        -1.93472         5.76205
     2018.05612        -2.16600         5.55961
     2018.05886        -7.97028         5.60699
     2018.06160        -4.69756         5.61453
     2018.06433        -7.73384         5.72544
     2018.06981        -4.97541         5.67268
     2018.07255        -4.20969         5.67160
     2018.07529        -6.06897         5.72759
     2018.08076        -9.50153         5.84712
     2018.08350        -0.71782         5.67698
     2018.08624        -9.24810         5.65545
     2018.08898       -10.28138         5.70498
     2018.09171        -6.10666         5.70606
     2018.09445        -8.20394         5.72436
     2018.09719        -1.88323         5.87189
     2018.09993        -8.08851         5.71467
     2018.10266        -8.79379         5.72221
     2018.10540       -14.65507         5.87835
     2018.10814        -8.96235         5.69852
     2018.11088        -5.72164         5.73836
     2018.11362        -3.17292         5.68452
     2018.11635        -9.99120         5.70606
     2018.11909        -6.97148         5.81589
     2018.12183        -4.72976         5.80297
     2018.12457        -1.06205         5.65760
     2018.12731        -6.60133         5.70498
     2018.13004        -0.25461         5.70713
     2018.13278       -12.39289         5.72867
     2018.13552       -21.00317         5.67914
     2018.13826       -28.38346         5.64145
     2018.14373       -28.88002         5.70713
     2018.14647       -17.34330         5.96665
     2018.14921       -14.08858         5.78359
     2018.15195        -1.70587         5.66729
     2018.15468        -1.54415         5.65652
     2018.15742        -0.10943         5.69421
     2018.15936        -3.02305         9.39201
     2018.16683       -11.73127        17.64582
     2018.16837        -3.95856         5.66729
     2018.17111        -5.63784         5.70821
     2018.17385        -6.32512         5.72544
     2018.17659        -9.35940         5.77820
     2018.17932        -7.58268         5.68668
     2018.18206        -5.31997         5.78359
     2018.18480        -6.75225         5.76851
     2018.18754        -9.42953         5.73190
     2018.19028       -11.64781         5.69637
     2018.19301        -8.37209         5.66514
     2018.19575        -6.64338         5.66729
     2018.19849        -0.57766         5.60268
     2018.20123         2.74206         5.78682
     2018.20397        -4.63622         5.67375
     2018.20670        -7.05050         5.67268
     2018.20944        -3.02679         5.64253
     2018.21218        -9.40307         5.62422
     2018.21492       -18.14435         5.64683
     2018.21765        -7.84863         5.61668
     2018.22039        -6.20791         5.64037
     2018.22313        -3.44920         5.61884
     2018.22587       -12.87248         5.56284
     2018.22861       -10.48476         5.52946
     2018.23134       -11.51104         5.59838
     2018.23408       -14.02432         5.63068
     2018.23682       -10.60860         5.63822
     2018.23956        -8.27889         5.57146
     2018.24230       -14.15217         5.58545
     2018.24503       -11.03245         5.55961
     2018.24777        -7.77473         5.62853
     2018.25051        -5.64901         5.61991
     2018.25325       -12.12230         5.55853
     2018.25598        -7.35258         5.56284
     2018.25872        -9.86686         5.64253
     2018.26146        -9.94714         5.68021
     2018.26420        -8.50542         5.57361
     2018.26694       -19.98071         5.54884
     2018.26967       -11.97899         5.53807
     2018.27241       -14.34227         5.89881
     2018.27515        -2.17555         5.57576
     2018.27789        -3.70083         5.76205
     2018.28062       -12.99012         5.84066
     2018.28336       -11.73240         5.57469
     2018.28610        -7.71368         5.55530
     2018.28884        -2.94196         5.56607
     2018.29158        -3.63424         5.75451
     2018.29431       -12.51553         5.69852
     2018.29705       -16.46881         5.59945
     2018.29979       -13.90009         5.54992
     2018.30253        -5.94837         5.57899
     2018.30527       -12.36765         5.53807
     2018.30800       -15.59094         5.82774
     2018.31074       -17.08922         5.60053
     2018.31348        -5.49250         5.53377
     2018.31622       -12.22278         5.48100
     2018.31895        -3.89306         5.69960
     2018.32169        -5.62234         5.59407
     2018.32443        -8.71063         5.57469
     2018.32717       -11.60491         5.57469
     2018.32991        -8.62219         5.71467
     2018.33264        -6.23947         5.51654
     2018.33538        -8.39275         5.75451
     2018.33812        -4.97004         5.82451
     2018.34086        -7.78832         5.63607
     2018.34360       -11.76060         5.56930
     2018.34633        -8.92688         5.57038
     2018.34907        -8.30316         5.67375
     2018.35181        -3.00345         5.62422
     2018.35455        -1.71173         5.58869
     2018.35728        -3.49001         5.58115
     2018.36002        -5.52929         5.55853
     2018.36276        -4.33957         5.63714
     2018.36550        -6.50986         5.74375
     2018.36824        -2.81114         5.81374
     2018.37097        -1.89642         5.56823
     2018.37371         0.60430         5.59730
     2018.37645        -5.49098         5.74267
     2018.37919        -5.78327         5.60268
     2018.38193        -5.96155         5.65545
     2018.38466        -2.91283         5.67268
     2018.38740        -3.41311         5.58115
     2018.39014         4.05061         5.62530
     2018.39288         0.80132         5.65222
     2018.39561        -3.84096         5.62745
     2018.39835         6.86276         5.65006
     2018.40109         0.44348         5.66299
     2018.40383         1.09120         5.65868
     2018.40657         1.60492         5.69206
     2018.40930         4.63763         5.87404
     2018.41204         5.14835         6.20893
     2018.41478        -0.96793         5.76636
     2018.41752        -3.24721         5.78682
     2018.42026        -2.80349         5.62637
     2018.42299        -0.14078         5.65760
     2018.42573        -1.39206         5.62745
     2018.42847        -0.92134         5.56392
     2018.43121         0.53138         5.63499
     2018.43394        -2.85290         5.64468
     2018.43668         4.02381         5.62960
     2018.43942        -0.52847         5.56715
     2018.44216         1.64325         5.55315
     2018.44490        -1.44403         5.58653
     2018.44763         0.40369         5.67268
     2018.45037         2.34340         5.62207
     2018.45311        -1.62088         5.61776
     2018.45585         3.55384         5.57469
     2018.45859        -1.07844         5.62099
     2018.46132        -2.61172         5.63822
     2018.46406        -2.27601         5.60053
     2018.46680        -3.83429         5.59192
     2018.46954        -4.76757         5.75021
     2018.47227        -4.75585         5.71790
     2018.47501         7.04887         5.53915
     2018.47775        -0.98642         5.56607
     2018.48049         1.29030         5.74913
     2018.48323        -4.81698         5.67483
     2018.48596        -2.90726         5.63930
     2018.48870         2.55046         5.55100
     2018.49144         3.15918         5.59084
     2018.49418         3.19089         5.69960
     2018.49692         6.60961         5.71790
     2018.49965         5.03033         5.69529
     2018.50239        -2.71695         5.57146
     2018.50513        -2.87923         5.54346
     2018.50787         2.75548         5.60484
     2018.51060         0.41220         5.86220
     2018.51334        -1.16008         5.71360
     2018.51608        -3.44236         5.66299
     2018.51882        -3.20564         5.60376
     2018.52156         0.55707         5.71037
     2018.52429         1.50979         5.60376
     2018.52703         2.15951         5.58653
     2018.52977         6.81723         5.65760
     2018.53251        -4.92705         5.76636
     2018.53525        -0.27734         5.57576
     2018.53798        -1.31662         5.54131
     2018.54072         2.15110         5.63068
     2018.54346         7.31982         5.64037
     2018.54620         2.24554         5.65222
     2018.54893         5.60125         5.56607
     2018.55167        -4.57003         5.65006
     2018.55441        -0.09031         5.58330
     2018.55715        -3.70359         5.65868
     2018.55989        -1.63587         5.72759
     2018.56262         3.25284         5.68560
     2018.56536         3.38356         5.89989
     2018.56810         5.57928         5.63176
     2018.57084         1.91700         5.72544
     2018.57357         0.67572         5.77605
     2018.57631         1.54644         5.78036
     2018.57905         5.40215         5.84497
     2018.58179         2.06287         5.75775
     2018.58453        11.47459         5.77497
     2018.58726         8.20931         5.57469
     2018.59000         9.65303         5.57361
     2018.59274         6.28274         5.58869
     2018.59548         7.87946         5.60807
     2018.59822        10.91918         5.65545
     2018.60095         4.48290         5.55638
     2018.60369        12.88962         5.56176
     2018.60643         7.30933         5.53161
     2018.60917         6.25005         5.86435
     2018.61190         5.77377         5.72652
     2018.61464         3.14749         5.54777
     2018.61738         8.32121         5.57253
     2018.62012        12.27892         5.53915
     2018.62286         5.51364         5.62099
     2018.62559        10.28736         5.69206
     2018.62833         3.41908         5.60376
     2018.63107         6.20580         5.53484
     2018.63381         7.82651         5.69314
     2018.63655         7.04523         5.51977
     2018.63928         9.85795         5.78682
     2018.64202        10.36567         5.81482
     2018.64476        12.94939         5.57253
     2018.64750         5.76010         5.57038
     2018.65023        11.70882         6.12602
     2018.65297        13.27854         5.56392
     2018.65571        11.46226         5.59838
     2018.65845        10.51198         5.55315
     2018.66119        11.41270         5.83958
     2018.66392         5.57641         5.60161
     2018.66666         8.49213         5.61022
     2018.66940         6.82985         5.56930
     2018.67214         9.45257         5.61884
     2018.67488         1.71729         5.63607
     2018.67761         1.08400         5.55746
     2018.68035        -2.52028         5.63930
     2018.68309        -0.19056         5.63607
     2018.68583        11.89116         5.71898
     2018.68856         8.28388         5.58222
     2018.69130        16.39959         5.68991
     2018.69404        11.06731         5.66514
     2018.69678         6.07603         5.74805
     2018.69952         0.26975         5.57684
     2018.70225         4.68747         5.72221
     2018.70499         1.99818         5.57792
     2018.70773         8.15890         5.62637
     2018.71047         0.62162         5.58653
     2018.71321         0.14834         5.59407
     2018.71594         3.58906         5.55853
     2018.71868        -4.69023         5.54884
     2018.72142         2.09649         5.55961
     2018.72416         1.36121         5.59945
     2018.72689        -2.43407         5.66729
     2018.72963         1.75065         5.56500
     2018.73237        -0.58964         5.54346
     2018.73511        -1.18192         5.54023
     2018.73785         1.34980         6.45229
     2018.74058        -1.27948         6.07541
     2018.74332         9.39024         5.56176
     2018.74606         4.30696         5.57146
     2018.74880         5.70367         5.50685
     2018.75154         2.29339         5.58438
     2018.75427         2.58911         5.53377
     2018.75701         2.02783         5.65652
     2018.75975         0.42155         5.52623
     2018.76249         5.79026         5.51654
     2018.76522         1.47598         5.63068
     2018.76796         1.26470         5.51115
     2018.77070         4.80542         5.60376
     2018.77344         1.05414         5.58761
     2018.77618         3.14085         5.58115
     2018.77891         2.03957         5.54561
     2018.78165         0.97529         5.72544
     2018.78439         2.93001         5.63607
     2018.78713        -1.24927         5.62422
     2018.78987        -9.68456         5.65222
     2018.79260        -3.12884         5.52300
     2018.79534         8.13888         5.56607
     2018.79808         1.46460         5.56823
     2018.80082        -0.00668         5.65868
     2018.80355        -1.55197         5.61561
     2018.80629         2.96175         5.76313
     2018.80903         3.86847         5.54884
     2018.81177         9.61319         5.90527
     2018.81451         2.67191         5.62422
     2018.81724         6.10463         5.63499
     2018.81998         4.21334         5.70283
     2018.82272         9.94906         5.58545
     2018.82546         9.02978         5.68345
     2018.82820         3.00450         5.61991
     2018.83093         6.40522         5.59299
     2018.83367         4.99193         5.56500
     2018.83641        12.06465         5.62637
     2018.83915         2.97637         5.60591
     2018.84188         8.69409         5.59299
     2018.84462        11.50781         5.56823
     2018.84736         0.79652         5.53161
     2018.85010         5.33324         5.62099
     2018.85284        -2.29204         5.57469
     2018.85557        -3.02032         5.62745
     2018.85831        -0.82560         5.55746
     2018.86105        -3.27189         5.56069
     2018.86379        -3.36017         5.67806
     2018.86653         3.63255         5.56823
     2018.86926       -11.65873         5.59084
     2018.87200         3.14099         5.58222
     2018.87474         5.60570         5.55961
     2018.87748        -1.16258         5.62207
     2018.88021         2.51614         5.69421
     2018.88295         2.33886         5.70283
     2018.88569        -1.00142         5.71252
     2018.88843         8.30829         5.66945
     2018.89117        -5.31699         5.71898
     2018.89390         7.71473         5.67375
     2018.89664         1.33045         5.79220
     2018.89938        -0.79683         5.74052
     2018.90212         4.52589         5.71575
     2018.90485         8.40560         5.68991
     2018.90759       -12.66568         5.71144
     2018.91033         8.77304         5.65329
     2018.91307        10.08976         5.76313
     2018.91581         7.34148         5.63283
     2018.91854         9.45419         5.62960
     2018.92128         3.94391         5.62314
     2018.92402         3.46563         5.62314
     2018.92676         4.64835         5.64683
     2018.92950         3.89207         5.64360
     2018.93223         3.28778         5.74375
     2018.93497         1.35350         5.61130
     2018.93771         1.15322         5.59084
     2018.94045        -0.48506         5.60053
     2018.94318        10.02866         5.56607
     2018.94592        12.06437         5.59299
     2018.94866         5.41809         5.55207
     2018.95140        10.72681         5.70067
     2018.95414         7.72553         5.51331
     2018.95687         0.68525         5.54884
     2018.95961        -1.85404         5.65006
     2018.96235        10.70468         5.57361
     2018.96509         3.39440         5.55100
     2018.96783         3.22712         5.52623
     2018.97056         7.27584         5.66945
     2018.97330         3.36455         5.58869
     2018.97604        -4.79473         5.69098
     2018.97878        -9.04901         5.60053
     2018.98151       -13.26929         5.53377
     2018.98425         2.12743         5.69852
     2018.98699        -0.95685         5.67052
     2018.98973        -1.74914         5.67806
     2018.99247        -7.60042         5.66729
     2018.99520        -1.85170         5.66945
     2018.99794        -7.22798         5.56823
     2019.00068        -0.95726         5.61668
     2019.00342        -3.22055         5.65976
     2019.00616        -2.17883         5.62853
     2019.00889         2.06889         5.64683
     2019.01163         1.21661         5.56392
     2019.01437        -0.44667         5.58222
     2019.01711         5.95104         5.59192
     2019.01984        -5.71924         5.64576
     2019.02258        -8.67352         5.58869
     2019.02532       -19.04280         5.83312
     2019.02806       -15.14308         5.66191
     2019.03005        -3.90675         8.76530
     2019.03901        -4.82421         5.56176
     2019.04061        -7.89654        13.34393
     2019.04722        -6.01806         5.62853
     2019.04945       -14.53691         7.23622
     2019.05914       -17.45999        10.84463
     2019.06091        -7.39547         5.65760
     2019.06365        -5.77475         5.66514
     2019.06639        -8.06903         5.64899
     2019.06913        -1.01731         5.72436
     2019.07186        -1.99959         5.77390
     2019.07460        -2.43388         5.57146
     2019.07734        -2.72816         5.54884
     2019.08008         2.23156         5.55423
     2019.08282         0.42328         5.74482
     2019.08555         0.49400         5.56176
     2019.08829         0.66571         5.59945
     2019.09103         2.95243         5.53161
     2019.09377         3.56215         5.55746
     2019.09650         4.20987         5.51331
     2019.09924        -0.53541         5.64037
     2019.10198        -5.50470         5.53807
     2019.10472        -5.89998         5.55853
     2019.10746        -3.60126         5.56930
     2019.11019        -2.87254         5.52408
     2019.11293         2.90018         5.63822
     2019.11567        -0.55211         5.82128
     2019.11841         7.20261         5.57792
     2019.12115        10.61533         5.70713
     2019.12388         9.59505         5.66622
     2019.12662         3.35877         5.59622
     2019.12936        -0.91652         5.56284
     2019.13210        -0.16080         5.54992
     2019.13483        -1.04408         5.55746
     2019.13757        -0.02536         5.59299
     2019.14031        -0.14664         5.58653
     2019.14305         3.91607         5.57899
     2019.14579        -6.12221         5.57253
     2019.14852        -0.75549         5.54238
     2019.15126        -1.37077         5.54669
     2019.15400        -6.38005         5.56823
     2019.15674        -1.52233         5.58115
     2019.15948        -7.61762         5.55315
     2019.16221        -8.99990         5.70713
     2019.16495        -4.33118         5.52192
     2019.16769       -11.60446         5.55423
     2019.17043        -8.15174         5.58330
     2019.17316        -6.41803         5.57361
     2019.17590        -1.91031         5.53592
     2019.17864        -5.22859         5.54454
     2019.18138        -1.31087         5.56392
     2019.18412        -9.38615         5.56930
     2019.18685        -7.85944         5.59084
     2019.18959        -2.32072         5.53161
     2019.19233         1.53800         5.52731
     2019.19507        -4.19328         5.52731
     2019.19780        -9.93256         5.60484
     2019.20054        -8.56685         5.69206
     2019.20328       -14.36713         5.52731
     2019.20602       -12.88341         5.53161
     2019.20876       -15.76969         5.51869
     2019.21149       -11.28497         5.52946
     2019.21423        -6.30726         5.58438
     2019.21697        -8.54554         5.57038
     2019.21971        -6.70582         5.67268
     2019.22245       -10.37910         5.53269
     2019.22518        -7.26238         5.47885
     2019.22792        -5.23867         5.53484
     2019.23066        -2.08995         5.58869
     2019.23340        -6.99223         5.54669
     2019.23613        -8.03151         5.53592
     2019.23887        -8.29679         5.54131
     2019.24161       -10.47507         5.74482
     2019.24435        -7.25336         5.65222
     2019.24709       -10.10464         5.65222
     2019.24982        -5.22992         5.56607
     2019.25256        -1.91020         5.67698
     2019.25530        -6.21048         5.61991
     2019.25804        -3.47277         5.55207
     2019.26078        -2.07005         5.58976
     2019.26351        -2.96033         5.62745
     2019.26625        -4.96761         5.59407
     2019.26899        -6.68589         5.68021
     2019.27173        -4.29718         5.85358
     2019.27446        -7.35146         5.53161
     2019.27720        -6.63874         5.58653
     2019.27994        -0.73502         5.51223
     2019.28268        -2.92030         5.54238
     2019.28542         0.58041         5.55961
     2019.28815        -1.70387         5.59515
     2019.29089         1.36085         5.66945
     2019.29363        -4.43943         5.54131
     2019.29637        -2.35771         5.63607
     2019.29911        -0.32900         5.59515
     2019.30184        -4.62728         5.58222
     2019.30458       -12.60856         5.54454
     2019.30732        -3.73584         5.57899
     2019.31006        -3.51112         5.63283
     2019.31279        -8.89940         5.64791
     2019.31553         2.70031         5.56284
     2019.31827        -8.13397         5.58545
     2019.32101        -5.10425         5.54023
     2019.32375       -16.69853         5.54454
     2019.32648        -6.93681         5.52838
     2019.32922        -4.25610         5.59730
     2019.33196        -4.78038         5.70067
     2019.33470        -2.05066         5.69960
     2019.33744        -4.48194         5.56392
     2019.34017        -8.47322         5.57899
     2019.34291        -4.06751         5.57684
     2019.34565        -5.07479         5.66514
     2019.34839        -7.98507         5.63822
     2019.35112        -9.07635         5.57253
     2019.35386        -5.15563         5.62314
     2019.35660        -3.20692         5.80943
     2019.35934         1.93180         5.64145
     2019.36208        -0.87048         5.59515
     2019.36481        -1.87976         5.57469
     2019.36755        -5.31604         5.61345
     2019.37029         0.92267         5.61345
     2019.37303         1.23339         5.59622
     2019.37577         1.76311         5.66945
     2019.37850        -2.06317         5.56500
     2019.38124         4.10155         5.61022
     2019.38398         4.30726         5.59084
     2019.38672        -1.08402         5.59299
     2019.38945        -4.07230         5.57469
     2019.39219         1.19742         5.64360
     2019.39493         0.76514         5.58007
     2019.39767         6.57086         5.56176
     2019.40041        -0.72743         5.57146
     2019.40314        -3.90471         5.58438
     2019.40588         1.95601         5.63283
     2019.40862        -0.04427         5.56823
     2019.41136        -2.73255         5.55423
     2019.41410         2.98416         5.69421
     2019.41683         5.28788         5.64683
     2019.41957         2.64560         5.80405
     2019.42231        -3.31568         5.63822
     2019.42505         6.22304         5.57146
     2019.42778         0.54375         5.72867
     2019.43052         8.24747         5.58007
     2019.43326        -0.91181         5.67806
     2019.43600        -5.08209         5.61130
     2019.43874        -2.72137         5.62637
     2019.44147        -7.05966         5.68237
     2019.44421        -7.10794         5.69637
     2019.44695        -4.24622         5.78036
     2019.44969        14.03150         5.90419
     2019.45243         8.35122         5.73944
     2019.45516         2.08993         5.67268
     2019.45790         0.80165         5.76421
     2019.46064         8.66337         5.80728
     2019.46338        12.81609         6.16155
     2019.46611         2.63481         5.94080
     2019.46885         5.75452         5.83205
     2019.47159         1.47724         5.73190
     2019.47433         4.96196         5.78897
     2019.47707         2.87568         5.75667
     2019.47980        -2.40960         5.74698
     2019.48254         0.83412         5.68668
     2019.48528        -1.52017         5.86004
     2019.48802        -7.06645         5.84066
     2019.49076        -4.00673         5.62314
     2019.49349        -8.57401         5.68560
     2019.49623        -3.14429         5.65760
     2019.49897         3.20942         5.66191
     2019.50171         2.49314         5.61561
     2019.50444        -3.48514         5.56392
     2019.50718        -0.88242         5.63607
     2019.50992        -2.76770         5.64360
     2019.51266         4.44201         5.84604
     2019.51540         0.40773         5.67698
     2019.51813        -8.35555         5.56823
     2019.52087         2.74617         5.66729
     2019.52361         0.96089         5.70821
     2019.52635        -5.50940         5.62422
     2019.52908         3.22332         5.87620
     2019.53182        -7.13896         5.79866
     2019.53456        -2.42424         5.80943
     2019.53730        -0.77152         5.82774
     2019.54004        -3.01081         5.82774
     2019.54277        14.22491         5.87620
     2019.54551         2.30563         5.98172
     2019.54825         4.24735         5.57146
     2019.55099        -1.31093         5.59192
     2019.55373         4.90078         5.77497
     2019.55646         6.11050         5.92142
     2019.55920       -15.56478         6.40384
     2019.56194         0.72694         5.55638
     2019.56468        -0.65934         5.68560
     2019.56741        -1.15262         5.64791
     2019.57015        -0.04191         5.63607
     2019.57289        -2.37219         5.68775
     2019.57563         1.09353         5.55530
     2019.57837        -1.76875         5.71790
     2019.58110        -2.19103         5.61776
     2019.58384         1.04768         5.98280
     2019.58658         7.89340         5.77497
     2019.58932         1.71712         5.64468
     2019.59206        -1.61516         5.78574
     2019.59479         7.11256         5.60914
     2019.59753         8.21227         5.90635
     2019.60027         2.11099         5.82343
     2019.60301        -0.81129         5.72975
     2019.60574         8.63743         6.06033
     2019.60848        12.08615         5.88050
     2019.61122        -0.17714         5.57146
     2019.61396         1.21058         5.73729
     2019.61670        -0.28270         5.76959
     2019.61943        -0.84898         5.72652
     2019.62217         6.47774         5.75236
     2019.62491        13.49045         5.64899
     2019.62765         6.82717         5.60268
     2019.63039        15.63789         5.67160
     2019.63312        -3.16839         5.62745
     2019.63586         8.24033         5.63176
     2019.63860        12.74704         5.68237
     2019.64134         4.87276         5.68021
     2019.64407         4.18948         5.65114
     2019.64681         3.69920         5.70498
     2019.64955         5.38692         5.68345
     2019.65229         2.96264         5.58438
     2019.65503         3.23735         5.69637
     2019.65776        -5.36693         5.67268
     2019.66050         3.87879         5.74482
     2019.66324         0.03951         5.68129
     2019.66598         0.68223         5.71575
     2019.66872         4.13494         5.64037
     2019.67145         3.49566         5.58653
     2019.67419         1.54438         5.67483
     2019.67693        -0.65290         5.79651
     2019.67967         4.13582         5.75344
     2019.68240         0.87853         5.57038
     2019.68514         3.66025         5.63391
     2019.68788         7.31897         5.66514
     2019.69062         4.64069         5.70067
     2019.69336        -0.30759         5.60699
     2019.69609         2.25612         5.62207
     2019.69883        -0.48116         5.70175
     2019.70157         3.98756         5.61668
     2019.70431         7.53228         5.62745
     2019.70705         6.08900         5.61453
     2019.70978         6.62871         5.61345
     2019.71252         2.53443         5.58761
     2019.71526         3.09315         5.53054
     2019.71800         3.63287         5.83958
     2019.72073         2.23759         5.84604
     2019.72347         2.11230         5.57899
     2019.72621         2.42202         5.63391
     2019.72895        -1.77326         5.61238
     2019.73169        11.87446         5.62422
     2019.73442         7.38218         5.63607
     2019.73716         4.98690         5.60161
     2019.73990         7.31561         5.80189
     2019.74264         1.57533         5.65222
     2019.74538         2.10905         5.52838
     2019.74811         2.95677         5.70283
     2019.75085         0.68649         5.68775
     2019.75359         3.81220         5.92250
     2019.75633         2.75992         5.71144
     2019.75906         4.35864         5.58545
     2019.76180         0.04536         5.59838
     2019.76454         5.30508         5.69098
     2019.76728         1.91679         5.77713
     2019.77002         1.36951         5.70498
     2019.77275        -5.16877         5.83743
     2019.77549         0.84395         5.71144
     2019.77823         1.44667         5.71252
     2019.78097         6.20338         5.68775
     2019.78371         3.09010         5.75344
     2019.78644         0.69882         5.73190
     2019.78918         4.91754         5.76744
     2019.79192         7.59126         5.75990
     2019.79466        11.12697         5.74482
     2019.79739         6.57769         5.68991
     2019.80013         8.07641         5.71790
     2019.80287         4.21013         5.65329
     2019.80561         1.63985         5.81589
     2019.80835         3.56456         5.73082
     2019.81108         1.03228         5.69098
     2019.81382         2.56400         5.79005
     2019.81656         5.76972         5.68668
     2019.81930        -0.86256         5.68452
     2019.82203         1.72516         5.70606
     2019.82477        -2.64513         5.70067
     2019.82751        -2.02341         5.73513
     2019.83025         1.43131         5.82020
     2019.83299         0.48103         5.77067
     2019.83572         4.25675         5.68452
     2019.83846         8.13946         5.68021
     2019.84120         6.13218         5.70390
     2019.84394         0.94290         5.89773
     2019.84668        -1.75438         5.72113
     2019.84941         2.68334         5.72759
     2019.85215         3.09505         5.73082
     2019.85489         2.66477         5.72329
     2019.85763         5.16349         5.75559
     2019.86036         2.29621         5.74805
     2019.86310        -3.14807         5.75882
     2019.86584         6.07164         5.75990
     2019.86858         5.94936         5.68452
     2019.87132         4.96408         5.78359
     2019.87405         6.01680         5.74159
     2019.87679         3.37652         5.81159
     2019.87953        10.24323         5.65006
     2019.88227        14.01595         5.67268
     2019.88501        10.51467         5.67052
     2019.88774         5.59539         5.86973
     2019.89048        12.96411         5.72221
     2019.89322        10.87883         5.64683
     2019.89596        11.79654         5.65437
     2019.89869         7.69726         5.67914
     2019.90143         6.81898         5.62207
     2019.90417         8.89470         5.71790
     2019.90691         6.42542         5.65114
     2019.90965         4.45313         5.62314
     2019.91238         8.20185         5.64576
     2019.91512        10.22957         5.71360
     2019.91786         7.67029         5.64468
     2019.92060         3.10801         5.70067
     2019.92334         4.21772         5.61884
     2019.92607         9.57044         5.64360
     2019.92881         6.67016         5.72006
     2019.93155         9.92788         5.62853
     2019.93429         8.66860         5.67052
     2019.93702         2.79331         5.65868
     2019.93976         2.57603         5.63068
     2019.94250         1.33875         5.74052
     2019.94524       -11.42553         5.68668
     2019.94798       -18.11281         5.66406
     2019.95071         5.69290         5.92358
     2019.95345         6.91862         5.68021
     2019.95619         8.91434         5.64360
     2019.95893        -0.22094         5.69852
     2019.96167         2.13778         5.67375
     2019.96440         2.02949         5.80620
     2019.96714       -20.50479         5.95803
     2019.96988        -3.56807         5.70175
     2019.97262         8.94265         5.67375
     2019.97535         9.35937         5.68021
     2019.97809         3.69609         5.66837
     2019.98083         2.81880         5.71144
     2019.98357         1.04552         5.64576
     2019.98631        -0.14276         5.66299
     2019.98904         0.04096         5.66945
     2019.99178         1.26068         5.65437
     2019.99452         2.45439         5.71144
     2019.99726         4.30911         5.68345
     2020.03011       -22.92327         5.75344
     2020.03559       -13.24984         5.58976
     2020.03833       -11.25112         5.58653
     2020.04106       -22.07640         5.71467
     2020.04380       -17.58268         5.80513
     2020.04654       -22.77596         5.56284
     2020.04928       -24.57425         5.56715
     2020.05201        -8.83453         5.59730
     2020.05475        -0.14381         5.51977
     2020.05732        -6.50495         5.98818
     2020.06129        -0.59126        11.70824
     2020.06297         1.63635         5.65437
     2020.06570         0.99206         5.55423
     2020.06844         7.80978         5.58007
     2020.07118         4.76750         5.55423
     2020.07392         3.01122         5.59084
     2020.07666        -1.73206         5.60268
     2020.07939       -17.25435         5.61345
     2020.08213       -15.59063         5.58761
     2020.08487         0.44509         5.70606
     2020.09582        -1.41304         5.58976
     2020.09856        -6.16732         5.58545
     2020.10130       -12.16660         5.62422
     2020.10403        -9.33788         5.61668
     2020.10677        -5.18217         5.57146
     2020.10951        -5.98645         5.61884
     2020.11225         0.79527         5.57684
     2020.11498        -1.14901         5.59622
     2020.11772        -1.77329         5.72329
     2020.12046        -2.46258         5.77497
     2020.12320        -7.22986         5.58653
     2020.12594        -1.01214         5.55100
     2020.12867        -6.30042         5.56823
     2020.13141        -7.15370         5.57684
     2020.13415        -9.19499         5.54238
     2020.13689        -6.50427         5.63930
     2020.13963        -5.85755         5.69744
     2020.14236        -6.40583         5.57792
     2020.14510         1.55389         5.59515
     2020.14784       -16.77239         5.68991
     2020.15058        -7.46468         5.62422
     2020.15331       -10.07896         5.56069
     2020.15605        -9.92824         5.59945
     2020.15879        -5.67952         5.59945
     2020.16153        -0.87980         5.67914
     2020.16427        -1.78209         5.62207
     2020.22176        -9.91701         5.73513
     2020.22450        -0.15229         5.70929
     2020.22724        -5.03157         5.66406
     2020.22997        -3.47485         5.65545
     2020.23271        -2.88113         5.72867
     2020.23545        -0.25542         5.64468
     2020.23819        -4.07270         5.64576
     2020.24093        -4.03498         5.66514
     2020.24366        -4.97426         5.72221
     2020.24640        -4.98854         5.72221
     2020.24914        -9.59383         5.67375
     2020.25188        -8.34311         5.65652
     2020.25462        -5.35439         5.67806
     2020.25735        -9.89367         5.66299
     2020.26009        -0.93295         5.62745
     2020.26283        -3.44924         6.56105
     2020.26557        -5.74452         6.33061
     2020.26830        -9.70280         5.64683
     2020.26984        -5.33508        19.78976
     2020.27475       -13.62917        10.73049
     2020.27652        -9.84965         5.77497
     2020.27926        -5.59393         5.75128
     2020.28199        -6.84521         5.77390
     2020.28473        -8.58249         5.67914
     2020.28747        -3.67777         5.70929
     2020.29021        -8.96206         5.68129
     2020.29295        -6.56134         5.69098
     2020.29568        -2.43762         5.69098
     2020.33584        -0.75109         9.68598
     2020.49828         3.47352         5.65329
     2020.50102        -4.74876         5.65329
     2020.51317       -35.95089        16.60776
     2020.51471        -1.60317         5.73944
     2020.51745        -1.59046         5.59622
     2020.52019         0.90926         5.80297
     2020.52292         2.82698         5.82128
     2020.52566        -1.34730         5.68775
     2020.52840         4.52642         6.11525
     2020.53114        -1.09487         5.83635
     2020.53388        -4.29515         5.77497
     2020.53661         0.31957         5.78144
     2020.53935         2.15129         5.86220
     2020.54209        -4.26799         5.82235
     2020.54483        -4.40628         5.88158
     2020.54757       -11.03756         5.73082
     2020.55030         2.41316         5.85143
     2020.55304         2.66388         5.81374
     2020.55578         0.74060         5.85789
     2020.55852         4.05532         5.93327
     2020.56125         3.52003         5.91281
     2020.56399         3.76775         5.78897
     2020.56673        -2.13453         5.75236
     2020.56947         4.17519         5.73513
     2020.57221        10.46791         6.00972
     2020.57494         0.80862         5.82128
     2020.57768        -8.32866         5.91388
     2020.58042         2.73806         5.78574
     2020.58316        -9.04222         5.99141
     2020.58590         2.85950         5.86327
     2020.58863         3.72721         5.84820
     2020.59137         1.88193         5.79328
     2020.59411         7.50965         5.74698
     2020.59685         9.33037         6.02480
     2020.59958         5.10309         5.90635
     2020.60232         7.04380         5.81697
     2020.60506         2.05152         5.85789
     2020.60780        -2.81176         5.79113
     2020.61054        13.29996         5.76421
     2020.61327        16.28368         5.87512
     2020.61601         3.03739         5.79436
     2020.61875        -5.07589         5.73944
     2020.62149         0.78083         5.77713
     2020.62423         1.20355         5.76098
     2020.62696         0.70427         5.85251
     2020.62970         3.85798         5.97742
     2020.63244         7.78170         5.92896
     2020.63518         0.38042         5.83205
     2020.63791         4.58014         5.98926
     2020.64065         6.11686         6.02695
     2020.64339         1.68158         5.77067
     2020.64613         3.88129         5.76851
     2020.64887         7.00101         5.86973
     2020.65160         4.93273         5.79974
     2020.65434        -0.21455         5.74590
     2020.65708         4.24317         5.71144
     2020.65982         0.92688         5.93327
     2020.66256         6.71260         5.88589
     2020.66529         7.36332         5.73621
     2020.66803        12.98804         5.76636
     2020.67077        10.02576         5.86435
     2020.67351         6.64247         5.88266
     2020.67624         4.93019         5.78574
     2020.67898        -1.05209         5.88158
     2020.68172         3.34663         5.77174
     2020.68446         8.15735         6.08079
     2020.68720        -1.48294         5.82558
     2020.68993         2.61178         5.77605
     2020.69210         0.43098         7.72509
     2020.71286        -0.83933        14.01694
     2020.71457         5.18524         5.86758
     2020.71731         5.47396         5.93650
     2020.72005         4.29668         6.00541
     2020.72279         7.67340         5.97096
     2020.72553         4.95912         5.93973
     2020.72781         4.44422         7.22653
     2020.76226       -10.90250        14.79225
     2020.76386        -1.36483         5.75021
     2020.76659         2.57189         5.72006
     2020.76933         7.54761         5.89019
     2020.77207         6.25132         5.81912
     2020.77481         9.96004         5.75236
     2020.77640        14.61271        14.84609
     2020.86891         0.86161        11.72224
     2020.87063        18.53517         5.83205
     2020.87337         5.11689         5.80728
     2020.87611        10.69761         5.90958
     2020.87885         8.00033         5.87943
     2020.88158         4.13305         5.90527
     2020.88432         7.20676         5.80082
     2020.88706         2.20548         6.00434
     2020.88980         2.69720         5.84497
     2020.89253         2.82792         5.77174
     2020.89527         9.41164         5.94403
     2020.89801        10.93036         5.96557
     2020.90075        10.81807         5.73406
     2020.90349         9.04979         5.69960
     2020.90622         4.43951         5.77390
     2020.90771         1.37127        21.72265
     2020.96472        -7.35324        11.93545
     2020.96646         3.29431         5.81374
     2020.96919        -0.73398         5.78574
     2020.97193        -6.42326         5.69852
     2020.97467        -1.33854         5.86650
     2020.97741        -6.79782         5.89342
     2020.98015        -5.77110         6.00541
     2020.98288        -2.53138         5.88266
     2020.98562        -0.69967         5.73513
     2020.98836        -0.31495         5.76636
     2020.99110        -3.76923         5.75775
     2020.99384        -2.55951         5.70283
     2020.99657         1.76921         5.65976
     2020.99931        -3.24408         5.68345
     2021.00205        -2.84036         5.76205
     2021.00479        13.85636         5.67914
     2021.00667        10.67079         9.64290
     2021.26488        -6.54842         5.68452
     2021.26762         0.67729         5.80943
     2021.27036        -4.84799         5.82020
     2021.27310        -6.49527         5.69098
     2021.27583       -10.32055         5.64360
     2021.27857       -10.04683         5.82128
     2021.28131       -13.07712         5.89773
     2021.28405       -15.07140         5.77605
     2021.28679       -11.74368         5.78897
     2021.28952        -9.16796         5.80405
     2021.29226        -9.93624         5.78574
     2021.29500        -8.00453         5.87727
     2021.29774        -7.91181         6.06572
     2021.30047        -8.64109         5.81051
     2021.30321        -4.93137         5.79974
     2021.30595         1.84335         5.98603
     2021.30869         4.09507         6.00326
     2021.31143        -1.27422         5.76636
     2021.31382         2.12179         6.47275
     2021.58247         1.11687         5.83420
     2021.58521         3.72759         5.81266
     2021.58795        -3.35869         6.03018
     2021.59069        -3.59097         6.08833
     2021.59342        -2.71926         5.86543
     2021.59616        -0.12054         7.74124
     2021.59890         2.57918         6.01726
     2021.60164         7.41390         6.27893
     2021.60438        -0.22538         5.82128
     2021.60711        -1.28967         5.91173
     2021.60985        17.34905         5.88266
     2021.61259         3.64877         5.90958
     2021.61533         0.57949         5.76098
     2021.61807         2.00121         5.75667
     2021.62080         2.62992         5.89019
     2021.62354         7.50764         5.89019
     2021.62628         9.38236         5.93434
     2021.62902         1.80508         5.78144
     2021.63175         1.04780         5.95696
     2021.63449        -1.48748         5.81159
     2021.63723         6.33423         6.17232
     2021.63997         4.44095         6.01403
     2021.64271         4.64267         5.94403
     2021.64544        -2.06161         5.77174
     2021.64818         0.80511         5.79328
     2021.65092        -6.35318         5.82774
     2021.65366         4.85554         5.81912
     2021.65639         1.14826         5.85251
     2021.65913         3.04598         5.76098
     2021.66187         6.17570         5.91173
     2021.66461         1.26641         5.81805
     2021.66735         0.89213         5.75882
     2021.67008        -0.01715         5.90850
     2021.67185       -10.46062        12.12605
     2021.77772        -3.51286         9.55245
     2021.77960         6.40657         5.85466
     2021.78234         7.07629         5.78359
     2021.78507        11.68601         5.76205
     2021.78781        11.57573         5.87943
     2021.79055         8.75744         5.84712
     2021.79329         5.90016         5.80405
     2021.79603         6.59688         5.83743
     2021.79876         4.52760         5.77928
     2021.80150         8.18732         5.86973
     2021.80424         8.45904         5.88804
     2021.80698         7.46575         5.81374
     2021.80971         7.94747         5.74267
     2021.81245        17.84219         5.94296
     2021.81519        15.31991         5.77390
     2021.81793        15.04363         5.72652
     2021.82067         3.86234         5.90742
     2021.82340         8.17706         5.91711
     2021.82614        10.14478         5.83205
     2021.82888         9.53250         5.86004
     2021.83162         7.15822         5.87081
     2021.83436        10.09593         5.86866
     2021.83709         5.06865         5.89989
     2021.83892        -2.13087         9.80335
     2022.02715       -14.28375        13.31808
     2022.02874        -9.67908         5.88266
     2022.03148       -22.85437         5.85681
     2022.03422       -11.33265         5.91065
     2022.03696        -7.80393         5.91281
     2022.03969       -11.58921         5.86758
     2022.04243        -2.98749         5.87189
     2022.04517        -3.88678         5.86220
     2022.04791        -1.32906         5.84820
     2022.05065        -6.54434         5.85358
     2022.05338        -7.43862         5.93757
     2022.05612       -16.16290         5.89881
     2022.05886       -10.51518         5.90958
     2022.06160        -0.57647         5.83851
     2022.06433        -3.27275         5.86112
     2022.06707       -12.25403         5.86327
     2022.06981         0.06469         5.85358
     2022.07255       -11.39359         5.72113
     2022.07529        -3.34888         5.74267
     2022.07802        -4.98016         5.76636
     2022.08076         2.42856         5.74482
     2022.08350         7.20828         5.73298
     2022.08624        -2.65100         5.74052
     2022.08898        -0.76129         5.73836
     2022.09171        -5.96057         5.73082
     2022.09445        -7.63685         5.73298
     2022.09719       -12.85513         5.71683
     2022.09924        -2.77784         8.38303
     2022.53633        -4.04714        12.34141
     2022.53798        -7.58452         5.90635
     2022.54072        -9.57681         5.78682
     2022.54346         5.95291         5.89881
     2022.54620        -4.92337         5.78467
     2022.54893         2.26435         5.89665
     2022.55167        -1.03193         5.95803
     2022.55441         7.67079         6.28754
     2022.55715         8.27650         5.89558
     2022.55989        -3.45278         5.77497
     2022.56262         3.64194         5.75021
     2022.56536       -10.98134         5.80728
     2022.56810         6.55938         5.84066
     2022.57084         2.02209         5.82128
     2022.57357         7.32381         6.02910
     2022.57631        -8.21447         5.95696
     2022.57905         2.46225         5.84066
     2022.58179        10.25797         5.83420
     2022.58453        23.67068         6.07002
     2022.58726        -0.95360         5.90850
     2022.59000        16.92312         6.14325
     2022.59274         1.06084         5.66729
     2022.59548         3.90156         5.73406
     2022.59822        -8.90173         5.74052
     2022.60095        -4.71701         5.67052
     2022.60369        -0.54429         5.76959
     2022.60643        12.67343         5.70821
     2022.60917         1.43715         6.11310
     2022.61190        16.32286         6.32415
     2022.61464        13.50158         5.90958
     2022.61738        15.81230         5.70067
     2022.62012         5.84602         5.63068
     2022.62286        10.44974         5.65114
     2022.62559        10.17245         5.64683
     2022.62833         5.53317         5.70390
     2022.63107        11.92689         5.69852
     2022.63381        16.01761         5.62853
     2022.63655         7.06033         5.76851
     2022.63928         9.81805         5.73513
     2022.64202         3.92676         6.13679
     2022.64476         7.74148         6.12925
     2022.64750        10.92820         5.85574
     2022.65023        14.52992         5.90527
     2022.65297        21.05164         6.07541
     2022.65571        12.78135         5.82020
     2022.65845        12.91407         5.81051
     2022.66119        14.55079         5.67160
     2022.66392        13.06351         5.68560
     2022.66666         7.02723         5.84712
     2022.66940         9.31094         5.64683
     2022.67214         7.59266         5.80620
     2022.67488         9.94538         5.79005
     2022.67761        20.19710         5.84281
     2022.68035        16.64882         5.59730
     2022.68309        20.02353         5.67375
     2022.68583        15.56325         5.84281
     2022.68856        13.36497         5.73082
     2022.69130        12.51569         5.71252
     2022.69404        17.00141         5.80189
     2022.69678        14.92312         5.76098
     2022.69952         6.72484         5.79866
     2022.70225        11.42056         5.99788
     2022.70499        12.37228         5.81805
     2022.70773        18.64100         5.81159
     2022.71047        12.92271         5.73729
     2022.71321        16.11343         5.64468
     2022.71594        16.55315         5.76421
     2022.71868        12.13087         5.64468
     2022.72142        20.30259         5.62314
     2022.72416         9.34531         5.73513
     2022.72689        16.15802         5.76098
     2022.72963        15.76574         5.67375
     2022.73237        10.44446         5.66406
     2022.73511        12.46418         5.58330
     2022.73785        13.71190         5.61130
     2022.74058        17.39761         5.80836
     2022.74332        18.10133         5.95050
     2022.74606        16.19805         5.79651
     2022.74880        11.16477         5.67591
