# ================= DQRFIT RESULTS ================
# INPUT FILE: series/BCES.rad
# OUTPUT: LDETRENDED
# FILTER FUNCTION: f(t)
# f(t)=+line(t)+annual(t)
# line(t)=+P 1+P 2*t
# annual(t)=+P 3*sin(2*pi*t+P 4)
# heav(t)=(t<0?0:1)
# TOTAL OBSERVATIONS MTOT= 2846
# INITIAL TIME INTERVAL= 2022.7349 - 2012.5886 = 10.1463
# TOTAL OBSERVATIONS AFTER PREFILTER M= 2826
# TIME-SPAN= 2022.7349 - 2012.6242 = 10.1107
# OBSERVATIONS: USED M=  2826 REJECTED MTOT-M=    20 %USED=   99.2973
# N=  4 PARAMETERS
# MAXSIG= 175.00000
# MAXRES=  25.65678
# SCALE FACTOR FOR LENGTHS: SCL=  10.00000
# SCALE FACTOR FOR SIGMAS: SCLSIG=   1.00000
# CHI^2=   2879.661 DOF=  2822 CHI^2/DOF=   1.02043
# RMS=      6.042 SDEV=      6.043 MEAN=    0.02773
#  P #       PARAMETER +-    SIGMA %error PARAMETER NAME
# P 1 =      1302.80770 +-   91.260   7.00 YZERO                              
# P 2 =        -0.64496 +-    0.045   7.02 SLOPE                              
# P 3 =         5.39958 +-    0.152   2.81 ANNUAL AMPLITUDE                   
# P 4 =        -2.72901 +-    0.036   1.33 ANNUAL PHASE                       
#       T            LDETRENDED       SIG_OBS
     2012.62696        -1.03090         5.65894
     2012.62970         0.77887         5.41347
     2012.63244        -0.17937         5.49024
     2012.63518         8.18940         5.55085
     2012.63791         2.58616         5.49631
     2012.64065         6.56093         5.46398
     2012.64339         9.63269         5.42458
     2012.64613         5.11346         5.43166
     2012.64887         7.99623         5.40539
     2012.65160         9.67799         5.51045
     2012.65434        -1.20424         5.52661
     2012.65708         8.29852         5.59025
     2012.65982         5.46129         5.64884
     2012.66256         3.06506         5.53570
     2012.66529         2.00282         5.38216
     2012.66803         3.77559         5.40034
     2012.67077        11.22935         5.49024
     2012.67351        -2.68188         5.41044
     2012.67624         1.87988         5.43469
     2012.67898         5.22665         5.59227
     2012.68172         3.29842         5.51247
     2012.68446         4.45718         5.54277
     2012.68720         5.86395         5.86401
     2012.68993         7.23671         5.42862
     2012.69267        11.15448         6.02664
     2012.69541         4.94825         5.79835
     2012.69815         5.06701         5.90239
     2012.70089         2.96178         5.63571
     2012.70362        -0.50646         5.59227
     2012.70636         6.12531         5.62965
     2012.70910        -0.99793         5.41145
     2012.71184         4.08684         5.46701
     2012.71457         4.58961         5.44984
     2012.71731         5.02237         5.45691
     2012.72005         1.35314         5.43873
     2012.72279         2.43290         5.40640
     2012.72553         3.99867         5.53166
     2012.72826        -2.30057         5.41044
     2012.73100         6.97020         5.77511
     2012.73374         3.62397         5.67106
     2012.73648        -1.93927         5.44782
     2012.73921        -3.39950         5.53570
     2012.74195         2.54026         5.64884
     2012.74469         0.30903         5.58318
     2012.74743         4.01180         5.49227
     2012.75017         0.53456         5.57510
     2012.75290         1.39733         5.69127
     2012.75564         3.09109         5.42862
     2012.75838         0.68286         5.45893
     2012.76112         4.08462         5.42559
     2012.76386         2.71039         5.41549
     2012.76659         7.42916         5.53873
     2012.76933         4.47392         5.48620
     2012.77207         0.69069         5.55591
     2012.77481        -3.89055         5.52055
     2012.77754         2.60622         5.48923
     2012.78028        10.85299         5.68016
     2012.78302        12.54775         5.78319
     2012.78576        -4.81248         5.68319
     2012.78850        -3.38372         5.56904
     2012.79199        -1.77946         9.22583
     2012.79397         0.93381         5.58722
     2012.79671         0.96858         5.52863
     2012.79945         5.69235         5.65187
     2012.80219         8.52711         5.65995
     2012.80492         2.43588         5.57409
     2012.80766         0.79364         5.55186
     2012.81040        -5.08359         5.53873
     2012.81314        -4.89383         5.50338
     2012.81587        -6.79606         5.47206
     2012.81861        -6.18429         5.63874
     2012.82135        -1.11553         5.61551
     2012.82409         1.63524         5.82562
     2012.82683         4.54600         5.59530
     2012.82956        -0.09523         5.60136
     2012.83230        -4.30046         5.67915
     2012.83504        -4.36970         5.74178
     2012.83778        -0.02193         5.58722
     2012.84052         0.89683         5.51449
     2012.84273         4.81726         7.18126
     2012.84685       -13.63708         9.40968
     2012.84873        -3.63587         5.86502
     2012.85147         7.22690         5.72460
     2012.85420        -5.24034         5.55186
     2012.85694        -4.48957         5.58116
     2012.85968        -0.36581         5.59429
     2012.86242        -3.18804         5.52358
     2012.86516         1.85873         5.60439
     2012.86789        -7.80551         5.82057
     2012.87063        -5.60674         5.47509
     2012.87337       -13.55998         5.61854
     2012.87611        -3.69121         5.55692
     2012.87885         4.03255         5.52863
     2012.88158        -1.19768         5.49530
     2012.88432         1.16109         5.70440
     2012.88706        -3.93315         5.99028
     2012.88980        -2.75638         5.64076
     2012.89253       -11.90062         5.46297
     2012.89527        -6.65285         5.91855
     2012.89801        -6.03209         5.50843
     2012.90075        -9.77232         5.51348
     2012.90349       -14.24555         5.63571
     2012.90622        -4.70779         5.51853
     2012.90896        -1.42902         5.58722
     2012.91172        -5.37924         5.63369
     2012.91444        -2.47749         5.51045
     2012.91718         1.48628         5.52257
     2012.91991         0.27904         5.53469
     2012.92266        -5.81219         5.56702
     2012.92540        -3.21442         5.53065
     2012.92813        -5.20166         5.58015
     2012.93086        -7.33990         5.62359
     2012.93360        -6.01713         5.61348
     2012.93634        -3.06636         5.70339
     2012.93908        -7.29860         5.59328
     2012.94182        -7.55383         5.48216
     2012.94456         5.06094         5.59530
     2012.94729        -8.16230         5.54277
     2012.95002        -2.16154         5.55591
     2012.95277         2.06323         5.47812
     2012.95551        -1.45400         5.38721
     2012.95824         7.35576         5.39024
     2012.96098         1.03053         5.71248
     2012.96372        -0.23971         5.64682
     2012.96646        -3.24394         5.41044
     2012.96919        -5.20917         5.55894
     2012.97193        -6.63041         5.61450
     2012.97467        -6.11264         5.40741
     2012.97741        -9.30388         5.49631
     2012.98015        -7.84011         5.37610
     2012.98288        -8.22535         5.39226
     2012.98562        -1.62758         5.40943
     2012.98836        -9.88781         5.49227
     2012.99110        -5.58705         5.38216
     2012.99384       -11.95928         5.43166
     2012.99657       -11.45252         5.39933
     2012.99931        -8.61075         5.44984
     2013.00205        -5.10798         5.45893
     2013.00479       -11.91522         5.51651
     2013.00752       -11.04145         5.37206
     2013.01026        -9.98569         5.42761
     2013.01300        -4.17692         5.49227
     2013.01574        -3.71916         5.69127
     2013.01848        -6.90539         5.58318
     2013.02121        -6.11662         5.45388
     2013.02395        -9.09486         5.67106
     2013.02669        -9.42909         5.64480
     2013.02943        -9.03033         5.53570
     2013.03216       -11.00256         5.46600
     2013.03492       -11.82579         5.44984
     2013.03764        -8.63103         5.49227
     2013.04038       -15.89526         5.44782
     2013.04313       -12.67649         5.63470
     2013.04585        -8.58573         5.63369
     2013.04859        -7.62797         5.72157
     2013.05133        -8.68620         5.45186
     2013.05407        -9.48743         5.46499
     2013.05681        -6.80367         5.60338
     2013.05954        -9.86390         5.59631
     2013.06228        -5.28914         6.01452
     2013.06502        -8.76637         5.94179
     2013.06776        -6.20461         5.61551
     2013.07049        -7.60784         5.55995
     2013.07323       -12.38107         5.46095
     2013.07597        -8.21931         5.67409
     2013.07871        -1.08454         5.61348
     2013.08145         1.00122         5.71652
     2013.08418        -4.96401         5.64278
     2013.08692       -13.45225         5.55389
     2013.08967       -19.72547         5.46196
     2013.09240        -7.64871         5.43873
     2013.09512         0.05804         7.24692
     2013.09787         3.35082        11.89267
     2013.10061        -3.82742         5.87512
     2013.10335        -6.80865         5.59530
     2013.10609       -16.19288         5.59833
     2013.10882       -12.13112         5.66803
     2013.11156       -13.77935         5.52257
     2013.11430       -10.77359         5.46802
     2013.11701       -19.50284         5.58015
     2013.11977        -6.15506         5.84077
     2013.12251       -13.98629         5.47004
     2013.12525       -17.55652         5.69430
     2013.12799        -7.04776         5.54277
     2013.13073        -8.29199         5.50237
     2013.13347        -7.70423         5.61955
     2013.13622         5.02655         7.03681
     2013.13894        -0.16569         8.18536
     2013.14168         3.55707         7.87423
     2013.14442         9.22484         7.87019
     2013.14717        -1.59638         8.84500
     2013.14909       -20.30415        12.32906
     2013.15351         9.05170         9.41878
     2013.15537       -17.90010         5.63874
     2013.15811       -12.05633         5.91350
     2013.16084       -12.83257         5.43772
     2013.16360       -16.74879         5.87310
     2013.16632       -12.49604         5.46499
     2013.16906        -0.68927         5.63268
     2013.17180       -10.68850         5.74077
     2013.17453        -6.28374         5.61348
     2013.17728       -10.73197         5.66197
     2013.18001       -11.63421         5.72662
     2013.18275       -12.16244         5.52156
     2013.18548       -10.98768         5.45691
     2013.18822        -6.60491         5.52055
     2013.19096       -11.85314         5.49934
     2013.19370        -5.94038         5.63066
     2013.19643        -9.03162         5.82259
     2013.19917        -5.34685         5.68420
     2013.20191        -4.57308         5.56702
     2013.20465        -0.86831         5.57813
     2013.20739        -0.93455         5.82865
     2013.21013        -3.37578         5.63571
     2013.21287        -8.31101         5.53772
     2013.21560        -5.97225         6.00947
     2013.21834         5.70151         7.55098
     2013.22108        -8.69772         5.55186
     2013.22381        -8.78695         5.54782
     2013.22655        -6.20619         5.66298
     2013.22929        -8.26542         5.62763
     2013.23203        -6.21466         5.50944
     2013.23477        -7.95489         5.43267
     2013.23750       -10.76113         5.74380
     2013.24024        -8.04436         5.64076
     2013.24298        -8.27459         5.54378
     2013.24572        -4.03183         5.57813
     2013.24846        -4.99606         5.59530
     2013.25119        -2.30730         5.65389
     2013.25393        -1.47353         5.73774
     2013.25667        -4.96476         5.90037
     2013.25939         5.81099         5.69329
     2013.26214        -3.26423         5.61652
     2013.26488         1.45753         5.63268
     2013.26762        -6.18470         5.64379
     2013.27036        -5.66494         5.61551
     2013.27310        -3.60017         5.83875
     2013.27585        -4.23239         5.77208
     2013.27857        -0.53264         5.74178
     2013.28131         3.06213         5.71753
     2013.28405        -2.34211         5.58621
     2013.28679        -5.69834         5.74481
     2013.28952        -8.32657         5.59530
     2013.29226        -4.07581         5.69026
     2013.29500        -5.97004         5.78420
     2013.29774       -10.31128         5.60237
     2013.30047       -14.74351         5.76905
     2013.30321        -7.62775         5.66904
     2013.30595        -8.76498         5.69632
     2013.30869       -10.88221         5.74178
     2013.31143       -12.90045         5.55490
     2013.31416        -2.76968         5.55490
     2013.31690         2.24808         5.77309
     2013.31964        -0.53515         5.77309
     2013.32238         0.83761         5.74481
     2013.32512        -1.49462         5.96704
     2013.32785        -0.80885         5.55894
     2013.33059        -9.52709         5.57611
     2013.33880        -4.28579         5.54681
     2013.34154         2.59598         5.79026
     2013.34428         0.87774         5.59227
     2013.34701         2.28550         5.64480
     2013.34976        -5.24873         5.53267
     2013.35249       -13.91696         5.55692
     2013.35523        -8.38820         5.83269
     2013.35797         3.74257         5.65490
     2013.36071         1.02134         5.58419
     2013.36344         0.41010         5.71753
     2013.36618        -2.46313         5.68622
     2013.36892        -1.18137         5.57207
     2013.37166        -3.94960         5.65086
     2013.37441        -3.47483         5.69632
     2013.37713        -3.62207         5.59328
     2013.37987        -6.33130         5.65793
     2013.38261        -6.74354         5.79936
     2013.38533        -5.38778         5.71652
     2013.38809        -8.49801         5.91552
     2013.39082         3.08876         5.88623
     2013.39356        -4.92147         5.60439
     2013.39630        -0.98371         5.56096
     2013.39904        -0.04194         5.59732
     2013.40177        -0.34218         5.68420
     2013.40451        -2.40541        16.68792
     2013.40725         3.83735         5.60237
     2013.40999         4.03812         5.64783
     2013.41273         0.10189         5.57106
     2013.41546        -3.13535         5.78319
     2013.41820        -4.22558         5.60742
     2013.42093         2.67817         5.68925
     2013.42368        -0.11305         5.77915
     2013.42642        -4.88928         5.72460
     2013.42915        -4.06052         5.57005
     2013.43189         9.74125         5.84582
     2013.43463         8.31101         5.69026
     2013.43737        -0.65322         5.63167
     2013.44010         2.83154         5.66702
     2013.44284         2.38131         5.57813
     2013.44558        -3.54792         5.71551
     2013.44832        -4.69116         5.65894
     2013.45106         3.25561         5.88320
     2013.45379         2.43037         5.77309
     2013.45653        -4.38586         5.58318
     2013.45927        -0.95709         5.67207
     2013.46201        -0.82433         5.74582
     2013.46475         3.47744         5.89633
     2013.46748        -2.78380         5.65288
     2013.47022         0.66297         5.63066
     2013.47296         1.45873         5.61146
     2013.47570        -1.27050         5.46903
     2013.47843         4.90027         5.55389
     2013.48117         0.93403         5.59833
     2013.48391         2.56280         5.57813
     2013.48665        -3.89544         5.65692
     2013.48939         5.04633         5.63066
     2013.49212        -1.77691         5.61955
     2013.49486         0.13686         5.56601
     2013.49760         5.97763         5.60540
     2013.50034         1.00739         5.76804
     2013.50308        -1.68284         5.80542
     2013.50581         5.28792         5.67106
     2013.50855         1.56569         5.51550
     2013.51129        11.21346         5.78521
     2013.51403         1.99222         5.57308
     2013.51676         6.46799         5.62763
     2013.51950         2.18475         5.57106
     2013.52224         7.63952         5.81148
     2013.52498         8.75728         5.77612
     2013.52772         3.76205         5.54883
     2013.53045         3.46982         5.63571
     2013.53319         1.57858         5.60237
     2013.53593         0.89135         5.52762
     2013.53867         2.88011         5.59227
     2013.54141         2.72488         5.66803
     2013.54414         1.91565         5.56500
     2013.54688        -0.07759         5.45489
     2013.54962         6.92118         5.65591
     2013.55236         6.01194         5.52055
     2013.55509         5.22871         5.79228
     2013.55783         5.95047         5.62157
     2013.56058         3.66725         5.64783
     2013.56331        -0.39399         5.67005
     2013.56605         3.39277         5.55894
     2013.56878        11.70954         5.62460
     2013.57152         9.50130         5.53065
     2013.57424         6.36806         5.62763
     2013.57700         3.64883         5.81350
     2013.57974         1.53560         5.59833
     2013.58247        12.17237         5.65591
     2013.58521        12.80513         5.58318
     2013.58795         7.01890         5.62662
     2013.59069         2.29966         5.57813
     2013.59342         3.98843         5.62258
     2013.59616         7.25820         5.71046
     2013.59890        11.93596         5.83774
     2013.60164        11.10873         5.65894
     2013.60438         4.23049         5.76703
     2013.60711         7.74626         5.68218
     2013.60985         6.42802         5.59631
     2013.61259         1.70379         5.53570
     2013.61533         9.97556         5.91956
     2013.61807        15.66432         5.91148
     2013.62081        18.19609         5.85289
     2013.62354         5.06985         5.46398
     2013.62628        13.96862         5.63571
     2013.62902        -0.33361         5.59025
     2013.63175        16.01215         5.73167
     2013.63449        10.42692         5.84582
     2013.63723        14.85868         5.61854
     2013.63997        13.33845         5.77814
     2013.64272         9.36622         5.60540
     2013.64545        12.85999         5.66500
     2013.64818         8.49474         5.57005
     2013.65092        10.22951         5.62662
     2013.65366        13.54228         5.60035
     2013.65639        10.89204         5.71551
     2013.65913        10.13981         6.11150
     2013.66187        14.50157         6.07412
     2013.66461         3.51334         5.58722
     2013.66735        12.90511         5.59429
     2013.67007        16.74287         5.66096
     2013.67282         9.45664         5.83673
     2013.67556         9.82640         5.90340
     2013.67830        12.52717         5.84380
     2013.68104        17.52394         5.72157
     2013.68377         1.56170         5.86805
     2013.68651         4.96447         5.53469
     2013.68925        10.46023         5.70945
     2013.69199         6.71400         5.64884
     2013.69472        12.71576         5.84380
     2013.69746         8.23253         5.48216
     2013.70016         8.74027         5.70642
     2013.70916        -1.46693         8.80460
     2013.71115         6.21136         5.76501
     2013.71389         8.86013         5.65591
     2013.71663         7.73589         5.58419
     2013.71938        16.15366         5.83370
     2013.72210        15.96242         5.58823
     2013.72484        14.06419         5.66197
     2013.72757         9.00895         6.00240
     2013.73032         4.93372         5.63268
     2013.73305         9.94949         5.52156
     2013.73579         8.76225         5.81350
     2013.73853        10.69102         5.61348
     2013.74127         3.82778         5.53267
     2013.74401        16.53555         5.87916
     2013.74674         9.24731         5.78420
     2013.74948         8.02508         5.67106
     2013.75222         1.67885         5.49833
     2013.75496         0.83761         5.62561
     2013.75770         0.06238         5.61146
     2013.76043        -0.56686         5.53267
     2013.76317         2.19191         5.58318
     2013.76591        10.53568         6.01149
     2013.76865         4.68344         5.78925
     2013.77139         2.42321         5.73976
     2013.77412         1.77697         5.71248
     2013.77686         2.65174         5.65187
     2013.77960         1.99950         5.62056
     2013.78234        -1.18873         5.60035
     2013.78507        -4.63496         5.54883
     2013.78781        -8.53220         5.75390
     2013.79055        -3.44343         5.73369
     2013.79329        -4.51967         5.49530
     2013.79603         0.47910         5.54075
     2013.79876        -0.23513         5.52358
     2013.80150         5.51763         5.56601
     2013.80410         4.60230         6.54082
     2013.80782       -35.94829        59.05120
     2013.81242        24.29367       106.73097
     2013.81519        -8.35554        10.31277
     2013.81793         5.72423         5.55591
     2013.82067         3.44899         5.67511
     2013.82340         7.88076         5.90946
     2013.82613         5.28151         5.72460
     2013.82888         6.45429         5.66601
     2013.83162         8.67205         5.82057
     2013.83436        -0.55918         5.65187
     2013.83709         2.67759         5.63268
     2013.83983         5.78235         5.66803
     2013.84257        -0.53888         5.58520
     2013.84530        -0.17412         5.74885
     2013.84804        -5.81835         5.55894
     2013.85078         0.92441         5.63773
     2013.85352         5.03518         5.56702
     2013.85626        -0.67405         5.57106
     2013.85900        -1.84029         5.58621
     2013.86173        -2.95652         5.67612
     2013.86447         0.98324         5.59631
     2013.86721         1.39601         5.65288
     2013.86995         3.31778         5.62662
     2013.87269         0.94854         5.65187
     2013.87542         2.19731         5.71046
     2013.87816         8.08407         5.71046
     2013.88090         6.94684         5.71551
     2013.88364         9.32861         5.93573
     2013.88637         1.39337         5.50439
     2013.88911        -3.86186         5.74178
     2013.89185        -9.79809         5.58520
     2013.89459        -7.28833         5.50843
     2013.89733        -2.85557         5.56702
     2013.90006        -7.68380         5.72561
     2013.90280       -10.03203         5.56096
     2013.90554        -1.35927         5.63571
     2013.90828         0.34550         5.59227
     2013.91102        -0.19374         5.52459
     2013.91375        -4.62397         5.50338
     2013.91649        -1.21121         5.49833
     2013.91923         1.15656         5.68925
     2013.92197         0.19133         5.74582
     2013.92470         0.71709         5.49934
     2013.92744        -2.23114         5.63672
     2013.93018         1.10662         5.57813
     2013.93292         0.07839         5.48519
     2013.93566        -1.02784         5.48519
     2013.93839        -1.88408         5.70036
     2013.94112        -8.46232         5.53166
     2013.94387        -0.82955         5.52156
     2013.94661        -1.19578         5.76905
     2013.94935        -3.82702         5.43368
     2013.95208        -4.81825         5.48620
     2013.95481         1.21651         5.60540
     2013.95756        -4.79172         5.49126
     2013.96030        -3.06595         5.68117
     2013.96303        -1.80919         6.13675
     2013.96577        -0.65542         5.48923
     2013.96851        -2.61265         5.59227
     2013.97125         2.96111         5.80542
     2013.97399        -1.97512         5.51752
     2013.97672        -6.62336         5.65692
     2013.97946        -7.40559         5.50439
     2013.98220        -6.21983         5.74481
     2013.98494        -5.23106         5.46196
     2013.98769       -18.80728         5.55591
     2013.99041       -13.61253         5.57207
     2013.99315       -14.24476         5.42458
     2013.99589        -3.86000         5.56096
     2013.99863        -7.10423         5.59328
     2014.00136       -16.70947         5.56702
     2014.00410        -5.01670         5.63773
     2014.00684        -8.75593         5.77915
     2014.00958        -8.17817         5.46600
     2014.01232       -11.21740         5.67106
     2014.01505        -2.42864         5.68319
     2014.01779        -7.79587         5.57914
     2014.02053        -0.14610         5.50136
     2014.02327         1.02966         5.92058
     2014.02600         4.47943         5.69430
     2014.02874        -0.93481         5.57510
     2014.03148         7.53796         5.55894
     2014.03421        -2.52128         5.64682
     2014.03695        -1.95051         5.52257
     2014.03971        -5.50773         5.49934
     2014.04243        -6.60498         5.80744
     2014.04517        -6.40521         5.73167
     2014.04791        -0.88745         5.51146
     2014.05065        -2.96068         5.43671
     2014.05338        -5.57991         5.44984
     2014.05612        -7.80815         5.60439
     2014.05886        -8.26838         5.53368
     2014.06160       -11.45262         5.44883
     2014.06433        -9.54585         5.62763
     2014.06707        -7.99509         5.64985
     2014.06981        -4.65432         5.88118
     2014.07255        -1.93955         5.47812
     2014.07529        -1.71779         5.46196
     2014.07802         0.26398         5.65894
     2014.08076         2.59474         5.52358
     2014.08350        -0.62849         5.47711
     2014.08624       -11.02473         5.54782
     2014.08898        -5.73296         5.66399
     2014.09171        -4.07919         5.76703
     2014.09445        -5.93043         5.49934
     2014.09719        -4.24966         6.07210
     2014.09992         0.71810         5.70440
     2014.10266        -0.48713         5.69127
     2014.10540         4.79664         5.60843
     2014.10814        -0.24360         5.60237
     2014.11088         4.19917         5.66500
     2014.11361         0.41993         5.61450
     2014.11635         5.61870         5.87613
     2014.11909         1.93746         5.65187
     2014.12183        -0.19177         6.04382
     2014.12455         1.23599         5.48923
     2014.12731         4.85476         5.63773
     2014.13004         3.53853         5.63874
     2014.13278         1.21029         6.08119
     2014.13552         3.63006         5.79733
     2014.14099         1.23059         5.52459
     2014.14373        -6.98764         5.52863
     2014.14647        -5.82788         5.55490
     2014.14921        -1.54011         5.55490
     2014.15195        -1.83135         5.52358
     2014.15468         0.26842         5.62662
     2014.15742         0.59819         5.57914
     2014.16016         2.50695         5.87007
     2014.16290        -3.64928         5.55894
     2014.16563        -6.63852         5.50439
     2014.16838        -4.00375         5.71046
     2014.17111        -0.64299         5.86098
     2014.17385         9.60578         6.05594
     2014.17659         1.33555         5.98422
     2014.17932         1.39631         5.80441
     2014.18206       -12.38292         5.65591
     2014.18480         1.27184         5.53671
     2014.18754        -4.27939         5.62662
     2014.19028        -8.76562         6.40646
     2014.19301        -8.59686         5.70238
     2014.19575        -3.19009         5.65692
     2014.19849         3.30667         5.75693
     2014.20123        -3.02456         5.61955
     2014.20397         0.34920         5.64278
     2014.20670        -0.94703         5.60742
     2014.20944        -3.63226         5.70238
     2014.21218         0.47450         5.68723
     2014.21492         5.63127         5.77208
     2014.21765        -8.76697         5.54782
     2014.22039        -8.70920         5.58520
     2014.22313        -3.85943         5.59732
     2014.22587        -3.64267         5.58015
     2014.22861         2.72910         5.51651
     2014.23134        -0.58214         5.55692
     2014.23408        -1.99637         5.55490
     2014.23682        -5.78361         5.62864
     2014.23956        -8.42584         5.69430
     2014.24229        -4.15808         5.61348
     2014.24503       -12.65831         5.50641
     2014.24760        -5.16265         6.63779
     2014.25051        -3.03878         6.09432
     2014.25325        -9.06301         5.57308
     2014.25598        -3.87425         5.67106
     2014.25872        -6.62848         5.51449
     2014.26146         0.99529         5.72763
     2014.26420        -9.06395         5.57409
     2014.26694         6.05882         5.99230
     2014.26967        -3.91042         5.62359
     2014.27241        -2.64665         5.92058
     2014.27515        -4.28388         5.93472
     2014.27789        -7.55012         5.93472
     2014.28062        -5.08435         5.84481
     2014.28336        -4.29859         5.61551
     2014.28610         6.42918         5.90542
     2014.28884        -4.98406         6.04280
     2014.29158       -10.13229         5.65793
     2014.29431         0.73548         5.61045
     2014.29705        -0.40776         5.69632
     2014.29979        -6.53899         5.54378
     2014.30253       -10.48323         5.53671
     2014.30527        -1.80546         5.59732
     2014.30800        -3.11769         6.11251
     2014.31074         0.21907         5.84178
     2014.31348        -2.59616         5.55591
     2014.31621        -3.75040         5.56500
     2014.31895        -4.73263         5.50136
     2014.32169        -8.85487         5.68925
     2014.32443       -13.37110         5.89229
     2014.32717       -13.24933         5.61854
     2014.32991        -5.74657         5.63571
     2014.33264        -4.81880         5.68016
     2014.33538        -3.57704         5.52762
     2014.33812        -4.50227         5.71854
     2014.34086        -7.17351         5.67612
     2014.34360        -5.72274         5.76905
     2014.34633        -6.31197         5.84582
     2014.34908        -6.11820         5.74279
     2014.35181        -4.57044         5.78420
     2014.35455        -6.55568         5.47307
     2014.35728        -8.46791         5.49934
     2014.36002       -12.72214         5.45590
     2014.36276        -8.98238         5.77713
     2014.36550        -6.19461         5.57207
     2014.36824        -9.89185         5.64682
     2014.37097        -2.94508         5.70339
     2014.37371        -7.16032         5.47408
     2014.37645        -5.86755         5.52863
     2014.37919        -5.11778         5.64783
     2014.38193       -14.79702         5.76299
     2014.38466        -0.39425         5.75491
     2014.38740        -5.60849         5.66500
     2014.39014        -6.04372         5.61551
     2014.39288        -4.92495         5.59732
     2014.39561        -3.65119         5.58924
     2014.39835         5.35858         5.87108
     2014.40109        -2.96366         5.62965
     2014.40383        -4.27489         5.67207
     2014.40657        -3.04013         5.74380
     2014.40930        -9.24936         5.56197
     2014.41204        -3.83259         5.53368
     2014.41478        -8.75283         5.74077
     2014.41752        -3.14306         6.26403
     2014.42026        -3.02030         5.54277
     2014.42299        -4.00453         5.50944
     2014.42573        -5.51777         5.58015
     2014.42847         2.62200         5.59126
     2014.43121        -6.99323         5.62460
     2014.43394        -5.78947         5.56399
     2014.43668        -4.03270         6.16301
     2014.43942        -2.20794         5.58015
     2014.44216        -5.02417         5.45590
     2014.44490         4.59160         5.91350
     2014.44763         2.39136         5.74279
     2014.45037        -5.25687         5.54075
     2014.45311        -0.02811         5.63066
     2014.45585        -5.38934         5.60540
     2014.45859        -6.09858         5.43570
     2014.46132         2.20419         5.51954
     2014.46406        -5.76504         5.70036
     2014.46680       -10.50128         5.89431
     2014.46954        -7.57851         5.48923
     2014.47227        -1.12275         5.53671
     2014.47501        -1.06098         5.55995
     2014.47775        -5.02721         5.56399
     2014.48049        -7.20945         5.68319
     2014.48323         3.27732         5.59530
     2014.48596         2.35408         5.69834
     2014.48870         8.88085         5.65389
     2014.49144         3.44261         5.46600
     2014.49418        -0.99762         5.40438
     2014.49692        -2.09585         5.41246
     2014.49964         0.81091         5.78319
     2014.50239        -3.05732         5.59025
     2014.50513        -6.29056         5.67106
     2014.50787        -0.38579         5.53974
     2014.51060        -5.00903         5.59227
     2014.51334         2.07474         5.47206
     2014.51608         2.68351         5.48721
     2014.51882         7.78027         6.60648
     2014.52157         2.47705         8.56317
     2014.52429         1.48780         5.64884
     2014.52703         8.21757         5.56399
     2014.52977         0.16934         5.50439
     2014.53251         8.11210         5.84077
     2014.53525         3.15587         5.49833
     2014.53798         6.24963         5.58419
     2014.54072         7.37640         5.68016
     2014.54346         7.30316         5.48519
     2014.54620        -5.41807         5.79430
     2014.54893         6.24570         5.48822
     2014.55167         3.26446         5.54984
     2014.55441        -2.63377         5.57409
     2014.55715         3.90899         5.96603
     2014.55989         3.73076         5.66803
     2014.56261         2.13152         5.57106
     2014.56536         0.77529         5.52459
     2014.56810         2.57306         5.46903
     2014.57084        -1.71118         5.67713
     2014.57357        -4.01641         5.52661
     2014.57631         7.65935         5.69228
     2014.57905         0.31412         5.54176
     2014.58179         2.08089         5.64783
     2014.58453        -0.11735         5.73268
     2014.58726        -3.11158         5.83370
     2014.59000         3.20418         5.90744
     2014.59274         6.73995         5.81451
     2014.59548         2.22971         5.80441
     2014.59822        -0.81452         6.04685
     2014.60096         1.63325         5.75087
     2014.60369         1.98101         5.59530
     2014.60643         2.33078         5.57308
     2014.60917         0.78554         5.62460
     2014.61190        10.14931         5.70743
     2014.61464         4.87008         5.73167
     2014.61738        -0.33316         5.96401
     2014.62012         3.92861         5.83370
     2014.62286         5.26837         5.61854
     2014.62559         1.25614         5.53469
     2014.62833         4.55790         5.62258
     2014.63107        10.65167         5.74178
     2014.63383         7.71245         5.77006
     2014.63655         7.48120         5.65288
     2014.63928         1.20597         5.60641
     2014.64202         0.02073         5.47812
     2014.64476         0.02450         5.68723
     2014.64750        -1.74173         5.70440
     2014.65025         3.00804         5.55085
     2014.65297         6.73280         5.81148
     2014.65571         9.94856         6.26706
     2014.65845        16.44333         5.75289
     2014.66119         3.18809         5.56096
     2014.66392         7.74586         5.52560
     2014.66666        11.10563         5.54378
     2014.66940        16.30439         5.98422
     2014.67214         1.43916         5.73875
     2014.67480        -4.63612         7.18227
     2014.67766        -1.72328         6.47516
     2014.68035         4.07145         5.57611
     2014.68309        -1.95278         5.64278
     2014.68583         4.90299         5.97411
     2014.68856         0.95175         5.79531
     2014.69130         1.54052         5.86805
     2014.69404        -0.50172         5.64581
     2014.69678         0.55705         5.59126
     2014.69952         6.91782         5.48115
     2014.70225         2.85858         5.44580
     2014.70499         5.38935         5.51247
     2014.70773         6.24911         5.68218
     2014.71047         9.68488         5.57409
     2014.71321         8.88864         5.57914
     2014.71594         6.83941         5.74077
     2014.71868         5.00118         5.47206
     2014.72142         2.20694         5.51247
     2014.72416         8.75871         5.50742
     2014.72689        14.27147         5.69430
     2014.72963        13.90524         5.77814
     2014.73237         6.11101         5.85895
     2014.73511         1.84377         5.60439
     2014.73785         1.72854         5.47913
     2014.74058         3.66130         5.44580
     2014.74307        11.50091         6.64486
     2014.74613         4.61388         5.96300
     2014.74880         3.97860         5.52156
     2014.75154         0.38637         5.67814
     2014.75427         2.37013         5.53570
     2014.75701        20.17390         5.78016
     2014.75977         8.39768         5.67207
     2014.76249         3.50643         5.54580
     2014.76522        -3.25781         5.52055
     2014.76795         4.38495         5.61146
     2014.77070         1.66073         5.64985
     2014.77344         3.07049         5.75188
     2014.77618         8.34226         5.84784
     2014.77891        10.18602         5.53065
     2014.78165         9.65879         5.73571
     2014.78439        11.08956         5.54479
     2014.78713         8.00232         5.56500
     2014.78987         5.42109         5.71046
     2014.79260         6.29185         5.76804
     2014.80141         4.44753         8.00454
     2014.80355         5.86092         5.87815
     2014.80629        13.06468         5.79026
     2014.80900         9.68743         5.89633
     2014.81193         3.63932         5.85289
     2014.81451        13.21598         5.46903
     2014.81724        15.56775         5.62965
     2014.81998         2.34751         5.49328
     2014.82272        20.59228         5.90138
     2014.82546        23.15304         5.89431
     2014.82820        -1.97519         5.73673
     2014.83093         7.46957         6.03876
     2014.83367         3.60234         5.66298
     2014.83641        -0.19189         5.58318
     2014.83915        10.89287         5.81047
     2014.84188         4.40764         5.98220
     2014.84462         5.97140         5.69834
     2014.84736        12.66017         5.81653
     2014.85004         2.49290         5.88219
     2014.85284        -0.19530         5.60338
     2014.85557         6.10047         5.71652
     2014.85831        -1.95877         5.76905
     2014.86105        -5.07900         5.72965
     2014.86379        -0.30124         6.12867
     2014.86653        -0.47047         5.54479
     2014.86926        -2.59970         5.59227
     2014.87200         0.21106         5.65490
     2014.87474        -3.10117         5.68016
     2014.87748        -5.50541         5.56904
     2014.88021        -3.43864         5.92866
     2014.88295         1.06312         5.80542
     2014.88571         5.35690         5.92563
     2014.88845         8.91067         6.01452
     2014.89117        17.63842         5.96906
     2014.89390         1.94719         5.82663
     2014.89664         0.68995         5.73976
     2014.89938        -1.27028         5.79329
     2014.90212        -0.38851         5.81653
     2014.90485         5.59025         5.85087
     2014.90759        -0.88698         6.00543
     2014.91033         3.73078         5.67814
     2014.91307         0.21855         5.64682
     2014.91581         1.45931         5.58217
     2014.91854         5.95508         7.94191
     2014.92128        -4.68715         5.54176
     2014.92402         0.97461         5.61652
     2014.92676         3.22738         5.74683
     2014.92950        -1.81586         5.51651
     2014.93224        -6.79608         5.58722
     2014.93497        -0.00432         5.71450
     2014.93771        -3.78156         5.78218
     2014.94045        -1.46679         5.99230
     2014.94318         0.66597         5.97916
     2014.94592        -3.76726         5.82764
     2014.94866       -13.18950         5.49833
     2014.95140        -7.30073         5.42964
     2014.95414        -4.51796         5.47711
     2014.95687        -0.58520         5.61551
     2014.95961         4.35357         5.47206
     2014.96235        -3.79367         5.49833
     2014.96509         3.78610         5.86603
     2014.96783        -6.51414         5.41347
     2014.97056         0.02363         5.71147
     2014.97330        -0.30760         5.57106
     2014.97604        -3.38384         5.65793
     2014.97878         1.72593         5.47711
     2014.98151         0.85069         5.57106
     2014.98425        -8.46754         5.55085
     2014.98699         1.33523         5.50641
     2014.98973        -4.71401         5.45691
     2014.99247        -6.62224         6.07210
     2014.99522        -4.36747         5.60136
     2014.99794         1.12229         5.54277
     2015.00342        -4.01718         5.57914
     2015.00616        -8.99441         5.45792
     2015.00889        -1.73765         5.62359
     2015.01163         2.85612         5.69531
     2015.01437        -1.65712         5.60641
     2015.01711         1.76965         5.96098
     2015.01984        -1.48958         5.83370
     2015.02258         1.59618         5.76905
     2015.02532         4.23095         5.52560
     2015.02806         0.15871         5.65692
     2015.03080         1.10448         5.65389
     2015.03355        -8.31775         5.56803
     2015.03627        -6.10199         5.68016
     2015.03901        -0.44122         5.49934
     2015.04175         4.65954         5.81855
     2015.04449        -0.12269         5.54782
     2015.04722        -0.22093         5.79026
     2015.04996        -1.95616         5.47711
     2015.05270        -9.57940         6.43071
     2015.05544       -12.53163         5.68521
     2015.05817         0.37714         5.65187
     2015.06092         1.16591         5.59025
     2015.06365         9.22467         5.72157
     2015.06639        -1.44457         5.53166
     2015.06913        -3.19080         5.54883
     2015.07186        -2.76103         6.18120
     2015.07460        -5.28327         5.55186
     2015.07734        -9.52950         5.52055
     2015.08008       -13.77274         5.52055
     2015.08282        -3.73497         5.42964
     2015.08555         0.41679         5.50540
     2015.08829         0.95156         5.50237
     2015.09103        -2.39067         6.09836
     2015.09377        -2.95091         5.99230
     2015.09650        -0.50414         5.67207
     2015.09919         8.77959         6.22261
     2015.10198        13.05239         5.62561
     2015.10472        -1.40284         5.71349
     2015.10746        -0.31708         5.44782
     2015.11019        -7.89231         5.57106
     2015.11293        -4.61855         5.70541
     2015.11567         0.69422         5.60237
     2015.11841        -3.50502         5.59429
     2015.12115         1.84275         5.54176
     2015.12388        -8.36848         5.56702
     2015.12662        -8.84272         5.49934
     2015.12936        -0.33895         5.50641
     2015.13210         0.18081         5.60540
     2015.13483        -2.96942         5.59530
     2015.13757        -3.81866         5.63773
     2015.14031        -7.32489         5.55490
     2015.14305         1.48588         5.49429
     2015.14579        -4.18936         5.44580
     2015.14852         2.92641         5.53166
     2015.15126        -7.08583         5.71955
     2015.15400        -5.04006         5.45287
     2015.15674         2.13871         5.44883
     2015.15948         5.26247         5.53570
     2015.16223        -1.34375         5.51247
     2015.16495        -0.41400         5.44681
     2015.16769        -0.39423         5.46398
     2015.17043        -3.03547         5.44984
     2015.17316        -4.24470         5.65086
     2015.17590        -5.87493         5.87108
     2015.17864        -1.81017         5.42761
     2015.18138         0.49360         5.43671
     2015.18412        -2.85064         5.44580
     2015.18685         0.42113         5.44479
     2015.18959         1.77590         5.55692
     2015.19233        -2.29834         5.66803
     2015.19505        -0.63358         5.48014
     2015.19780        11.45319         5.67511
     2015.20054         0.66096         5.45085
     2015.20328         0.67472         5.47711
     2015.20602        -3.99851         5.85592
     2015.20876        -0.90674         5.65894
     2015.21149       -10.02798         5.65187
     2015.21423        -1.60921         5.72258
     2015.21697         4.22755         5.51954
     2015.21971        -4.50468         5.68016
     2015.22245        -3.50992         5.57611
     2015.22518        -0.61015         5.48519
     2015.22793        -2.04938         5.57409
     2015.23066        -0.90362         5.86300
     2015.23340        -3.47985         5.82562
     2015.23613        -1.13909         5.63773
     2015.23887        -1.78332         5.68117
     2015.24161         0.95445         6.08523
     2015.24436        -2.53078         5.81249
     2015.24709        -3.37502         5.77814
     2015.24982        -5.98726         5.38317
     2015.25256        -1.88649         5.43166
     2015.25530        -3.05073         5.50035
     2015.25804        -7.07896         5.44883
     2015.26078        -3.16119         5.46903
     2015.26351        -3.53643         5.48721
     2015.26625        -8.49566         5.49024
     2015.26899        -3.35190         5.55288
     2015.27173         3.56187         5.66702
     2015.27446         8.51164         6.10341
     2015.27720         1.32540         5.62965
     2015.27994        -2.73783         5.84582
     2015.28268         2.98594         5.67612
     2015.28542        -5.75730         5.66803
     2015.28815        -8.19954         5.60843
     2015.29089        -3.76077         5.58924
     2015.29363        -1.95300         5.58924
     2015.29637        -4.20224         5.71955
     2015.29911        -1.39147         5.68319
     2015.30184         4.63829         5.61146
     2015.30459        -2.43894         5.71551
     2015.30732         4.44982         5.40741
     2015.31006         1.50059         5.52156
     2015.31279        -5.32364         5.34579
     2015.31553        -6.19188         5.35892
     2015.31827        -6.21711         5.45893
     2015.32100        -5.90735         5.95492
     2015.32375        -8.87858         5.42964
     2015.32648        -7.40381         5.71450
     2015.32922        -4.82105         5.52762
     2015.33196        -1.72528         5.36700
     2015.33470        -3.23352         5.36094
     2015.33744        -2.49375         5.41448
     2015.34017       -11.67099         5.41246
     2015.34291        -4.41322         5.47711
     2015.34565        -3.56145         5.43469
     2015.34839        -5.18969         6.13978
     2015.35112        -5.23292         5.56601
     2015.35352         5.30162         6.47516
     2015.35740       -10.05388         8.15708
     2015.35936        -1.09061         5.52257
     2015.36208        -2.76486         5.42761
     2015.36481        -2.85109         5.34377
     2015.36755        -0.75933         5.32256
     2015.37029         0.28944         5.32256
     2015.37303        -4.61580         5.47913
     2015.37577        -4.34103         5.38620
     2015.37850        -4.93526         5.39832
     2015.38124        -7.28450         5.27508
     2015.38398        -3.35673         5.42357
     2015.38672         3.76203         5.41852
     2015.38945        -4.51220         5.37004
     2015.39219        -0.62844         5.51550
     2015.39493        -1.33967         7.06711
     2015.39767        -3.06490         5.48216
     2015.40041        -2.40914         5.90340
     2015.40314        -8.93537         5.45388
     2015.40588        -5.62861         5.41347
     2015.40862         5.72116         5.57106
     2015.41137         0.47793         5.29326
     2015.41410        -0.01831         5.47913
     2015.41683        -3.42254         5.45489
     2015.41957        -2.24178         5.45287
     2015.42231        -1.06101         5.32761
     2015.42505        -3.98825         5.57914
     2015.42778         2.44652         5.38822
     2015.43052         4.69529         5.73571
     2015.43326        -1.87595         5.34478
     2015.43600         0.75882         5.58924
     2015.43874         8.49458         5.56500
     2015.44148         8.12835         5.78016
     2015.44422         0.75112         5.59631
     2015.44695         2.98888         5.58520
     2015.44969         0.62065         5.35286
     2015.45243         5.36941         5.71349
     2015.45516         0.92718         5.58015
     2015.45790         6.68294         5.73875
     2015.46064         3.12571         7.32773
     2015.46338        -2.76752         5.54681
     2015.46611         3.01424         5.34579
     2015.46887         5.76002         5.44075
     2015.47159         6.18777         5.71955
     2015.47434         4.44355         6.00947
     2015.47707        11.17730         5.97916
     2015.47980         4.07707         5.50843
     2015.48254         6.95884         5.38115
     2015.48528         3.71460         5.42458
     2015.48802         4.34237         5.38115
     2015.49076         7.97613         5.54378
     2015.49350         7.61590         5.63773
     2015.49623         3.52767         5.60136
     2015.49897        -1.52057         5.64783
     2015.50171         7.65520         5.67005
     2015.50444         6.55296         5.45287
     2015.50718         5.42873         5.34882
     2015.50992         3.48350         5.51348
     2015.51266         4.96026         5.90845
     2015.51540         3.89203         5.34882
     2015.51813         9.11379         5.40034
     2015.52087        12.14656         5.95694
     2015.52360        12.98532         5.61652
     2015.52635         2.72209         5.33872
     2015.52908         5.65786         5.58419
     2015.53182         6.88562         5.31347
     2015.53456         5.31639         5.46297
     2015.53730         9.73115         5.46297
     2015.54004        11.94092         5.56803
     2015.54277         2.71768         5.49530
     2015.54551         9.56145         5.68723
     2015.54825         6.00922         5.62662
     2015.55099         8.88998         5.58520
     2015.55373        12.18675         5.59328
     2015.55646        10.89651         5.67005
     2015.55886        21.75606         6.42667
     2015.56293        -4.89332        12.12501
     2015.56468        10.54681         6.36909
     2015.56741        -0.38442         8.73489
     2015.57015        12.46234         5.71753
     2015.57289         8.31911         5.82360
     2015.57563         8.76887         5.56904
     2015.57837         2.30164         9.42484
     2015.58110        11.16341         5.63975
     2015.58384        12.78717         5.54075
     2015.58658        20.06794         5.87411
     2015.58932        19.88270         5.73066
     2015.59206        20.47347         5.88118
     2015.59479         9.60623         5.52863
     2015.59753         8.04300         5.62258
     2015.60027        18.57077         5.64480
     2015.60301        13.50853         5.75491
     2015.60574        15.07130         5.52257
     2015.60848         9.67606         5.54378
     2015.61122        14.32483         5.68723
     2015.61396        10.31660         5.63975
     2015.61943        11.61813         5.56298
     2015.62217        11.70089         5.37610
     2015.62491        12.59766         5.49126
     2015.62765         8.44142         5.93674
     2015.63039        18.99219         8.96420
     2015.63312        17.29996         5.64076
     2015.63586        17.39272         5.56601
     2015.63860        11.14149         5.30437
     2015.64134        16.99825         5.42357
     2015.64407        15.98702         5.50944
     2015.64681         1.72678         5.63470
     2015.64955         9.77755         5.44883
     2015.65229        12.83032         5.51550
     2015.65503        23.87208         5.53065
     2015.65776        10.64985         5.97411
     2015.66050        12.55661         5.41650
     2015.66324        19.34138         5.51247
     2015.66598        27.56115         5.76501
     2015.66872        17.30691         5.73774
     2015.67145         8.36668         5.42862
     2015.67419         1.54344         5.28013
     2015.67693         6.77721         5.28316
     2015.67967        13.67797         5.44277
     2015.68240         9.19774         5.49126
     2015.68514         5.19451         5.65692
     2015.68788         1.90527         5.49429
     2015.69062         6.54304         5.40539
     2015.69336         7.09580         5.55288
     2015.69609         9.72357         5.38216
     2015.69883        11.70934         5.79329
     2015.70157         8.39110         5.44176
     2015.70431         9.80887         5.51853
     2015.70705         7.97063         5.37105
     2015.70978        10.65340         5.47105
     2015.71252        12.98816         5.42660
     2015.71526         7.10293         5.37206
     2015.71800        25.52370         5.70541
     2015.72073        14.42046         5.56803
     2015.72347         8.37223         5.52863
     2015.72621         5.39399         5.61854
     2015.72895         4.41676         5.67612
     2015.73169         3.23552         5.70238
     2015.73442         1.41029         5.39327
     2015.73716         1.98506         5.32155
     2015.73990         8.61882         5.54580
     2015.74264         5.71959         5.59833
     2015.74538         8.17035         5.61854
     2015.74811         3.23412         5.66702
     2015.75085        -0.95611         5.38822
     2015.75359         2.30665         5.45388
     2015.75633        11.29442         5.38216
     2015.75906         7.49318         5.30842
     2015.76180         6.32395         5.42761
     2015.76454        10.65971         7.86413
     2015.76728         9.09248         5.58217
     2015.77002        23.19525         5.73066
     2015.77275        23.00301         5.67915
     2015.77549        17.38378         5.64278
     2015.77823         8.55154         5.43166
     2015.78097        12.04531         5.48014
     2015.78372        10.37209         5.44883
     2015.78644         9.22484         5.46398
     2015.78918         4.54761         5.29427
     2015.79192        12.49937         5.57005
     2015.79468         6.42916         5.50540
     2015.79739         9.41590         5.45085
     2015.80013         9.67267         5.57409
     2015.80287         7.95444         5.81552
     2015.80561         5.02220         5.38115
     2015.80835         2.07897         5.39327
     2015.81108         2.45873         5.48418
     2015.81382        10.54950         5.47307
     2015.81656         7.13426         5.68319
     2015.81930         1.34003         5.50237
     2015.82203        11.02480         5.66197
     2015.82478        11.84557         5.60944
     2015.82751        16.49833         5.70036
     2015.82928        19.84247        10.81482
     2015.83682        10.78633        11.88560
     2015.83846        -0.67261         5.84986
     2015.84120        -2.79384         5.71248
     2015.84394         5.68392         5.48115
     2015.84668        -2.79131         5.54681
     2015.84941         8.50245         6.81457
     2015.85215        11.38222         6.86407
     2015.85489         6.44099         6.12160
     2015.85797        -1.12202         6.43475
     2015.86036        12.03752         8.49346
     2015.86310        -0.71672         5.74178
     2015.86584        21.37505         8.09041
     2015.86858         3.72382         6.55597
     2015.87132         1.33758         8.94703
     2015.87405        -0.01465         6.50748
     2015.87673         0.52908        12.16440
     2015.87963         3.20494         5.97310
     2015.88227         1.26764         5.54479
     2015.88501        -4.61359         7.34188
     2015.88775        -9.49682         6.02563
     2015.89048        -0.59306         5.50237
     2015.89322         8.52371         5.70339
     2015.89598         7.08349         5.91653
     2015.89869         0.67824         5.63874
     2015.90143        -3.92200         5.83168
     2015.90417        -6.73123         5.65187
     2015.90691        -3.96746         5.81451
     2015.90868         0.77368        10.65320
     2015.91323         5.90261         9.00764
     2015.91512        -2.05417         5.46600
     2015.91786         1.22760         5.74279
     2015.92060         6.27337         5.82562
     2015.92334         0.95213         6.48829
     2015.92607        -1.97510         5.88118
     2015.92881        -4.94934         5.67106
     2015.93155         5.12943         6.13069
     2015.93429        19.68619         7.22975
     2015.93702         4.29096         5.79026
     2015.93976         3.42373         5.88825
     2015.94250        -1.89051         5.82663
     2015.94524        -1.78774         7.14995
     2015.94799         9.36203         5.56298
     2015.95071         4.63879         5.47812
     2015.95346        -1.44044         5.73066
     2015.95619         0.25032         5.78723
     2015.95893        -0.10291         5.82057
     2015.96167        11.89686         5.71854
     2015.96440         6.44362         5.60439
     2015.96716         8.10340         5.78016
     2015.96988         6.05615         5.88825
     2015.97262         9.44192         5.58823
     2015.97535         8.59768         5.68723
     2015.97809         2.95445         5.54176
     2015.98083         0.64221         5.49024
     2015.98357        -2.67702         5.44176
     2015.98631        -0.84226         5.96603
     2015.98904        -1.09149         5.75996
     2015.99178        -6.86372         5.73571
     2015.99452        -8.42995         5.51146
     2015.99709        -2.46230         5.86199
     2015.99983        -4.16553         5.91956
     2016.00273        -4.26366         5.55490
     2016.00548         0.29211         5.80845
     2016.00821        -1.25413         5.81451
     2016.01095         5.05964         5.59732
     2016.01368        -2.56760         5.82663
     2016.01642        -9.07483         5.78521
     2016.01916        -4.07807         5.70642
     2016.02190        -3.51130         5.70945
     2016.02464        -1.55353         5.68016
     2016.02737        -1.15477         5.74380
     2016.03011        -0.89600         5.62561
     2016.03285         4.06976         5.65187
     2016.03559        -3.71847         5.82966
     2016.03833        -5.50870         5.64379
     2016.04089        -3.85905         6.09735
     2016.04733         3.42210         7.90252
     2016.04928        -3.81864         6.25494
     2016.05201        -4.04288         5.59429
     2016.05475         1.33389         5.76804
     2016.05749         0.86166         5.52156
     2016.06023        -9.01558         5.94381
     2016.06297        -1.08881         5.76299
     2016.06570        -5.83105         5.63470
     2016.06844        -2.32028         6.05493
     2016.07118         3.54648         6.09129
     2016.07392        -1.32975         5.71955
     2016.07666        -2.58998         5.80138
     2016.07939         4.76978         5.72056
     2016.08213        -6.50145         6.47415
     2016.08487        -1.11069         6.94488
     2016.08762        -8.92091         5.72662
     2016.09037        -7.69714         5.62561
     2016.09308        -0.04539         5.63066
     2016.09582        -9.72162         5.65995
     2016.09856       -11.33885         5.78420
     2016.10130       -15.11309         5.74683
     2016.10403       -10.01133         5.93573
     2016.10677        -7.52956         5.86906
     2016.10951        -2.35079         5.76703
     2016.11225       -12.83803         5.62662
     2016.11498         1.94074         5.74582
     2016.11771        -7.53250         5.59530
     2016.12046        -8.23473         5.51449
     2016.12320        -2.75296         5.57308
     2016.12594         1.85680         5.57813
     2016.12867        -1.69143         5.84077
     2016.13141         9.48533         5.96300
     2016.13415         0.33410         5.97007
     2016.13689        -2.59714         5.79531
     2016.13963       -10.57737         5.93371
     2016.14236        -6.76860         5.66904
     2016.14511       -12.95384         5.70036
     2016.14784        -2.41807         5.59934
     2016.15058        -7.21831         5.64076
     2016.15332       -13.57554         6.51556
     2016.15605        -0.46978         5.96906
     2016.15880        -4.92601         5.69430
     2016.16153         0.23376         5.96906
     2016.16427        -8.06547         5.70743
     2016.16700        -1.51071         5.59530
     2016.16976         1.24507         5.55894
     2016.17248        -4.17118         5.64177
     2016.17522         4.87759         5.97108
     2016.17796         7.87535         5.73167
     2016.18069         1.20412         5.82966
     2016.18343        -5.75312         6.00341
     2016.18617        -3.89635         5.52762
     2016.18891         2.18541         5.59833
     2016.19164        -1.68682         5.52661
     2016.19438         5.99295         5.45085
     2016.19712        -6.44829         6.75295
     2016.19986        -5.15352         5.45186
     2016.20666       -19.46614        81.08289
     2016.20807        -9.11722         6.03977
     2016.21081        -6.85746         5.51853
     2016.21355        -1.37869         5.73976
     2016.21629       -12.39693         7.34895
     2016.21902       -10.30416         6.90953
     2016.22176        -0.62940         5.60035
     2016.22450        -2.99663         6.96812
     2016.22724        -0.68086         5.46802
     2016.22997        -0.69510         5.69531
     2016.23271        -6.92333         7.77524
     2016.23545         2.14143         5.59833
     2016.23819        -4.94280         5.63672
     2016.24093        -5.09004         5.39933
     2016.24366        -0.62127         5.46398
     2016.24640        -7.18550         5.76804
     2016.24914        -5.95174         5.47408
     2016.25188         4.64603         5.43671
     2016.25462        -0.65421         5.62460
     2016.25735        -1.73244         5.38519
     2016.26009        -4.43067         5.55186
     2016.26283        -8.20191         5.45388
     2016.26557         1.95786         5.46499
     2016.26830        -0.17838         5.49934
     2016.27104        -2.03061         5.42862
     2016.27378         0.06115         5.41448
     2016.27652        -2.57608         5.56399
     2016.27928         2.25270         5.54984
     2016.28199        -4.93955         5.41044
     2016.28473         3.16122         5.46196
     2016.28747        -1.67002         5.46903
     2016.29021        -7.25425         5.46297
     2016.29295        -5.28148         5.62258
     2016.29568        -1.17872         5.46196
     2016.29842         0.51005         5.51449
     2016.30116        -4.96719         5.48014
     2016.30390        -2.27642         5.60641
     2016.30663         0.92634         5.77309
     2016.30937        -3.60489         5.39933
     2016.31211        -1.66012         5.49328
     2016.31485         0.78164         5.53671
     2016.31759        -0.64459         5.38721
     2016.32032        -3.64983         5.58924
     2016.32306        -9.06006         5.44681
     2016.32580        -1.65030         5.43772
     2016.32854        -2.23953         5.38923
     2016.33128        -3.73476         5.58015
     2016.33401         0.19600         5.47812
     2016.33675         0.28777         5.53065
     2016.33949        -2.81547         5.59732
     2016.34223        -2.24070         5.55490
     2016.34496        -2.19493         5.54378
     2016.34770         4.17383         5.65187
     2016.35044        12.42660         5.65995
     2016.35318        -1.64564         5.47913
     2016.35592        -5.53787         5.43267
     2016.35865        -7.23111         5.50035
     2016.36141        -5.71333         5.44176
     2016.36413         3.89043         5.54378
     2016.36687         1.67919         5.45287
     2016.36961        10.42496         5.45388
     2016.37234         9.80472         5.48115
     2016.37508         5.04549         5.48317
     2016.37782        -0.80874         5.42357
     2016.38055         6.56201         5.54681
     2016.38329         0.50079         5.40236
     2016.38603         1.28155         5.46903
     2016.38877        14.07932         5.45792
     2016.39151         5.67608         5.41852
     2016.39425        -0.60815         5.55490
     2016.39698         6.32862         5.46600
     2016.39972         8.77538         5.61854
     2016.40246         3.97215         5.59227
     2016.40520         1.56591         5.43368
     2016.40794         4.65768         5.49934
     2016.41067        -4.58556         5.58015
     2016.41341        -0.43079         5.45893
     2016.41615         2.71198         5.64177
     2016.41889        11.95874         5.80643
     2016.42162         1.45851         5.45388
     2016.42436        -0.74873         5.43974
     2016.42710         4.51504         5.39226
     2016.42984        10.06681         5.65995
     2016.43258         6.24357         5.49833
     2016.43531        10.63034         5.61450
     2016.43805         5.59010         5.50439
     2016.44079         4.98487         5.50641
     2016.44353         4.42663         5.52257
     2016.44626        -2.89960         5.50742
     2016.44900         3.46017         5.47610
     2016.45174         7.79193         5.40438
     2016.45448         6.26770         5.47509
     2016.45722         3.44246         5.48822
     2016.45995         4.19623         5.42357
     2016.46269         7.21300         5.50035
     2016.46543         1.29576         5.47206
     2016.46817         5.31353         5.57207
     2016.47091        10.65929         5.45388
     2016.47364        -1.83194         5.35286
     2016.47638        10.29882         5.47206
     2016.47912         4.95659         5.67915
     2016.48186         4.52436         5.55490
     2016.48457         2.81311         5.51651
     2016.48733         8.38289         5.49934
     2016.49007         5.35765         5.34175
     2016.49281         5.19042         5.44984
     2016.49555         9.46518         5.53065
     2016.49737       -15.99964        19.43658
     2016.50752        -1.92009        12.20077
     2016.50925         8.20502         5.38620
     2016.51197         1.77978         5.38418
     2016.51471         7.07755         5.48620
     2016.51745         1.86531         5.54984
     2016.52019         4.14508         5.52257
     2016.52298         1.78788         5.48014
     2016.52566         6.36961         5.34781
     2016.52840         5.21537         5.38317
     2016.53114         4.43914         5.42660
     2016.53388         3.72891         5.38519
     2016.53661         8.69867         5.39024
     2016.53935         5.78344         5.32256
     2016.54112         9.80058         9.18240
     2016.54571        13.63754         9.70263
     2016.54757         3.77474         5.37711
     2016.55030         7.75850         5.62056
     2016.55304         8.17727         5.41246
     2016.55572        13.09900         5.68319
     2016.55830        10.97066         5.85592
     2016.56486         6.70389        12.74929
     2016.56671        18.27708         5.72258
     2016.56947         9.94186         5.56197
     2016.57221        12.60563         5.57207
     2016.57494         6.92739         5.49833
     2016.57768         8.58516         5.39226
     2016.58019         9.52978         5.84986
     2016.58357         4.05795         6.64385
     2016.58590         6.87846         5.58621
     2016.58863         8.22822         5.37610
     2016.59137         3.55599         5.38317
     2016.59411        18.06075         5.59126
     2016.59685        14.40952         5.38822
     2016.59958        12.38729         5.36903
     2016.60232         7.75405         5.36397
     2016.60506         6.81382         5.46903
     2016.60780        11.40658         5.47509
     2016.61054         5.99735         5.36195
     2016.61327         9.44911         5.34377
     2016.61601         7.52288         5.35791
     2016.61875        11.99265         5.42761
     2016.62149         5.45141         5.41953
     2016.62423         7.02518         5.49833
     2016.62696        11.28794         5.37105
     2016.62970         4.35271         5.38014
     2016.63244         6.23448         5.44479
     2016.63518        10.32924         5.35286
     2016.63791        21.01801         5.67814
     2016.64065        17.97677         5.43166
     2016.64339         5.77554         5.45792
     2016.64613        10.82530         5.53873
     2016.64887         7.37007         5.55692
     2016.65052        25.40314        11.39365
     2016.66086        11.51381        10.93503
     2016.66256         7.03690         5.38822
     2016.66529        21.04766         5.75996
     2016.66803         7.02243         5.71652
     2016.67077        16.88520         5.55591
     2016.67351         8.60396         5.44580
     2016.67624         7.60973         5.38822
     2016.67898        14.60649         5.34276
     2016.68172        16.93326         5.37206
     2016.68446        11.93003         5.90441
     2016.68720        11.06679         5.67915
     2016.68993         9.24556         5.52358
     2016.69267        12.48732         5.56096
     2016.69541        13.52409         5.37307
     2016.69763         9.16752         6.94589
     2016.70183         8.53223         9.71879
     2016.70362        13.49239         5.58318
     2016.70635        -1.08786         5.73571
     2016.70910         8.83592         5.76400
     2016.71184        14.65368         5.42054
     2016.71457        17.86045         5.43469
     2016.71731        14.52122         6.31858
     2016.72005        15.22698         5.84178
     2016.72279         9.79675         5.34276
     2016.72553        11.62651         5.53974
     2016.72821         5.33324         5.60843
     2016.73101         8.96505         5.40337
     2016.73374        13.11081         5.40741
     2016.73648        17.50758         5.47004
     2016.73921        18.11534         5.55894
     2016.74292        16.97173        65.67383
     2016.74469         4.71087         5.33670
     2016.74743         4.91864         5.43974
     2016.75017         9.96041         5.39327
     2016.75290        11.12217         5.34882
     2016.75563        12.75593         5.36195
     2016.75838        18.17570         5.43772
     2016.76112        12.68647         5.31145
     2016.76386         9.83323         5.34680
     2016.76659        13.86200         5.47408
     2016.76933        11.82277         5.44176
     2016.77207        12.12653         5.38317
     2016.77481         3.10430         5.32054
     2016.77754         5.47606         5.33165
     2016.78028         6.97083         5.53570
     2016.78302        10.19659         5.43469
     2016.78576        12.70836         5.73268
     2016.78850        13.34213         5.69026
     2016.79123        11.53889         5.47206
     2016.79397        15.47966         5.46196
     2016.79671         7.61742         5.36296
     2016.79939         1.23515         5.48822
     2016.80219        23.43796         9.03289
     2016.80492         2.35572         5.60338
     2016.80766        13.38749         5.45186
     2016.81040         4.75925         5.33973
     2016.81314        -0.89398         5.44479
     2016.81587         1.44478         5.50742
     2016.81861        -4.42245         5.35791
     2016.82135        11.06932         5.51651
     2016.82409         4.50308         5.36195
     2016.82683         3.22885         5.39933
     2016.82956        -1.40839         5.32559
     2016.83230         7.10838         5.62965
     2016.83504         4.23914         5.35892
     2016.83778         7.12391         5.37206
     2016.84052         5.02568         5.63369
     2016.84326        -0.86255         5.53065
     2016.84599         7.38721         5.40741
     2016.84873         8.61697         5.54378
     2016.85147        -1.06026         5.34175
     2016.85420         3.85051         5.35286
     2016.85694         6.08027         5.46903
     2016.85968        -0.63496         5.46095
     2016.86242         7.35180         5.47408
     2016.86516        11.23257         5.53368
     2016.86789         1.34633         5.49530
     2016.87063        13.08610         5.56702
     2016.87337        10.20387         5.34478
     2016.87611         4.99563         5.34680
     2016.87885         2.06740         5.39226
     2016.88158        -1.07984         5.37307
     2016.88432         6.76093         5.55389
     2016.88706         6.94070         5.75188
     2016.88980         3.37646         5.44277
     2016.89253         0.72023         5.41448
     2016.89527         3.97399         5.44984
     2016.89801         4.47476         5.51449
     2016.90075        -0.26148         5.51752
     2016.90349         6.34229         5.48620
     2016.90622        10.15406         5.49227
     2016.90896         4.76582         5.37509
     2016.91170         2.42259         5.35993
     2016.91444        -0.60765         6.88629
     2016.91718        -0.82288         7.11156
     2016.91940        -0.18945         7.49340
     2016.92265         3.58965         5.49126
     2016.92539         3.34042         5.38721
     2016.92813         0.37318         5.51954
     2016.93086       -11.78005         5.49631
     2016.93360        -0.89429         5.32761
     2016.93634         0.70048         5.38317
     2016.93908        -3.02175         5.66702
     2016.94182         6.58201         5.44176
     2016.94455         0.02978         5.40438
     2016.94729         2.57154         5.55490
     2016.95003         2.44531         5.50439
     2016.95277         0.24907         5.46196
     2016.95551        -0.38116         5.40539
     2016.95824         1.24961         5.41347
     2016.96001         3.14375        10.05215
     2016.96749         5.58757        10.75724
     2016.96919         7.68867         5.55591
     2016.97188         0.40540         5.48923
     2016.97468         3.16921         5.55692
     2016.97741         8.62897         5.40539
     2016.98015         5.71973         5.36397
     2016.98288         2.12850         5.53368
     2016.98562         1.41626         5.39125
     2016.98836         5.41103         5.58621
     2016.99110         8.60580         5.43267
     2016.99384         2.51356         5.32357
     2016.99657        -0.31467         5.43570
     2016.99932         2.98610         5.37206
     2017.00480         1.34763         5.42458
     2017.00752        -1.21561         6.22969
     2017.01031       -10.36581        10.42591
     2017.01300         4.49892         5.39630
     2017.01574         3.70269         5.37610
     2017.01848        -0.50255         5.33771
     2017.02121         2.34122         5.37711
     2017.02395         2.51399         5.50540
     2017.02669         2.92075         5.54479
     2017.02943         2.25752         5.33569
     2017.03216        -0.58272         5.38115
     2017.03490        -2.64395         5.33165
     2017.03764        -5.50519         5.31549
     2017.04038        -5.28942         5.44883
     2017.04312         0.70035         5.38216
     2017.04585         4.35411         5.64884
     2017.04859         4.16488         5.57611
     2017.05133        15.25964         5.39832
     2017.05401         7.35537         5.46903
     2017.05681         8.50218         5.39428
     2017.05954        -6.54906         5.84986
     2017.06228        -3.10929         5.35993
     2017.06502        -7.09453         5.43065
     2017.06776        -6.29576         5.44883
     2017.07049        -1.74000         5.34175
     2017.07323        -4.28823         5.51247
     2017.07597        -8.73046         5.50641
     2017.07871        -1.52770         5.61247
     2017.08145        -1.90993         9.15007
     2017.08418        -5.24117         5.34983
     2017.08692        -2.18840         5.41246
     2017.08966        -3.30464         5.46701
     2017.09240        -2.22287         5.45792
     2017.09514         3.72790         5.44176
     2017.09787         6.77966         5.96199
     2017.10061        -1.11757         5.30741
     2017.10335        -6.82781         5.70541
     2017.10609        -4.81104         5.49732
     2017.10882         3.44673         5.50641
     2017.11156         1.18449         5.49631
     2017.11430        -3.16674         5.39428
     2017.11704       -15.08398         5.38115
     2017.11978        -8.65221         5.39630
     2017.12251        -2.49945         5.44782
     2017.12525        -0.88768         5.37004
     2017.12799         7.56209         5.60035
     2017.13073         5.44385         5.42357
     2017.13347        -0.49638         5.35892
     2017.13620         2.59638         5.55186
     2017.13894        -3.31485         5.60742
     2017.14168        -4.98108         5.37206
     2017.14442        -2.77832         5.47206
     2017.14715        -4.54955         5.56197
     2017.14989         1.07621         5.41347
     2017.15263         1.44198         5.38923
     2017.15537         3.25374         5.42054
     2017.15811        -5.09949         7.62876
     2017.16084         4.05928         5.36498
     2017.16358         4.01004         5.43469
     2017.16632         0.91581         5.37711
     2017.16906        -0.47743         5.44681
     2017.17180         4.58734         5.37105
     2017.17453         1.07411         5.69935
     2017.17727         4.87987         6.64284
     2017.18001        -2.06136         5.39529
     2017.18275         2.77040         5.47913
     2017.18548        -6.86283         5.38317
     2017.18822        -5.03707         5.68824
     2017.19096        -4.92630         5.46701
     2017.19370        -0.25053         5.47004
     2017.19644        -1.54177         5.41145
     2017.19917         3.98900         5.39731
     2017.20191        -2.53324         5.79228
     2017.20465        -3.98047         6.63375
     2017.20739        -4.56970         5.71955
     2017.21007         3.57402         5.97512
     2017.21287        -4.75717         5.63975
     2017.21560         1.12359         5.84582
     2017.21834         1.85036         6.58021
     2017.22108         0.43912         5.70339
     2017.22381        -2.73211         5.88320
     2017.22655        -1.46734         6.28322
     2017.22929       -16.44058         6.44283
     2017.23203       -12.29481         9.46221
     2017.23477        -6.41404         5.66399
     2017.23800        -1.61296         6.98428
     2017.24024        -5.64352         5.63975
     2017.24298        -6.77975         5.63066
     2017.24572        -6.32198         5.92866
     2017.24846        -7.36622         5.78824
     2017.25119        -3.44845         6.00947
     2017.25393        -6.79369         6.29939
     2017.25667        -1.15592         6.09937
     2017.25941        -3.10115         5.63571
     2017.26214        -7.57339         6.38727
     2017.26489        -0.00762         6.19130
     2017.26762        -0.88886         6.11049
     2017.27036        -7.04609         5.89229
     2017.27310        -9.85833         5.73976
     2017.27583        -6.92156         5.60944
     2017.27858        -8.66079         5.76804
     2017.28131       -11.64703         5.97209
     2017.28405        -8.67026         5.52257
     2017.28679       -13.56450         6.18524
     2017.28952        -8.11273         5.72460
     2017.29227        -5.12196         5.84077
     2017.29500        -4.16520         6.06099
     2017.29774       -11.16943         5.74279
     2017.30047       -18.16567         6.15392
     2017.30321        -8.63490         6.07412
     2017.30595        -4.92314         5.99028
     2017.30869        -8.21537         5.78925
     2017.31143        -8.42760         5.84279
     2017.31416        -6.71284         5.40943
     2017.31691        -3.10207         6.31656
     2017.31964        -5.61231         5.96098
     2017.32232       -18.73258         5.86300
     2017.32514       -16.14576         5.53873
     2017.32688       -12.67664        12.20380
     2017.33181       -15.24946        19.54063
     2017.33333       -16.13748         5.74481
     2017.33607        -9.58371         5.57207
     2017.33880       -18.88395         5.64379
     2017.34154        -4.76318         5.64480
     2017.34428       -15.73141         5.69430
     2017.34702       -10.50765         5.39024
     2017.34970        -9.61792         5.81552
     2017.35249       -11.59612         9.82789
     2017.35523       -12.84035         5.86805
     2017.35797       -16.69759         6.12463
     2017.36071       -12.66182         6.19837
     2017.36344        -8.80805         5.73875
     2017.36618       -12.10529         6.14685
     2017.36892        -3.09152         5.57813
     2017.37166        -5.81976         5.87411
     2017.37440       -12.50099         5.97815
     2017.38073       -13.35190         9.49050
     2017.38261       -12.34069         5.52762
     2017.38535       -14.82393         5.62460
     2017.38723        -7.26371         9.50060
     2017.39171        -6.77583        11.90782
     2017.39357        -5.90063         6.07513
     2017.39630        -9.63086         5.70036
     2017.39904        -9.29510         5.74380
     2017.40177        -8.26133         5.91956
     2017.40440        -7.95664        11.13201
     2017.40684       -11.94807        12.32401
     2017.40982        13.31786        15.43936
     2017.41274        -7.19826         5.65389
     2017.41546        -2.92650         5.73470
     2017.41820        -7.57674         5.54277
     2017.42094       -10.50097         5.87714
     2017.42368       -12.49221         6.18827
     2017.42642        -9.75644         6.07614
     2017.42916        -5.34367         5.46499
     2017.43189        -7.70091         5.78319
     2017.43463        -8.40514         5.80441
     2017.43737        -9.52338         5.99937
     2017.44010        -0.85861         5.82461
     2017.44285        -2.43584         5.81653
     2017.44559         1.52592         5.77006
     2017.44832        -2.70931         5.72460
     2017.45106         2.12845         5.69329
     2017.45379         2.97722         7.74493
     2017.45653        -8.24202         6.14887
     2017.45927        -6.74925         5.68723
     2017.46201        -9.66149         6.04988
     2017.46475        -6.42272         5.72460
     2017.46748       -16.85095         9.61778
     2017.47022        -8.80219         5.84582
     2017.47296        -4.80242         5.49126
     2017.47570       -11.48565         5.60439
     2017.47843       -10.54789         5.51651
     2017.48117        -8.09912         5.78723
     2017.48391         4.71264         6.20241
     2017.48665        -4.45359         5.81754
     2017.48939        -4.54582         5.98725
     2017.49213        -8.87206         5.86300
     2017.49487        -4.96929         6.08523
     2017.49760         1.82447         6.03270
     2017.50034        -3.00676         5.76602
     2017.50308         2.30700         6.13675
     2017.50581       -10.34723         5.54479
     2017.50856        -5.86046         5.78420
     2017.51129        -2.67570         5.75592
     2017.51403        -5.39593         5.52964
     2017.51676         0.92383         5.58015
     2017.51951        -1.96340         5.78723
     2017.52224         3.81436         6.20948
     2017.52458        -0.30813         6.50849
     2017.52896        -4.62731        21.43064
     2017.53045        -4.51734         5.69026
     2017.53319        -4.51357         5.75390
     2017.53485         1.86849        11.15828
     2017.54234        -6.52368        10.34510
     2017.54414         1.62449         5.38317
     2017.54688        -2.64975         5.50540
     2017.54962        -1.30998         5.69531
     2017.55236        -0.79221         5.76097
     2017.55509         3.48055         5.79632
     2017.55783        -1.18368         5.85592
     2017.56057        -6.61992         6.03775
     2017.56331         2.67885         5.85188
     2017.56605         1.80862         5.54580
     2017.56878        -0.76762         6.03068
     2017.57152        -3.56385         5.69531
     2017.57420         0.15088         6.20746
     2017.57700        -1.91732         6.18726
     2017.57974        -2.14956         5.53469
     2017.58248        -6.76878         6.34282
     2017.58521        -4.56502         5.36801
     2017.58795        -6.82526         5.55995
     2017.59069        -9.96249         5.98523
     2017.59342        -3.69173         5.51752
     2017.59616        -7.70796         5.83673
     2017.59890        -6.74219         6.42465
     2017.60164        -5.12943         5.94785
     2017.60438        -8.37166         5.79127
     2017.60711        -3.94790         5.78319
     2017.60985         0.75187         6.27918
     2017.61259         8.57163         5.90946
     2017.61533         2.82340         6.25292
     2017.61807         2.11617         5.87310
     2017.62080        -3.58707         5.43166
     2017.62354         5.51770         5.60338
     2017.62628         4.20646         5.54479
     2017.62902        -0.44077         5.96098
     2017.63177        -0.55099         5.56904
     2017.63449        -1.07224         5.49429
     2017.63723        -7.51747         5.31650
     2017.63997         3.00429         5.55692
     2017.64271        13.50506         5.70137
     2017.64544         7.48982         5.49833
     2017.64818        -2.25041         8.26214
     2017.65092        -1.23564         5.33367
     2017.65263        -0.10154        11.46133
     2017.65749        -2.46341        11.82095
     2017.65913        -0.53935         5.42054
     2017.66187         8.27942         5.77915
     2017.66461         6.40218         5.57308
     2017.66735         2.53395         5.48620
     2017.67008         5.81072         5.38014
     2017.67282         4.85448         5.57712
     2017.67556         1.66525         5.41751
     2017.67830         2.36101         5.35892
     2017.68104         6.56278         5.40034
     2017.68377         4.65555         5.76905
     2017.68651         8.69631         5.73167
     2017.68925        10.35708         5.62763
     2017.69199        -1.21316         5.48216
     2017.69472         2.64261         6.48324
     2017.69748         2.05839         5.65187
     2017.70020         3.03114         5.56399
     2017.70294         3.75391         5.61551
     2017.70568        -3.08733         5.51449
     2017.70841         5.30044         5.36801
     2017.71115         4.47420         5.57510
     2017.71389         8.14197         5.45994
     2017.71663         6.48573         5.39933
     2017.71937        -2.74750         5.39933
     2017.72210         2.86027         5.43974
     2017.72484        -0.30697         5.62763
     2017.72758        -4.27520         6.43071
     2017.73020         7.98549         9.29958
     2017.73311         4.56637         6.12059
     2017.73579        -1.10790         5.37913
     2017.73853         1.14986         5.84481
     2017.74138        -2.66030         6.79639
     2017.74401        10.24539         5.64985
     2017.74669        -0.55388         5.59631
     2017.74971        -3.23893        20.42553
     2017.75234       -19.36323        38.12462
     2017.75886         9.01498        14.35141
     2017.76043        -2.02901        12.69474
     2017.76317        13.24675         5.67409
     2017.76591        12.48152         5.60338
     2017.76865         3.12529         5.40337
     2017.77138         2.09805         5.39327
     2017.77412         2.81682         5.56702
     2017.77686         0.51358         5.42862
     2017.77960        -1.04565         5.43267
     2017.78234        -1.16789         5.43065
     2017.78507        -6.11512         5.54176
     2017.78781        -0.40835         5.33670
     2017.79055         2.28741         5.42256
     2017.79329        11.91418         5.57409
     2017.79603         3.77294         5.42559
     2017.79871        14.07467         6.64284
     2017.80150        15.54747         7.17924
     2017.80424         4.36024         5.36599
     2017.80698         2.37001         6.02361
     2017.80971        -3.61323         5.56500
     2017.81245        -9.37646         5.35387
     2017.81519         0.41730         5.60843
     2017.81793        -7.00693         5.37711
     2017.82067        -9.29316         5.50742
     2017.82340        -3.23440         5.55288
     2017.82512        -0.13230        10.74613
     2017.82998        -1.70216        12.20279
     2017.83162         5.90890         5.70440
     2017.83436         0.91966         5.58015
     2017.83709        -1.76157         5.69733
     2017.83983        -5.58580         7.78635
     2017.84257        -1.61604         5.32963
     2017.84531        -4.49527         5.33266
     2017.84804       -10.40051         5.38014
     2017.85078        -1.60174         5.36498
     2017.85352         0.74103         5.39428
     2017.85626         1.14979         5.60742
     2017.85900        -0.31644         5.62763
     2017.86173         1.92532         5.68117
     2017.86447         1.63409         5.62359
     2017.86647         4.12138         8.30961
     2017.87097         2.88528        10.55723
     2017.87269         4.83739         5.65086
     2017.87542         0.10515         5.39024
     2017.87816         5.99592         5.50035
     2017.88090         3.62668         5.34781
     2017.88364        -1.02555         5.54883
     2017.88637         5.35321         5.50742
     2017.88911         8.46098         5.59429
     2017.89185        -0.73725         5.48216
     2017.89459         8.04651         5.62460
     2017.89733         7.50928         5.48418
     2017.90006        -1.88796         5.53772
     2017.90280         1.45981         5.70945
     2017.90554         9.09958         8.66014
     2017.90828         1.15534         5.80643
     2017.91102        -1.92789         5.68824
     2017.91375        -4.51213         5.49429
     2017.91649        -1.13236         5.38014
     2017.91923         6.22040         5.42660
     2017.92197        -7.12283         5.41448
     2017.92470        -8.39406         5.38822
     2017.92745       -12.36730         5.80946
     2017.93018       -13.56553         5.54378
     2017.93292       -13.26177         5.43671
     2017.93566       -12.07900         5.34882
     2017.93839        -9.45323         5.36498
     2017.94113        -7.33947         5.46499
     2017.94387        -4.15870         5.41145
     2017.94661         5.11106         5.65692
     2017.94935        -5.32817         5.38418
     2017.95208        -7.11541         5.46802
     2017.95482        -4.68764         5.45489
     2017.95756        -8.37287         5.37206
     2017.96030         0.01389         5.44277
     2017.96303         1.60766         5.45792
     2017.96577        -1.63658         5.61247
     2017.96851        -1.60981         5.32155
     2017.97125        -7.99805         5.32559
     2017.97399        -5.79128         5.29427
     2017.97672        -5.83751         5.34781
     2017.97946        -5.50975         5.32862
     2017.98220        -9.57998         5.25993
     2017.98494        -4.67722         5.31650
     2017.98767       -11.80145         5.31751
     2017.99041        -5.65868         5.35084
     2017.99316        -1.35491         5.36700
     2017.99589        -6.65415         5.41448
     2017.99766        -3.03601        10.08144
     2018.00457       -15.90155         6.77214
     2018.00684       -14.83909         5.34175
     2018.00958       -12.42032         5.34377
     2018.01232        -8.73956         5.39630
     2018.01505       -11.04979         5.35387
     2018.01779         0.01297         5.37004
     2018.02053         0.58074         5.39327
     2018.02327        -0.60749         5.36599
     2018.02600         1.64327         5.38721
     2018.02874        -6.12996         5.37509
     2018.03148       -11.18920         5.35286
     2018.03422        -7.84343         5.54378
     2018.03696       -17.57367         5.37408
     2018.03969        -7.82390         5.43267
     2018.04243       -10.91313         5.55186
     2018.04517       -13.81537         5.43772
     2018.04791       -11.40260         5.71248
     2018.05065       -14.12884         5.37610
     2018.05338        -4.21507         5.50944
     2018.05612        -5.35131         5.59126
     2018.05886        -0.23054         5.53873
     2018.06160        -8.70377         5.42559
     2018.06433        -5.15701         5.47307
     2018.06707        -3.93624         5.61045
     2018.06981        -9.70648         5.42660
     2018.07255        -4.33271         5.49833
     2018.07529       -18.44194         5.60035
     2018.07802        -7.46218         5.57611
     2018.08076        -7.76941         5.55085
     2018.08350        -9.54165         5.47206
     2018.08624       -12.40188         5.41044
     2018.08898        -2.03912         5.58722
     2018.09171        -4.22035         5.63369
     2018.09445        -5.78058         5.49530
     2018.09719        -7.04982         8.83490
     2018.09993       -17.25005         5.43166
     2018.10266       -14.30629         5.45590
     2018.10540        -1.39552         5.78117
     2018.10814       -13.36975         5.53166
     2018.11088       -11.74899         5.38923
     2018.11362       -11.71222         5.45590
     2018.11635       -11.75046         5.52358
     2018.11909       -11.18369         5.77915
     2018.12183        -5.64293         5.57106
     2018.12457        -8.96916         5.43166
     2018.12731        -7.93039         5.45085
     2018.13004        -0.12663         5.60338
     2018.13278        -4.15986         5.69127
     2018.13552        -3.44410         5.41650
     2018.13826        -9.28833         5.43368
     2018.14099        -9.35357         5.53065
     2018.14373       -14.30280         5.43166
     2018.14647        -8.98403         5.76501
     2018.14921        -6.63327         5.54277
     2018.15195         1.99950         5.52055
     2018.15468        -8.22974         5.42256
     2018.15742        -3.86197         5.46499
     2018.16016         0.34780         5.52459
     2018.16290        -6.85644         5.56601
     2018.16564        -9.49267         5.64480
     2018.16837       -13.50791         5.39428
     2018.17111       -15.71714         5.42862
     2018.17385       -12.72638         5.51550
     2018.17659        -9.05161         5.47610
     2018.17932       -11.86884         5.49328
     2018.18206         0.92592         5.64177
     2018.18480        -2.54731         5.54883
     2018.18754        -7.86455         5.47004
     2018.19028       -10.19378         5.45388
     2018.19301        -9.98201         5.46903
     2018.19575        -2.92425         5.47509
     2018.19849        -2.77048         5.58217
     2018.20123        -2.86472         6.01654
     2018.20397         0.39805         5.91754
     2018.20670        -4.68819         5.44075
     2018.20944        -5.28942         5.42256
     2018.21218       -13.10765         6.04280
     2018.21492       -21.15089         5.45792
     2018.21765       -10.54212         5.39832
     2018.22039        -6.20036         5.47307
     2018.22313        -8.26859         5.36195
     2018.22587       -11.41683         5.36296
     2018.22861       -17.70806         5.33771
     2018.23134       -12.43829         5.30235
     2018.23408        -4.08553         5.43368
     2018.23682       -13.10676         5.30437
     2018.23956       -13.45800         5.31347
     2018.24230        -6.22223         5.40135
     2018.24503        -9.84146         5.37307
     2018.24777         3.36230         5.53469
     2018.25051        -5.98393         5.33670
     2018.25325       -18.57017         7.56209
     2018.25598        -8.23840         5.40236
     2018.25872        -5.83964         5.50136
     2018.26146        -8.89987         5.54075
     2018.26420        -0.78410         6.26302
     2018.26694       -10.36034         5.27003
     2018.26967       -12.03157         5.36195
     2018.27161       -14.36132         8.87632
     2018.31443       -16.55370         9.76526
     2018.31622        -6.99055         5.28922
     2018.31895        -4.33179         5.46600
     2018.32169        -5.35202         5.36599
     2018.32443        -6.59526         5.32256
     2018.32717       -12.35149         5.32054
     2018.32991        -1.96672         5.50439
     2018.33264        -8.84896         5.32963
     2018.33538       -11.86419         5.49530
     2018.33692         0.79280        19.59517
     2018.34095        -6.91860         5.49631
     2018.34360        -8.02290         5.29831
     2018.34633        -7.20613         5.33771
     2018.34907        -6.55636         5.28720
     2018.35181         1.42840         5.44984
     2018.35455        -0.42483         5.34175
     2018.35728        -5.80807         5.33569
     2018.36002        -4.72130         5.60439
     2018.36276        -4.39653         5.88522
     2018.36550         2.08223         5.45388
     2018.36824         0.86400         5.81249
     2018.37097        -3.92424         5.27104
     2018.37371        -6.84747         5.25286
     2018.37645        -9.25171         5.45489
     2018.37919        -4.55194         5.31751
     2018.38193        -1.19617         5.33165
     2018.38466         0.66359         5.28417
     2018.38740         0.44736         5.29326
     2018.39014         0.58112         5.35185
     2018.39288         0.68689         5.50237
     2018.39561        10.10565         5.59732
     2018.39836         1.90342         5.49631
     2018.40109         0.40619         5.70541
     2018.40383        -3.64504         8.17930
     2018.40657         3.57572         5.45186
     2018.40930         5.56348         5.43368
     2018.41204         6.42525         6.00038
     2018.41478        -4.54498         5.63975
     2018.41752        -8.57022         6.41354
     2018.42026        -4.25545         5.53166
     2018.42299        -2.10269         5.35387
     2018.42573         5.79008         5.43065
     2018.42847         3.26584         5.36195
     2018.43121        -1.71139         5.29629
     2018.43394         1.17638         5.32761
     2018.43668         0.04514         5.32761
     2018.43942         1.15491         5.36397
     2018.44216         0.26267         5.32256
     2018.44490         0.31844         5.35791
     2018.44763         7.47621         5.45893
     2018.45037         1.21397         5.32357
     2018.45311         4.26574         6.61254
     2018.45585         0.67550         5.42458
     2018.45859        -0.50873         5.33165
     2018.46132        -1.46797         5.33266
     2018.46406        -1.67320         5.29831
     2018.46680         0.97157         5.32256
     2018.46954        -0.74167         5.39125
     2018.47227         0.35610         5.44883
     2018.47501         3.22986         5.31650
     2018.47775         1.87263         5.36195
     2018.48049        12.58839         5.53368
     2018.48323         3.71616         5.33569
     2018.48596        -4.73207         5.34983
     2018.48870        -1.95131         5.98624
     2018.49154        -8.53847        10.06831
     2018.49418         9.50822         5.51146
     2018.49692         8.21599         5.50136
     2018.49965         0.83776         5.37913
     2018.50239        -2.27048         5.32660
     2018.50513        -4.12571         5.33771
     2018.50787        -0.22695         5.34074
     2018.51060         3.71982         5.45085
     2018.51334        -3.39042         5.30639
     2018.51608         2.07135         5.38721
     2018.51882        -4.91388         5.36700
     2018.52156        -1.96212         5.30336
     2018.52429         1.05765         5.35488
     2018.52703         1.78341         5.63773
     2018.52977         7.48218         6.58425
     2018.53251         1.48195         5.49126
     2018.53525         2.87471         5.30741
     2018.53798         2.13748         8.28436
     2018.54072         4.01924         5.30033
     2018.54346         1.73301         5.75693
     2018.54620         5.81677         5.41650
     2018.54893        -1.93746         5.33064
     2018.55167         1.41731         5.38822
     2018.55441         1.47107         5.27104
     2018.55715        -1.84516         5.35892
     2018.55989        -0.38140         5.52358
     2018.56262         5.52537         6.29535
     2018.56536        -6.80687         5.77511
     2018.56810         2.25990         5.29124
     2018.57084         0.87167         5.30336
     2018.57357         2.55743         5.49732
     2018.57631         0.50620         5.57510
     2018.57905        -1.38704         5.59732
     2018.58179         4.36873         5.52863
     2018.58453       -12.84750         5.47711
     2018.58726         1.23026         5.31650
     2018.59000         1.29403         5.29831
     2018.59274         4.59579         5.31650
     2018.59548         3.37056         5.30235
     2018.59822         9.45232         5.39125
     2018.60095         4.55109         5.30842
     2018.60369         4.83486         5.38014
     2018.60643         3.34962         5.38216
     2018.60917         5.33539         5.26599
     2018.61190         3.14815         5.27003
     2018.61464         2.31692         5.24781
     2018.61738         2.80869         5.34175
     2018.62012         2.07445         5.35084
     2018.62286         9.28122         5.53166
     2018.62559        -3.69402         6.45798
     2018.62833         0.17575         5.30033
     2018.63107         1.01851         5.32054
     2018.63381         1.92928         5.49227
     2018.63655         3.58905         5.29932
     2018.63928         0.25681         5.55591
     2018.64202        15.56158         5.81754
     2018.64476         7.38434         5.41145
     2018.64750         2.73911         5.28922
     2018.65023         6.82787         5.50035
     2018.65297         8.40764         5.31347
     2018.65571         5.52041         5.50035
     2018.65845        10.95617         5.39529
     2018.66119         8.38694         5.46701
     2018.66392        -0.58330         5.32862
     2018.66666         5.19747         5.41145
     2018.66940         2.23524         5.33872
     2018.67214         4.13600         5.35993
     2018.67488         1.43577         6.42162
     2018.67761         6.75353         5.36296
     2018.68035         2.54430         5.44277
     2018.68309        -0.19294         5.47004
     2018.68583        12.25283         5.53267
     2018.68856         7.64560         5.39024
     2018.69130         9.97436         5.50439
     2018.69404         7.65613         5.53469
     2018.69678        -1.16011         5.79026
     2018.69952        -1.17634         5.33266
     2018.70225        -7.69157         5.84481
     2018.70499        -3.61481         5.30235
     2018.70773         5.76196         5.45893
     2018.71047         1.21172         5.34781
     2018.71321        -3.13051         5.50439
     2018.71594        -1.91675         5.41145
     2018.71868         0.21802         5.32256
     2018.72142         0.34779         5.38014
     2018.72416         5.43955         5.52762
     2018.72689         2.68532         5.48014
     2018.72963         2.05808         5.38216
     2018.73237        -5.22415         5.30437
     2018.73511        -4.74239         5.34276
     2018.73785       -11.00062         9.51474
     2018.74058        -5.39085         6.75295
     2018.74332         1.07491         5.38317
     2018.74606        -3.71732         5.72460
     2018.74880         3.37144         5.34276
     2018.75154        -3.45579         5.38519
     2018.75427         1.65098         5.37105
     2018.75701         0.34674         5.46802
     2018.75975        -2.69649         5.32256
     2018.76249        -1.03473         5.30336
     2018.76522        -3.74396         5.46701
     2018.76796         5.47980         5.34983
     2018.77070        11.03357         5.40337
     2018.77344         3.74034         6.70244
     2018.77618        -0.72390         5.33569
     2018.77891         0.07887         5.33165
     2018.78165        -2.14737         5.41044
     2018.78439        -0.53860         5.61247
     2018.78713        -0.79983         5.32761
     2018.78987       -10.53907         5.42357
     2018.79260        -3.79230         5.34377
     2018.79534         2.71846         6.07008
     2018.79813        -5.15374         5.90239
     2018.80082         2.66799         5.42054
     2018.80355        -0.98924         5.28922
     2018.80629         4.88953         5.48317
     2018.80903        -1.80571         5.41246
     2018.81145         0.36086         6.49839
     2018.81506        -0.07382        11.89469
     2018.81727         8.09460         5.69834
     2018.81998         1.40035         5.40236
     2018.82272         4.78912         5.46600
     2018.82525        -0.55825         6.70244
     2018.82820        -1.39334         5.90744
     2018.83093         2.33242         5.29528
     2018.83367         3.47818         5.44984
     2018.83641        15.95195         5.56399
     2018.83915         3.66372         5.33670
     2018.84188         2.68548         5.48721
     2018.84462        14.69125         5.49833
     2018.84736         0.62401         5.33165
     2018.85010        -2.77722         5.31549
     2018.85284        -8.80746         5.39630
     2018.85557        -9.42969         5.67308
     2018.85831         1.94008        11.38456
     2018.86105        -3.67916         7.91363
     2018.86377        -1.56440        10.53501
     2018.86653        11.86237         7.97323
     2018.86926        -2.53586         7.02772
     2018.87200        -2.43609         5.39832
     2018.87474         3.41167         5.51146
     2018.87748        -5.52356         5.44277
     2018.88021        -3.47980         5.46095
     2018.88296        -3.09903         5.49631
     2018.88569        -3.31227         5.43368
     2018.88843         6.96950         5.55692
     2018.89117        10.25627         5.55186
     2018.89390         2.79203         5.46095
     2018.89664        -7.60720         5.58015
     2018.89938        -1.31744         5.57409
     2018.90212        -1.49067         5.43873
     2018.90485         8.53809         5.55692
     2018.90759         1.97086         5.45994
     2018.91033         0.51763         5.38418
     2018.91307        -1.54961         7.05398
     2018.91581         3.83216         5.43873
     2018.91854         0.94892         5.37711
     2018.92128        -5.03531         5.41044
     2018.92402         0.91146         5.39125
     2018.92676         2.12522         5.46398
     2018.92950         3.32399         5.44580
     2018.93223        -1.27425         5.52156
     2018.93497         3.16652         5.41751
     2018.93771        -1.47472         5.58217
     2018.94045         6.17905         5.47105
     2018.94318         3.39682         5.39125
     2018.94592         8.01958         5.41246
     2018.94866         3.42735         5.46903
     2018.95140        13.35311         5.68622
     2018.95414        12.52288         5.55085
     2018.95687         1.76265         5.38418
     2018.95961         5.50141         5.37509
     2018.96235         6.59418         5.47812
     2018.96509         5.98294         5.53368
     2018.96783        -6.02529         5.48418
     2018.97056         2.83947         5.45691
     2018.97330        -3.39176         5.34983
     2018.97605         1.27101         5.45489
     2018.97878        -1.03823         5.52661
     2018.98151       -14.19146         7.01862
     2018.98425         6.59330         5.65692
     2018.98699        -7.72693         5.51449
     2018.98973        -4.73917         5.45590
     2018.99247        -1.41740         5.50035
     2018.99520        -0.78863         5.47105
     2018.99794       -15.06787         5.47408
     2019.00068        -8.81110         5.48216
     2019.00342        -6.95734         5.42559
     2019.00616        -3.38857         5.50035
     2019.00889         1.60620         5.57308
     2019.01164        -6.54103         8.40659
     2019.01437        -3.83327         8.53690
     2019.01711         1.06750         8.71873
     2019.01988        -3.26972         7.40148
     2019.02258        -4.43198         5.38115
     2019.02532        -8.52421         5.42155
     2019.02806        -6.25444         5.51146
     2019.03005       -17.84416         8.48639
     2019.03901        -6.34338         5.31953
     2019.04061       -17.07435        12.92001
     2019.04819         0.32354        10.69360
     2019.04945        -0.56865         7.27420
     2019.05914       -12.00239        10.93907
     2019.06091        -0.96625         5.49732
     2019.06365        -3.10549         5.43671
     2019.06639        -0.96172         5.47812
     2019.06913       -11.43196         5.47105
     2019.07186       -15.19519         5.46196
     2019.07460        -9.90943         5.35185
     2019.07734        -4.42366         5.32054
     2019.08008        -0.50889         5.41852
     2019.08282        -6.39113         5.50944
     2019.08555        -2.14236         5.30437
     2019.08829        -3.14260         5.31044
     2019.09103         0.08417         5.32054
     2019.09377        -0.86206         5.27609
     2019.09650         1.53870         5.36397
     2019.09924        -2.09553         5.35084
     2019.10198       -10.39877         5.30842
     2019.10472        -3.04600         5.36903
     2019.10746        -2.61124         5.35387
     2019.11019        -2.78747         5.34377
     2019.11293        -0.61670         5.45994
     2019.11567        -9.77194         5.53974
     2019.11841         4.18383         5.28316
     2019.12115         8.70459         5.47812
     2019.12388         0.43936         5.46600
     2019.12662        -2.09887         5.31953
     2019.12936         1.70389         5.35185
     2019.13210        -3.65634         5.34478
     2019.13483        -4.10158         5.37408
     2019.13757        -2.68981         5.39226
     2019.14031        -6.80105         5.37812
     2019.14305        -1.27428         5.46903
     2019.14579        -3.54651         5.37509
     2019.14852        -1.26275         5.37711
     2019.15126         1.74602         5.31852
     2019.15400        -2.94222         5.42458
     2019.15674        -1.12045         5.34478
     2019.15948         0.19831         5.70541
     2019.16221        -7.53792         5.57914
     2019.16495        -6.19515         5.26498
     2019.16769       -10.00239         5.46600
     2019.17043        -8.44162         5.35993
     2019.17316        -5.06586         5.41044
     2019.17590        -2.66409         5.33872
     2019.17864        -0.35032         5.33165
     2019.18138        -3.33256         5.30639
     2019.18412       -11.84279         5.27407
     2019.18685        -4.94203         5.49833
     2019.18959        -5.98526         5.36498
     2019.19233        -2.35350         5.36700
     2019.19507        -2.08673         5.31347
     2019.19780        -9.75596         5.35690
     2019.20054        -6.77720         5.46398
     2019.20328       -13.12543         5.32256
     2019.20602       -14.90267         5.32862
     2019.20876       -14.69790         5.31953
     2019.21149        -7.94813         5.30842
     2019.21423        -3.94337         5.31953
     2019.21697        -4.25860         5.33569
     2019.21971        -3.66984         5.52257
     2019.22245        -4.21907         5.31347
     2019.22518       -10.47731         5.32155
     2019.22792        -7.96154         5.28215
     2019.23066        -9.31577         5.42357
     2019.23340        -9.27001         5.28922
     2019.23613        -7.60424         5.31044
     2019.23887       -10.39248         5.33973
     2019.24161       -14.73371         5.42964
     2019.24435       -14.08795         5.43368
     2019.24709        -8.11218         5.41246
     2019.24982        -4.59141         5.36397
     2019.25256        -6.47065         6.66406
     2019.25530        -7.75688         5.35690
     2019.25804        -7.48512         5.45590
     2019.26078        -0.62435         5.36599
     2019.26351        -3.17758         5.48620
     2019.26625        -9.21482         5.34377
     2019.26899        -4.92605         5.42964
     2019.27173         0.15171         5.59328
     2019.27446        -4.24052         5.35387
     2019.27720        -3.64076         5.47408
     2019.27994         6.17701         5.36801
     2019.28268        -3.35222         5.40842
     2019.28542         3.13654         5.32458
     2019.28815        -4.15769         5.34074
     2019.29089        -4.36193         5.41044
     2019.29363        -3.02616         5.43671
     2019.29637         1.38161         5.39731
     2019.29911         0.31837         5.31448
     2019.30184        -5.46986         5.31852
     2019.30458        -4.21210         5.40337
     2019.30732        -0.24033         5.40438
     2019.31006        -1.90957         5.38014
     2019.31279        -6.32480         5.35993
     2019.31553         2.38697         5.32963
     2019.31827        -6.54027         5.42660
     2019.32101        -3.75250         5.35690
     2019.32375       -12.08474         5.31751
     2019.32648        -9.77197        15.05751
     2019.32922        -8.02921         5.26397
     2019.33196        -8.44244         5.44176
     2019.33470        -3.13167         5.49934
     2019.33744        -3.29891         5.34377
     2019.34017        -4.25814         5.39428
     2019.34291        -2.19538         5.37105
     2019.34565        -3.56761         6.05493
     2019.34839        -7.22584         5.40438
     2019.35112        -2.90108         5.87310
     2019.35386        -4.85731         5.40539
     2019.35660        -1.11555         5.33266
     2019.35934        -1.37278         5.44378
     2019.36208        -0.41902         5.36801
     2019.36481         2.07575         5.57409
     2019.36755        -2.81048         5.39731
     2019.37029        -4.75972         5.34983
     2019.37303         0.98305         5.37105
     2019.37577        -0.06319         5.43772
     2019.37850        -2.60342         5.32963
     2019.38124         3.88435         5.38721
     2019.38398         6.11811         5.49833
     2019.38672        -4.99112         7.09540
     2019.38945        -3.36736         5.43873
     2019.39219         3.28941         5.45590
     2019.39493         0.53717         5.37105
     2019.39767         2.57194         5.35387
     2019.40041        -6.46129         5.36903
     2019.40314         2.19347         5.32660
     2019.40588         6.79224         5.35488
     2019.40862         2.97700         5.32761
     2019.41136         1.51377         5.38923
     2019.41410         5.69854         5.43570
     2019.41683         1.07130         5.39630
     2019.41957         7.88907         5.48317
     2019.42231         3.34283         5.51045
     2019.42505         5.64260         5.61146
     2019.42778         4.98536         5.54580
     2019.43052         7.05213         5.36296
     2019.43326        -2.18910         5.32963
     2019.43600        -0.88434         5.38115
     2019.43874        -4.08757         5.49732
     2019.44147        -6.52481         5.47004
     2019.44421         1.30596         5.51146
     2019.44695        -0.79628         5.60338
     2019.44969         0.06849         5.51247
     2019.45243         2.31126         5.44075
     2019.45516        -3.44198         5.46196
     2019.45790         2.41479         5.53772
     2019.46064         9.89955         5.73774
     2019.46338         3.62432         5.81249
     2019.46611         6.36209         5.72056
     2019.46885         6.04285         5.71147
     2019.47159         1.84462         5.46095
     2019.47433         3.56238         5.45994
     2019.47707         3.48215         5.48216
     2019.47980        -2.76109         5.49328
     2019.48254        -1.48432         5.55186
     2019.48528         5.51945         5.49024
     2019.48802        -2.62979         5.52560
     2019.49076        -4.79402         5.36903
     2019.49349        -3.43126         5.34882
     2019.49623        -2.34549         5.36094
     2019.49897         2.84328         5.45994
     2019.50171         2.87404         5.39125
     2019.50444        -3.48419         5.34882
     2019.50718        -0.48343         5.42862
     2019.50992        -3.72666         5.29326
     2019.51266        -4.56290         5.34882
     2019.51540         1.17787         5.35488
     2019.51813        -1.66636         5.34175
     2019.52087         0.75240         5.57813
     2019.52361         2.91417         5.62359
     2019.52635        -6.46607         5.32054
     2019.52908        -0.09230         5.58419
     2019.53182        -5.38954         5.64076
     2019.53456        -0.14277         5.50237
     2019.53730         0.02600         5.50439
     2019.54004         0.15376         7.67725
     2019.54277         2.47353         5.48822
     2019.54551        -4.18771         5.67511
     2019.54825        -0.50194         5.37206
     2019.55099         2.70183         5.49024
     2019.55373         2.74159         5.61450
     2019.55646         4.51036         5.45792
     2019.55920        -3.48188         5.72460
     2019.56194         1.06289         5.39933
     2019.56468        -0.95235         5.49126
     2019.56741         3.76042         5.47913
     2019.57015        -2.72281         5.29023
     2019.57289         1.60895         5.71753
     2019.57563         8.87672         5.60843
     2019.57837         1.91448         5.49833
     2019.58110         0.11425         5.37610
     2019.58384        13.93602         5.82360
     2019.58658        -2.96522         5.36498
     2019.58932         5.15855         5.44277
     2019.59206         8.36731         5.46398
     2019.59479         3.10808         5.37509
     2019.59753         0.54084         5.53772
     2019.60027         6.14261         5.54479
     2019.60301         3.18838         5.42054
     2019.60574        -0.70186         5.63369
     2019.60848        -1.97009         5.61450
     2019.61122        -1.68133         5.40842
     2019.61396         1.76844         5.46701
     2019.61670         4.90020         5.47105
     2019.61943         0.87897         5.40337
     2019.62217         5.83174         5.53166
     2019.62491         3.48050         5.36094
     2019.62765         4.43027         5.91350
     2019.62925        30.62130        13.51499
     2019.63435        30.77959        17.43948
     2019.63586        18.08957         5.91552
     2019.63860        -2.34967         5.44176
     2019.64134        16.46310         5.69127
     2019.64407         5.96286         5.48519
     2019.64681        -0.25637         5.35690
     2019.64955         1.91539         5.42761
     2019.65229         3.98116         5.48014
     2019.65503         3.27893         5.43469
     2019.65776         0.99769         5.52055
     2019.66050         6.24646         5.58823
     2019.66324         7.22622         5.53974
     2019.66598        -2.39801         5.39428
     2019.66872        -1.34224         5.34276
     2019.67145        -3.58748         5.49631
     2019.67419         6.84429         5.58924
     2019.67693        -3.41195         5.48822
     2019.67967         1.17782         5.53570
     2019.68240        -3.98742         5.43974
     2019.68514         7.77735         5.54681
     2019.68788         3.07712         5.43671
     2019.69062        -2.50612         5.47610
     2019.69336        -4.39435         5.44782
     2019.69609         9.02741         5.53065
     2019.69883         3.19518         5.60035
     2019.70157         2.93594         5.45691
     2019.70431         8.24971         5.54782
     2019.70705        -4.94452         5.36296
     2019.70978         7.60424         5.37004
     2019.71252        -0.20999         5.37408
     2019.71526        -1.93123         5.34478
     2019.71800         1.22154         5.56096
     2019.72073        -1.37369         5.61146
     2019.72347        -4.30593         5.75491
     2019.72621         8.54184         5.67409
     2019.72895         8.63660         5.48519
     2019.73169         4.41737         5.41145
     2019.73442         7.12113         5.60742
     2019.73716         9.43590         5.54580
     2019.73990         8.44467         5.53368
     2019.74264        -1.44457         5.40943
     2019.74538         0.09520         5.32256
     2019.74811         3.35696         5.44984
     2019.75085         3.22973         5.51146
     2019.75359         5.37650         5.66298
     2019.75633         1.04726         5.47812
     2019.75906         6.02003         5.38216
     2019.76180        -0.77721         5.32256
     2019.76454         5.96256         5.55894
     2019.76728        10.03632         5.55186
     2019.77002         4.90609         5.53974
     2019.77275         0.30886         5.51550
     2019.77549         2.97762         5.49126
     2019.77823         2.77539         5.42761
     2019.78097         6.33015         5.44277
     2019.78371         1.87492         5.44580
     2019.78644         4.13868         5.56399
     2019.78895         6.54730         6.51051
     2019.79283        29.01880         9.39554
     2019.79466        16.81298         5.54984
     2019.79739         8.56475         5.48721
     2019.80013         5.34151         5.48620
     2019.80287         8.72828         5.45388
     2019.80561         8.56805         5.91956
     2019.80835        -1.66319         5.91855
     2019.81108         3.99758         5.48620
     2019.81382        10.04934         5.68117
     2019.81656        -0.28989         5.50944
     2019.81930         2.80387         5.52358
     2019.82203        -1.21736         5.45792
     2019.82477        -2.66159         5.45287
     2019.82751         0.08017         5.55186
     2019.83025         3.66794         6.90246
     2019.83299        -0.81630         5.60035
     2019.83572         1.45547         5.53166
     2019.83846         3.09924         5.46499
     2019.84120        -0.57700         5.47509
     2019.84394         5.41177         5.68521
     2019.84668        -7.43147         5.50540
     2019.84941        -1.31470         5.47610
     2019.85215         0.68506         5.53267
     2019.85489        10.51983         5.60843
     2019.85763         2.90660         5.46398
     2019.86036        -1.43764         5.50540
     2019.86310         1.83113         5.54176
     2019.86584        11.02189         5.61348
     2019.86858         4.74166         5.52964
     2019.87132        14.21042         5.70036
     2019.87405         5.96819         5.41953
     2019.87678        12.07095         5.76602
     2019.87953         1.42072         5.57611
     2019.88227        10.37249         5.50641
     2019.88501         3.13925         5.72258
     2019.88774        -0.05398         5.72965
     2019.89048         6.43879         5.49732
     2019.89322         5.71755         5.43469
     2019.89596         2.24532         5.65995
     2019.89869         0.75808         5.42964
     2019.90143         1.00785         5.42761
     2019.90417         3.38161         5.39327
     2019.90691         0.47438         5.62359
     2019.90965         3.30615         5.70844
     2019.91238         3.47591         5.39832
     2019.91512         4.86668         5.41953
     2019.91786        12.74444         5.45590
     2019.92060         3.80821         5.38014
     2019.92334         8.39498         5.44378
     2019.92607         4.59974         5.46701
     2019.92877         2.92748         5.51449
     2019.93155         6.73627         5.43166
     2019.93429         4.13104         5.38418
     2019.93702         0.20180         5.43368
     2019.93976         2.49557         5.66096
     2019.94250        -1.47566         5.43267
     2019.94524        -0.35590         5.57005
     2019.94798        -0.86113         5.91249
     2019.95071        -0.50037        10.13599
     2019.95345        -1.78960         5.81148
     2019.95619         7.99616         5.47913
     2019.95893        -1.77507         5.51651
     2019.96167         0.95670         5.49934
     2019.96440         3.20446         5.92159
     2019.96714        -1.73077         5.57005
     2019.96988         0.87199         5.51247
     2019.97262        -5.42324         5.39125
     2019.97535        -5.04147         5.38317
     2019.97809        -2.99371         5.40741
     2019.98083        -2.75894         5.46297
     2019.98357        -8.64418         5.46297
     2019.98631         0.01259         5.47105
     2019.98904        -3.29165         5.45792
     2019.99178         0.58612         5.38216
     2019.99452         5.27489         5.52863
     2019.99726         6.54365         5.47913
     2020.03011        -3.57116         5.45085
     2020.03285       -18.36939         5.38317
     2020.03559       -12.55463         5.33872
     2020.04106        -3.13110         5.63167
     2020.04380        -8.19633         5.51348
     2020.04654        -2.26656         5.30842
     2020.04928        -6.44380         5.29528
     2020.05201        -4.96203         5.31145
     2020.05475        -5.17027         5.38822
     2020.05749        -4.69950         5.40438
     2020.06023         0.09727         5.45489
     2020.06297         1.88403         5.52257
     2020.06519        -3.81453         6.95801
     2020.07218        -6.71403        10.51177
     2020.07392         5.42809         5.40842
     2020.07666         4.63886         5.45388
     2020.07939        -8.45737         5.37610
     2020.08213        -0.27461         5.46701
     2020.08487       -12.20684         5.43873
     2020.09582         3.93822         5.45691
     2020.09856         2.06899         5.46499
     2020.10130         2.95375         5.42559
     2020.10403         5.56552         5.43065
     2020.10677        -5.35872         5.47408
     2020.10911        -2.29020         6.59638
     2020.11346         0.68660        15.89595
     2020.11498         0.04058         5.32660
     2020.11772         1.76235         5.55186
     2020.12046         4.85211         5.49833
     2020.12320        -4.63712         5.33872
     2020.12594         0.69064         5.40842
     2020.12867        -3.46659         5.39630
     2020.13141        -9.00982         5.35589
     2020.13415        -6.89906         5.33468
     2020.13689        -7.51129         5.44984
     2020.13963        -1.86853         5.40539
     2020.14236        -3.22476         5.45893
     2020.14510         1.58001         5.47408
     2020.14784       -11.36823         5.42559
     2020.15058        -4.77446         5.37206
     2020.15331        -2.95170         5.37509
     2020.15605        -0.59293         5.35286
     2020.15879        -4.06017         5.50338
     2020.16153         5.89460         5.53166
     2020.16427         0.71937         5.36903
     2020.69015         5.43054         5.92664
     2020.69267         4.75017         5.58823
     2020.69490         5.59360         7.45299
     2020.70166         5.19896         8.06010
     2020.70362        -2.19277         5.79026
     2020.70636        10.25000         6.00341
     2020.70910         5.96576         6.15796
     2020.71184         0.22953         5.58722
     2020.71418         8.27104         7.05398
     2020.94304        25.35965        20.16087
     2020.94421        -0.78260         6.34686
     2021.46216         2.43546         5.89229
     2021.46475         3.66512         5.52257
     2021.46718         1.82469         7.24389
     2021.47035         1.95374         5.83471
     2021.47296         6.04542         6.49435
     2021.47570         5.55619         6.39636
     2021.47843        -1.77405         5.48620
     2021.48117        -2.84628         5.53974
     2021.48391        -4.04952         5.47408
     2021.48665        -3.24075         5.53469
     2021.48939         1.77602         5.52661
     2021.49195         0.74867         6.41758
     2021.51572         8.22500        55.93181
     2021.51908         0.35617         6.86811
     2021.52231         0.66225         5.77612
     2021.52498        -3.42803         5.54580
     2021.52772         1.59474         5.45186
     2021.52959        -0.47405         9.28038
     2021.53358        -1.14448         7.38329
     2021.53593        -4.17696         5.97411
     2021.53849        11.67068         6.67618
     2021.54151         0.60363         5.82865
     2021.54414        -3.09967         5.58419
     2021.54642         0.04580         6.81558
     2021.54904        -0.85451        10.65825
     2021.55879         8.28278        16.64953
     2021.55949        -2.05577        14.41606
     2021.56231        23.96305        26.93402
     2021.56622         0.55757         5.77006
     2021.56878         1.14522         8.41063
     2021.57152        -2.77701         5.52762
     2021.57426        -4.82124         5.53772
     2021.57700         6.52552         5.67308
     2021.57974         0.29929         5.51045
     2021.58247         1.78505         5.50035
     2021.58521        -3.55618         5.71652
     2021.58795        -4.19941         5.60641
     2021.59069        -3.37165         5.63268
     2021.59342        -0.98688         5.64581
     2021.59611        13.55985         8.63489
     2021.59908         4.84977         7.26611
     2021.60164         4.37641         6.31757
     2021.60438         5.04818         6.67416
     2021.60711         8.92495         5.62763
     2021.60953         0.28250         7.73382
     2021.61361        10.24314        10.51985
     2021.61533        -2.74376         5.89330
     2021.61801        -7.11503         5.65086
     2021.62002        -0.58073         9.80264
     2021.62559        -8.63214        13.70793
     2021.64014        -8.47075       112.36769
     2021.64367         6.25152        10.17842
     2021.64544         3.68667         5.99533
     2021.64818         7.29843         5.50237
     2021.65023         3.48776         7.80150
     2021.65373        -2.85299         7.41057
     2021.65639        -2.66027         7.19439
     2021.65896        -0.96961         5.81552
     2021.82358         6.25456         6.40444
     2021.87373        22.17990        18.41328
     2021.87434         3.63230        12.33209
     2022.11200         7.27058        13.47459
     2022.11362         0.88862         8.48740
     2022.11635        -4.79061         5.46903
     2022.11858        -5.60018         7.16207
     2022.12579        14.71047        21.52257
     2022.12731        -8.62455         5.54782
     2022.13004        -6.38878         5.63571
     2022.13280        -8.91401         5.51954
     2022.13552        -4.24425         5.53974
     2022.15670         4.38541         7.91464
     2022.16124        -6.04566        12.42402
     2022.16290         6.31641         5.66904
     2022.16564        -1.66883         5.59934
     2022.16837         9.03194        23.35400
     2022.17111        -6.85230         5.56601
     2022.17385        -5.89153         5.47004
     2022.17607        -2.99710         7.48330
     2022.20674        -6.51932         5.79936
     2022.20944         0.27842         5.63066
     2022.21218         4.90219         5.65894
     2022.21492        -8.80504         5.64884
     2022.21765        -1.89128         5.54681
     2022.22039         0.07449         5.81653
     2022.22313         5.89825         5.85794
     2022.22587        -8.23498         5.70541
     2022.22861        -2.49522         5.76905
     2022.23134         1.15055         5.61854
     2022.23408         1.25232         5.50237
     2022.23682        -0.80992         5.64177
     2022.23956        -5.82115         5.54782
     2022.24230         2.92461         5.78016
     2022.24492         0.09331         5.78319
     2022.24781         2.21017         7.83080
     2022.24948       -11.92375        11.31081
     2022.25709        13.95815        15.21308
     2022.25764        -7.04049        11.80377
     2022.26513        -5.70766        10.68552
     2022.26602        -7.36108         9.52080
     2022.31986       -21.33936        10.60471
     2022.32169        -2.03518         5.66904
     2022.32318       -15.08522        19.72448
     2022.54711        -5.85779         9.23189
     2022.54893         0.28338         5.48115
     2022.55167         1.39615         5.58520
     2022.55441         4.08492         5.54176
     2022.55589        23.39087        23.63684
     2022.66495        25.79021        11.38658
     2022.66666        15.70131         5.41246
     2022.66940        14.68808         5.37610
     2022.67214         7.77785         5.43974
     2022.67488        13.37161         5.48923
     2022.67761        22.75838         5.52156
     2022.68035        15.02214         5.40236
     2022.68201         6.02721        12.39674
     2022.72524        11.94609        13.21396
     2022.72689        20.27816         5.54883
     2022.72963        15.88693         5.41953
     2022.73237        14.47469         5.39731
     2022.73494        11.16535         5.65894
