# ================= DQRFIT RESULTS ================
# INPUT FILE: series/BCRK.rad
# OUTPUT: LDETRENDED
# FILTER FUNCTION: f(t)
# f(t)=+line(t)+annual(t)
# line(t)=+P 1+P 2*t
# annual(t)=+P 3*sin(2*pi*t+P 4)
# heav(t)=(t<0?0:1)
# TOTAL OBSERVATIONS MTOT= 4156
# INITIAL TIME INTERVAL= 2022.7488 - 2010.6530 = 12.0958
# TOTAL OBSERVATIONS AFTER PREFILTER M= 4132
# TIME-SPAN= 2022.7488 - 2010.6530 = 12.0958
# OBSERVATIONS: USED M=  4132 REJECTED MTOT-M=    24 %USED=   99.4225
# N=  4 PARAMETERS
# MAXSIG= 175.00000
# MAXRES=  35.31564
# SCALE FACTOR FOR LENGTHS: SCL=  10.00000
# SCALE FACTOR FOR SIGMAS: SCLSIG=   1.00000
# CHI^2=   8140.956 DOF=  4128 CHI^2/DOF=   1.97213
# RMS=      8.344 SDEV=      8.345 MEAN=   -0.02584
#  P #       PARAMETER +-    SIGMA %error PARAMETER NAME
# P 1 =     -3333.65291 +-   76.669   2.30 YZERO                              
# P 2 =         1.65625 +-    0.038   2.30 SLOPE                              
# P 3 =         4.88100 +-    0.183   3.76 ANNUAL AMPLITUDE                   
# P 4 =         2.60630 +-    0.046   1.75 ANNUAL PHASE                       
#       T            LDETRENDED       SIG_OBS
     2010.65297        14.83247         8.58745
     2010.65571        16.15694         8.28131
     2010.65845         9.99140         8.17458
     2010.66119         8.90987         8.25041
     2010.66392        12.80733         8.15913
     2010.66666        10.67580         8.20969
     2010.66940        12.53826         8.19003
     2010.67214        10.88073         8.10858
     2010.67488        16.70019         8.20407
     2010.67761        15.10166         8.12824
     2010.68035         7.39212         8.12824
     2010.68309         6.94059         8.32765
     2010.68583        19.43505         8.23216
     2010.68856         5.89352         8.19565
     2010.69130         8.72799         8.09453
     2010.69404         5.56745         8.43017
     2010.69678         7.11892         8.21390
     2010.69952         6.90938         8.11981
     2010.70225         5.45285         8.22935
     2010.70499         9.96231         8.17598
     2010.70773         7.46178         8.06926
     2010.71047         7.13724         8.16475
     2010.71321         9.76871         8.07066
     2010.71594         6.07217         8.17598
     2010.71868         9.14964         8.17037
     2010.72142        10.50411         8.19845
     2010.72416        11.45657         8.24620
     2010.72689        14.30504         8.22514
     2010.72963        15.46450         8.41191
     2010.73237         9.54697         8.10577
     2010.73511        12.44843         8.16896
     2010.73785         8.38090         8.28974
     2010.74058        18.73936         8.31080
     2010.74332        11.94883         8.08470
     2010.74606        12.57529         8.28693
     2010.74880         9.76776         8.27710
     2010.75154        14.28523         8.20267
     2010.75427        14.31069         8.25182
     2010.75701        13.98616         8.27990
     2010.75975        16.01962         8.16475
     2010.76249         5.12709         8.20267
     2010.76522         4.11655         8.13526
     2010.76796        15.60902         8.08892
     2010.77070        11.81748         8.10156
     2010.77344        10.53895         8.11279
     2010.77618        14.01141         9.24749
     2010.77891         4.45288         8.17037
     2010.78165         1.92535         8.06645
     2010.78439         6.20881         8.10717
     2010.78713        15.62328         8.16896
     2010.78987        17.44574         8.05521
     2010.79260        15.09921         8.22935
     2010.79534        12.24267         8.03696
     2010.79808        13.52914         8.13526
     2010.80082        11.76560         8.01730
     2010.80355        17.48907         8.08611
     2010.80629        14.09753         8.04960
     2010.80903        16.38500         8.45264
     2010.81177        17.21147         8.20688
     2010.81451        20.15993         8.02432
     2010.81724        19.96140         8.05381
     2010.81998         9.96786         8.06645
     2010.82272        15.53333         8.05802
     2010.82546        21.89379         8.07347
     2010.82820        21.58726         8.05802
     2010.83093        20.41172         8.32765
     2010.83367        16.51719         8.30378
     2010.83641        12.27665         8.10296
     2010.83915        14.64212         8.14228
     2010.84188        20.40059         8.16194
     2010.84462        22.48905         8.08470
     2010.84736        20.07952         8.18301
     2010.85010        18.90598         8.09173
     2010.85284        16.15145         8.18160
     2010.85557        12.04591         8.09734
     2010.85831         9.24838         8.04538
     2010.86105         9.65184         8.33748
     2010.86379        12.96431         8.31923
     2010.86653        13.23477         8.15211
     2010.86926         8.67524         8.21109
     2010.87200         9.70071         8.10015
     2010.87474         5.40417         8.24761
     2010.87748         0.08264         8.28693
     2010.88021         5.82210         8.23497
     2010.88295         3.96357         8.32765
     2010.88569         5.01303         8.20548
     2010.88843        -2.79850         8.52987
     2010.89117        18.13296         8.56639
     2010.89390        12.56543         8.19003
     2010.89664        15.12789         8.28833
     2010.89938        15.14136         8.24339
     2010.90212        16.35083         8.13666
     2010.90485        16.73129         8.20267
     2010.90759        18.93876         8.27288
     2010.91033        11.40022         8.25041
     2010.91307         4.76569         8.30940
     2010.91581         8.10615         8.16896
     2010.91854         6.44362         8.23918
     2010.92128         6.36108         8.30659
     2010.92402        10.32655         8.24620
     2010.92676         8.74001         8.27007
     2010.92950        -1.05552         8.25744
     2010.93223        -1.08305         8.17598
     2010.93497         2.85241         8.21671
     2010.93771        -1.50012         8.32344
     2010.94045        -6.99366         8.48915
     2010.94318        -2.76119         8.20548
     2010.94592        -3.94173         8.28833
     2010.94866        -0.73226         8.22092
     2010.95140        -4.70580         8.56217
     2010.95414       -19.58133         8.23778
     2010.95687       -30.07887         8.29676
     2010.95961       -28.21940         8.45545
     2010.96235       -29.80993         8.31080
     2010.96509       -24.82447         8.25744
     2010.96783       -22.60200         8.34591
     2010.97056       -23.48054         8.27710
     2010.97330       -24.40107         8.28974
     2010.97604       -30.73061         8.35714
     2010.97878       -31.05914         8.31642
     2010.98151       -30.20068         8.34029
     2010.98425       -27.99521         8.30940
     2010.98699       -16.30575         8.32063
     2010.98973       -18.24728         8.53549
     2010.99247       -17.19282         8.54813
     2010.99520       -16.43635         8.59167
     2010.99794       -27.54088         8.44421
     2011.00342       -12.37595         8.31782
     2011.00616        -5.65049         8.26024
     2011.00889         3.88398         8.43157
     2011.01163        -2.13956         8.28974
     2011.01437        -8.96909         8.18301
     2011.01711        -9.00263         8.40629
     2011.01984       -13.83416         8.25182
     2011.02258       -17.01970         8.14790
     2011.02532       -18.73323         8.32484
     2011.02806       -16.75676         8.41332
     2011.03080       -20.25230         8.14228
     2011.03353       -14.33883         8.12824
     2011.03627        -6.94537         8.26305
     2011.03901        -7.69390         8.16475
     2011.04175        -4.97644         8.18441
     2011.04449        -8.75097         8.19986
     2011.04722        -8.76551         8.45825
     2011.04996       -11.07804         8.45545
     2011.05270        -3.18258         8.21952
     2011.05544        -1.52311         8.23637
     2011.05817         2.65236         8.25322
     2011.06091        -2.80018         8.20267
     2011.06365         0.57629         8.25884
     2011.06639         0.89675         8.22373
     2011.06913         0.08022         8.87674
     2011.07186        -7.80432         8.26727
     2011.07460       -20.87885         8.21250
     2011.07734       -16.86039         8.19284
     2011.08008       -16.18092         8.24199
     2011.08282       -14.97246         8.21109
     2011.08555       -17.18899         8.32063
     2011.08829        -9.90352         8.25884
     2011.09103         3.91494         8.10296
     2011.09377         2.32841         8.22654
     2011.09650        -5.69813         8.34450
     2011.09924        -2.48166         8.22935
     2011.10198        -3.40420         8.14930
     2011.10472        -1.88873         8.13245
     2011.10746         3.69573         8.11841
     2011.11019         4.07920         8.05240
     2011.11293         7.85966         8.12262
     2011.11567        11.60213         8.23356
     2011.11841        11.44360         8.21531
     2011.12115         2.09906         8.24901
     2011.12388        -2.53547         8.52987
     2011.12662         2.09199         8.54251
     2011.12936         4.48946         8.29676
     2011.13210         5.02892         8.71525
     2011.13483        10.60439         8.16615
     2011.13757         9.31585         8.22233
     2011.14031         7.58732         8.15773
     2011.14305         6.07778         8.35574
     2011.14579        -3.65475         8.37680
     2011.14852         3.44472         8.21250
     2011.15126        10.60218         8.08470
     2011.15361        17.78529         9.44269
     2011.15678         4.27604         8.22092
     2011.15948         1.80958         8.18301
     2011.16221        16.38204         8.92730
     2011.16495        14.36851         8.34310
     2011.16769        15.56997         8.12402
     2011.18138        -3.15570         8.10717
     2011.18412        -3.17323         7.99061
     2011.18685        -2.73477         8.86832
     2011.18959         2.62070         9.53256
     2011.19233        -0.74984         8.11279
     2011.19507         6.21463         8.17177
     2011.19780         5.36409         8.13526
     2011.20054         5.89156         8.12402
     2011.20328         9.64302         8.37961
     2011.20602         3.31749         8.40349
     2011.20876        -1.24804         8.18722
     2011.21149        -4.45558         8.12683
     2011.21423        -1.34911         8.01308
     2011.21697         2.49735         8.32203
     2011.21971         5.97082         8.29114
     2011.22245        -1.31472         8.12122
     2011.22518        -1.77925         8.03836
     2011.22792         5.77721         8.05802
     2011.23066         1.59668         8.03977
     2011.23340         1.73014         8.11139
     2011.23613         1.14461         8.14930
     2011.23887         1.17608         8.05943
     2011.24161         6.97054         8.06083
     2011.24435        12.66901         8.11700
     2011.24709         3.84447         8.24620
     2011.24982         2.67994         8.30097
     2011.25256         3.32640         8.10296
     2011.25530         5.74687         8.05521
     2011.25804         9.48433         8.17739
     2011.26078         5.81380         9.32051
     2011.26351         0.09426         8.16194
     2011.26625         2.39473         8.10717
     2011.26899         8.05020         8.36136
     2011.27173        -3.34734         8.22935
     2011.27446         3.19913         8.37540
     2011.27720        -3.39141         9.06492
     2011.27994        -7.90094         8.60992
     2011.28268        -5.00348         8.10015
     2011.28542        -8.83301         8.05521
     2011.28815        -7.21355         8.09594
     2011.29089        -3.56908         8.16054
     2011.29363        -4.49962         8.63941
     2011.29637        -2.25315         8.13385
     2011.29911        -3.80169         8.22935
     2011.30184         3.42278         8.46106
     2011.30458         0.93325         8.15492
     2011.30732         2.73471         8.14369
     2011.31006         3.85018         8.12122
     2011.31279         0.94364         8.11279
     2011.31553         5.09411         8.07909
     2011.31827         0.48657         8.15071
     2011.32101         1.74504         8.25744
     2011.32375        -6.85450         8.21952
     2011.32648        -8.10303         8.36557
     2011.32922        -2.80057         8.40770
     2011.33196         2.65690         8.59869
     2011.33470        -0.73463         8.25603
     2011.33744        -3.54017         8.26727
     2011.34017        -4.36170         8.42876
     2011.34291         1.21776         8.48213
     2011.34565         1.90923         8.32625
     2011.34839        -4.29731         8.27569
     2011.35112         0.60416         8.21250
     2011.35386        -4.52438         8.33046
     2011.35660        -4.51791         8.10296
     2011.35934        -8.91245         8.09032
     2011.36208        -9.81598         8.13245
     2011.36481        -7.06151         8.21671
     2011.36755        -0.04105         8.18862
     2011.37029         1.09242         8.35433
     2011.37303         4.27188         8.36978
     2011.37577         1.39535         8.29114
     2011.37850         1.14081         8.26867
     2011.38124        -4.69772         8.18160
     2011.38398        -0.44726         8.35574
     2011.38672         0.45421         8.39225
     2011.38945        -5.34733         8.27850
     2011.39219        -0.87186         8.28974
     2011.39493        -5.33639         8.29816
     2011.39767         0.63107         8.21671
     2011.40041        -3.45146         8.39787
     2011.40314       -10.49500         9.56486
     2011.40588         9.07647         8.87393
     2011.40862        -4.40107         8.25463
     2011.41136        -2.07660         8.45123
     2011.41410         1.93886         8.35855
     2011.41683        -2.62567         8.41472
     2011.41957        -1.49121         8.27288
     2011.42231        -7.02074         8.30940
     2011.42505         3.35473         8.41472
     2011.42778        -5.50581         8.37961
     2011.43052        -5.99234         8.31080
     2011.43326        -3.80988         8.35433
     2011.43600        -3.09741         8.34310
     2011.43874        -0.12795         8.46247
     2011.44147         3.03252         8.41753
     2011.44421         2.91298         8.33046
     2011.44695         5.38245         8.34872
     2011.44969         0.08791         8.34170
     2011.45243        -4.86762         8.39085
     2011.45516        -4.04815         8.37119
     2011.45790        -5.10469         8.43157
     2011.46064        -1.27922         8.26446
     2011.46338        -4.28876         8.35714
     2011.46611        -4.42429         8.40910
     2011.46885         0.67217         8.56920
     2011.47159        -3.35936         8.38102
     2011.47433         0.91910         8.49055
     2011.47707         3.51057         8.27710
     2011.47980         6.37403         8.34310
     2011.48254        -2.38050         8.49055
     2011.48528         4.96797         8.43298
     2011.48802         0.38543         8.34029
     2011.49076         3.16390         8.23497
     2011.49349         3.59836         8.38382
     2011.49623         8.50883         9.01296
     2011.49897         5.44629         8.48915
     2011.50171         1.48776         8.39366
     2011.50444         1.35322         8.26165
     2011.50718        -1.26731         8.49617
     2011.50992        -3.70785         8.41051
     2011.51266        -6.43738         8.68716
     2011.51540         0.01909         8.34591
     2011.51813        -1.91645         8.30097
     2011.52087         0.05802         8.37259
     2011.52361         4.42948         8.81917
     2011.52635        -7.88305         8.31923
     2011.52908        -2.24959         8.40489
     2011.53182         0.64588         8.31361
     2011.53456         4.39334         8.29114
     2011.53730         1.26181         8.27429
     2011.54004        -1.65273         8.31782
     2011.54277         1.97574         8.44562
     2011.54551         6.12121         8.37821
     2011.54825         4.52067         8.31361
     2011.55099         4.85814         8.29395
     2011.55373         3.73360         8.37119
     2011.55646         4.40907         8.35293
     2011.55920         1.63453         8.38804
     2011.56194         3.96500         8.36557
     2011.56468         7.19046         8.22092
     2011.56741         9.92693         8.29535
     2011.57015        -1.04361         8.49898
     2011.57289        -0.88114         8.38944
     2011.57563         6.80732         8.44562
     2011.57837         4.42779         8.39366
     2011.58110         0.72426         8.39506
     2011.58384         6.01072         8.30799
     2011.58658         8.63319         8.62116
     2011.58932         5.67465         8.34591
     2011.59206         7.70212         8.54673
     2011.59479         6.46358         8.95539
     2011.59753         8.22105         8.35574
     2011.60027         7.69151         8.40068
     2011.60301         2.42998         8.33046
     2011.60574         3.86144         8.47370
     2011.60848         8.77891         8.46949
     2011.61122         9.82238         8.48915
     2011.61396         9.25184         8.45123
     2011.61670        12.17531         8.55937
     2011.61943         8.83177         8.50179
     2011.62217        10.14924         8.49055
     2011.62491         6.91670         8.35433
     2011.62765         6.38517         8.38944
     2011.63039        14.45363         8.38242
     2011.63312        15.70810         8.47370
     2011.63586        16.70256         8.33327
     2011.63860        19.14603         8.36136
     2011.64134        18.01650         8.55656
     2011.64407         9.93596         8.30237
     2011.64681         4.73143         8.38663
     2011.64955         8.71289         8.72227
     2011.65229         3.08236         8.54673
     2011.65503        10.55082         8.44562
     2011.65776         7.15929         8.57341
     2011.66050         4.29775         8.63660
     2011.66324        10.35322         8.44000
     2011.66598        12.50068         8.52847
     2011.66872        10.82515         8.51021
     2011.67145         7.52962         8.52847
     2011.67419        10.57108         8.40489
     2011.67693        15.46155         8.28833
     2011.67967        14.65501         8.45123
     2011.68240        13.36548         8.40068
     2011.68514         8.17594         8.41332
     2011.68788        10.91741         8.79529
     2011.69062         5.18687         9.21097
     2011.69336         5.95134         8.49055
     2011.69609         6.50980         8.97083
     2011.69883        16.33327         8.74614
     2011.70157        12.96374         8.36416
     2011.70431         8.58220         8.35574
     2011.70705        11.21367         8.50038
     2011.70978        12.82413        10.39342
     2011.71252        13.77360         8.40910
     2011.71526        14.46906         8.44562
     2011.71800        19.45053         8.65626
     2011.72073        21.88699         8.35714
     2011.72347        18.50146         8.30799
     2011.72621        15.65692         8.38242
     2011.72895        10.70339         8.36697
     2011.73169        12.41486         8.39506
     2011.73442        10.63632         9.03965
     2011.73716        16.11479         8.47089
     2011.73990         7.18225         9.22080
     2011.74264        14.74772         8.55796
     2011.74538        14.95118         8.72788
     2011.74811        14.67365         8.95960
     2011.75085        13.12711         9.17867
     2011.75359        12.63758         8.78968
     2011.75633        13.81804         8.51302
     2011.75906        13.40851         9.54942
     2011.76180         6.68098         8.65626
     2011.76454         6.93044         8.84023
     2011.76728         9.68491         8.47651
     2011.77002        12.18237         8.96381
     2011.77275        15.55984         8.36557
     2011.77549        12.33630         8.51864
     2011.77823         6.46277         8.60290
     2011.78097         8.08823         8.49758
     2011.78371        10.24270         8.43578
     2011.78644        17.56916         8.37680
     2011.78918        14.35263         8.41612
     2011.79192        13.01910         8.32906
     2011.79466         9.05156         8.43298
     2011.79739        16.11803         8.38663
     2011.80013        14.27549         8.38102
     2011.80287        14.71796         8.44281
     2011.80561        15.09242         8.34170
     2011.80835        15.96789         8.45264
     2011.81108        13.41335         8.38663
     2011.81382        11.48582        10.24737
     2011.81656        19.43628         8.36276
     2011.81930        13.85375         8.32906
     2011.82203        13.38322         8.34170
     2011.82477        17.59668         8.30237
     2011.82751        15.83415         8.44842
     2011.83025        11.07261         8.28974
     2011.83299         5.83108        10.36673
     2011.83572        -8.15246         9.52554
     2011.83846       -12.78599         8.29114
     2011.84120        -0.05853         8.34029
     2011.84394         0.78594         8.37821
     2011.84668         3.07840         8.30378
     2011.84941         5.65187         8.29535
     2011.85215        -1.29566         8.51443
     2011.85489        -4.03320         8.46528
     2011.85763         4.05727         8.56498
     2011.86036         3.82473         8.34450
     2011.86310        10.99420         8.27429
     2011.86584        14.43566         8.20969
     2011.86858         8.07513         8.19986
     2011.87132         3.61959         8.55796
     2011.87405         3.73806         8.30659
     2011.87679         0.24652         8.31220
     2011.87953         1.45699         8.49758
     2011.88227         4.07045         8.29254
     2011.88501        10.38792         8.40910
     2011.88774        11.77939         8.33046
     2011.89048         9.02585         8.45966
     2011.89322        12.81732         8.39085
     2011.89596         7.82278         8.27429
     2011.89869         9.40925         8.33748
     2011.90143         5.29171         8.31782
     2011.90417         3.85918         8.40770
     2011.90691         9.80964         8.28131
     2011.90965        11.20411         8.44000
     2011.91238         0.73257         8.82900
     2011.91512         8.16204         8.33186
     2011.91786         2.89551         8.59026
     2011.92060        -3.73403         8.51302
     2011.92334         1.24444         8.46247
     2011.92607        -7.29910         8.48213
     2011.92881       -12.29563         8.29816
     2011.93155       -10.49417         8.40489
     2011.93429        -6.92070         8.44000
     2011.93702        -6.44624         8.37961
     2011.93976        -8.91977         8.37259
     2011.94250        -6.17931         8.37680
     2011.94524        -0.26184         8.43578
     2011.94798        -9.19937         8.43438
     2011.95071        -7.81891         8.30237
     2011.95345        -1.89144         8.48494
     2011.95619        -4.97698         8.52426
     2011.95893        -0.18551         8.15773
     2011.96167         2.89095         8.22794
     2011.96440         2.71142         8.40910
     2011.96714        -8.17912         8.28833
     2011.96988        -9.80065         8.29254
     2011.97262       -10.07319         8.44702
     2011.97535       -17.97672         8.15492
     2011.97809       -19.20025         8.14088
     2011.98083       -16.44779         8.13105
     2011.98357       -13.83532         8.09734
     2011.98631        -6.37086         8.07206
     2011.98904        -7.98739         8.02432
     2011.99178        -6.77093         8.32765
     2011.99452       -11.87646         8.12824
     2011.99726        -6.02900         8.15773
     2012.00273         0.39793         8.01308
     2012.50225        11.42261        28.68195
     2012.50376         1.78611         8.19424
     2012.50650        -0.27142         8.15071
     2012.50924        -1.95496         8.31220
     2012.51197         0.52851         8.22794
     2012.51471        -0.75003         8.14790
     2012.51745        -7.38856         8.32344
     2012.52292        -0.75163         8.32625
     2012.52566         1.08283         8.09313
     2012.52840         1.29230         8.25744
     2012.53114        -1.09223         8.04819
     2012.53388        -4.91277         8.12964
     2012.53661       -17.08730        12.97035
     2012.53935        -1.27384        10.16030
     2012.54209        -2.99137         8.92730
     2012.54483        -3.35791         8.06083
     2012.54757        -0.66844         8.05100
     2012.55030         4.72602         8.19284
     2012.55304         3.73349         8.11419
     2012.55578         4.68895         8.15211
     2012.55852        -4.40358         8.20828
     2012.56125        -0.41011         8.14088
     2012.56399         1.29635         8.14930
     2012.56673         5.08582         8.14649
     2012.56947         6.73028         8.13526
     2012.57221         8.65375         8.28552
     2012.57494        -0.49879         8.18020
     2012.57768         9.93468         8.62256
     2012.58042         2.50314         8.06645
     2012.58316        -8.16139         8.17598
     2012.58590         2.93507         8.30518
     2012.58863         2.95754         8.03134
     2012.59137         1.43901         8.09173
     2012.59411         7.62547         8.10577
     2012.59685         3.11194         8.21531
     2012.59958        -2.26060         8.12964
     2012.60232         4.60887         8.41612
     2012.60506        -0.37767         8.15071
     2012.60780        -5.34720         8.07206
     2012.61054         5.05026         8.11560
     2012.61327         9.51473         8.17598
     2012.61601         3.86719         8.19986
     2012.61875        -4.23234         8.12964
     2012.62149         4.69413         8.02993
     2012.62423         5.21159         8.18160
     2012.62696         2.92006         8.18020
     2012.62970         2.18152         8.19705
     2012.63244         6.67299         8.56920
     2012.63518         1.26645         8.13666
     2012.63791         4.87792         8.09032
     2012.64065         8.83338         8.11841
     2012.64339         7.42285         8.29254
     2012.64613         3.78431         8.25463
     2012.64887         3.89578         8.17318
     2012.65160         4.42025         8.22654
     2012.65434         3.70371         8.15913
     2012.65708         3.51418         8.40910
     2012.65982        -0.94036         8.41893
     2012.66256         1.83511         8.13526
     2012.66529         1.09657         8.22654
     2012.66803         7.39104         8.24339
     2012.67077         6.33150         9.04948
     2012.67351         4.50497        11.73455
     2012.67624        -1.58757         8.41191
     2012.67898         4.50790         8.86410
     2012.68172        -4.88563         8.15632
     2012.68446        -1.53017         8.32765
     2012.68720         0.85930         8.23216
     2012.68993         1.58976         8.13807
     2012.69267         0.15423         8.27850
     2012.69541        -5.20331         8.05240
     2012.69815         6.68316         8.31501
     2012.70089        -1.27138         8.06504
     2012.70362        -1.44691         8.09313
     2012.70636         1.53955         8.21109
     2012.70910        -3.40198         8.17458
     2012.71184         0.78749         8.29676
     2012.71457        -1.08705         8.19986
     2012.71731         8.57342         8.26305
     2012.72005         8.84288         8.52987
     2012.72279         4.04135         8.20969
     2012.72553         2.33881         8.10577
     2012.72826         8.35828         8.19705
     2012.73100         2.80374         8.30518
     2012.73374         3.70221         8.19986
     2012.73648         4.07167         8.16054
     2012.73921        10.32714         8.19986
     2012.74195         5.56561         8.18441
     2012.74469         6.18807         8.13105
     2012.74743        12.93954         8.24339
     2012.75017        -6.62100         9.89769
     2012.75290        -0.85453         8.26586
     2012.75564        -4.77607         8.14649
     2012.75838         3.41240         8.28833
     2012.76112        -1.89914         8.17598
     2012.76386         0.20733         8.35714
     2012.76659        -6.76121         8.27710
     2012.76933        -5.91474        10.17153
     2012.77207        -7.45027        10.01846
     2012.77481        -7.44881         8.37821
     2012.77754        -4.09934         7.90776
     2012.78028         7.71812         8.08751
     2012.78302         6.63359        10.95655
     2012.78576         7.91605         8.54392
     2012.78850        12.04052         8.04257
     2012.79123         9.12198         7.89652
     2012.79397        12.72245         8.10717
     2012.79671         4.48791         8.08470
     2012.79945         3.82138         7.98500
     2012.80219        -0.47516         7.96955
     2012.80492        -3.77269         7.96955
     2012.80766         2.99378         8.01449
     2012.81040        -1.75676         8.45966
     2012.81314         1.98171         8.11279
     2012.81587         1.50017         8.05802
     2012.81861         0.40164         8.13947
     2012.82135        -2.99290         8.01027
     2012.82409         1.90757         8.07206
     2012.82683         3.46903         7.98921
     2012.82956         8.50250         8.02432
     2012.83230        10.14096         8.02291
     2012.83504         5.15443         9.98476
     2012.83778        11.70790         8.01870
     2012.84052        17.77136         8.04538
     2012.84325        14.26083         8.07487
     2012.84599        16.64229         8.19986
     2012.84873         5.88376         8.16615
     2012.85147         2.25322         8.11700
     2012.85420         5.81369         8.19424
     2012.85694         6.84815         8.28833
     2012.85968        13.96362         8.19845
     2012.86242        11.14108         8.12122
     2012.86516         4.15855         8.12543
     2012.86789         0.37202         8.73210
     2012.87063         6.49348        10.51700
     2012.87337         5.91695         8.32484
     2012.87611         5.26541         8.19143
     2012.87885         5.63888         8.15773
     2012.88158        10.39534         8.18862
     2012.88432         8.39281         8.19424
     2012.88706         8.00727         8.81495
     2012.88980         8.25474         8.48915
     2012.89253         8.90620         8.11560
     2012.89527        10.41667         8.10015
     2012.89801         3.69714         8.99892
     2012.90075         8.58360         8.19565
     2012.90349         1.34207         8.34872
     2012.90622         5.77653         8.27288
     2012.90896         6.27000         8.34170
     2012.91170         3.13746         8.23778
     2012.91444         5.06393         8.26727
     2012.91718         6.77139         8.24058
     2012.91991        10.25086         8.39085
     2012.92265         8.13132         8.15632
     2012.92539         7.50479         8.15211
     2012.92813         6.35726         8.24058
     2012.93086         3.24272         8.41893
     2012.93360         2.77519         8.44140
     2012.93634         8.27865         8.12402
     2012.93908         1.28712         8.21109
     2012.94182        -0.25542         8.12122
     2012.94455         4.39305         8.10858
     2012.94729        -1.00349         8.32625
     2012.95003        -0.25302         8.26305
     2012.95277        -1.77556         8.13807
     2012.95551        -4.42109         8.15071
     2012.95824        -6.98662         8.28271
     2012.96098       -17.31916         8.42174
     2012.96372       -13.95769         8.33608
     2012.96646        -3.98823         8.19424
     2012.96919       -16.23876         8.27990
     2012.97193       -19.40430         8.30518
     2012.97467       -15.97583         8.10858
     2012.97741       -11.23037         8.09875
     2012.98015       -15.35690         8.20969
     2012.98288       -13.79844         8.20126
     2012.98562       -10.88097         8.14088
     2012.98836        -8.10650         8.14088
     2012.99110        -8.90704         8.17037
     2012.99384        -7.01157         8.16054
     2012.99657        -2.89011         8.27569
     2012.99931         0.28936         8.19565
     2013.00205        -2.63618         8.15492
     2013.00479         0.62129         8.21671
     2013.00752        -8.01325         8.19424
     2013.01026        -5.17778         8.13245
     2013.01300        -7.89432         8.17458
     2013.01574        -1.93085         8.13526
     2013.01848        -5.23438         8.14088
     2013.02121        -9.35792         8.12402
     2013.02395       -14.45345         8.13947
     2013.02669       -12.92499         8.36557
     2013.02943       -17.46852         8.12683
     2013.03216       -18.08006         8.21390
     2013.03490       -15.84059         8.21671
     2013.03764        -9.33213         8.24339
     2013.04038       -12.04066         8.24620
     2013.04312       -16.43220         8.18441
     2013.04585        -7.29773         8.36557
     2013.04859       -13.56326         8.31501
     2013.05133       -15.87580         8.12964
     2013.05407        -7.62833         8.21250
     2013.05681        -8.02787         8.11981
     2013.05954       -11.63840         8.12683
     2013.06228       -12.10094         8.30659
     2013.06502        -5.80547         8.28131
     2013.06776        -2.53901         8.17739
     2013.07049         0.93646         8.54392
     2013.07323        -6.22808         8.15211
     2013.07597        -9.62161         8.06785
     2013.07871        -7.61915         8.11419
     2013.08145        -4.61768         8.13245
     2013.08418         0.20679         8.06504
     2013.08692        -5.03875         8.03696
     2013.08966        -3.54628         8.13385
     2013.09240         0.97818         8.04117
     2013.09514         9.40165         8.03836
     2013.09787         4.70911         8.31923
     2013.10061        10.50558         8.46949
     2013.10335         8.23804         8.39366
     2013.10609        10.98951         8.03977
     2013.10882        14.50897         8.02291
     2013.11156         2.04744         8.26165
     2013.11430         8.83591         7.98921
     2013.11704        -4.14763         8.23356
     2013.11978         6.85284         8.38663
     2013.12251         6.81030         8.28833
     2013.12525         0.99177         7.96674
     2013.12799         1.47223         8.03696
     2013.13073        -1.83830         8.12543
     2013.13347         0.29816         7.96955
     2013.13620         3.68563         7.94427
     2013.13894         9.38409         7.98359
     2013.14168         7.27056         8.16756
     2013.14442        10.12203         8.37540
     2013.14715         4.84749         8.56639
     2013.14989        -7.03204         8.01168
     2013.15263        -9.43658         7.92321
     2013.15537       -13.88511         7.92742
     2013.15811        -8.71465         7.99764
     2013.16084         0.80582         8.11279
     2013.16358        -8.06672         8.72367
     2013.16632       -13.79025         7.93444
     2013.16906        -0.08579         7.97657
     2013.17180       -12.19332         7.95972
     2013.17453       -12.56885         7.93023
     2013.17727        -4.48939         8.29535
     2013.18001        -5.08392         8.30237
     2013.18275         4.07554         7.95831
     2013.18548        -2.24999         7.91618
     2013.18822       -10.32253         7.90916
     2013.19096       -10.26306         7.96393
     2013.19370        -9.07760         8.02432
     2013.19644        -7.58713         8.04538
     2013.19917        -6.16267         7.98500
     2013.20191        -6.13820         8.22935
     2013.20465        -8.84773         8.01589
     2013.20739        -7.74927        10.98183
     2013.21013        -9.73180         8.01870
     2013.21286        -8.07134         7.97236
     2013.21560        -7.14287         7.96393
     2013.21834        -6.87941         8.04679
     2013.22108        -9.88794         7.98781
     2013.22381        -9.07448         8.04257
     2013.22655        -5.37901         8.02993
     2013.22929        -4.10455         7.99061
     2013.23150       -14.30020        10.37095
     2013.23477        -9.95661         8.14088
     2013.23750       -16.80815         8.22233
     2013.24024        -8.37368         9.51712
     2013.24298       -12.63522         8.23918
     2013.24572       -10.80375         8.21250
     2013.24846        -6.62029         8.23216
     2013.25119        -4.31682         8.04538
     2013.25393       -10.09236         8.06083
     2013.25667       -11.93689         8.17598
     2013.25941        -3.89543         8.03274
     2013.26214        -1.49296         8.02853
     2013.26488         4.00551         8.02432
     2013.26762        -0.16503         8.07347
     2013.27036         3.44044         8.03836
     2013.27310        -0.43710         8.44000
     2013.27583        -6.66863         8.31642
     2013.27857        -5.05817         8.46528
     2013.28131        -6.91570         8.04117
     2013.28405        -9.47724         8.27429
     2013.28679       -10.15677         8.24339
     2013.28952       -11.47531         8.04257
     2013.29226       -12.97384         8.15352
     2013.29500        -9.91437         8.03836
     2013.29774       -11.73791         8.18301
     2013.30047       -14.15144         8.13105
     2013.30321       -19.86198         8.10296
     2013.30595       -16.88851         8.06926
     2013.30869       -14.46405         8.11981
     2013.31143        -9.37758         9.18008
     2013.31416        -5.92912         8.07487
     2013.31690        -5.85965         8.23637
     2013.31964        -1.33519         8.04679
     2013.32238        -4.54672         8.07066
     2013.32512        -4.63825         8.03134
     2013.32785        -6.67379         8.07628
     2013.33059        -6.24632        10.40184
     2013.33333        -5.63486         8.13245
     2013.33607        -7.76239         8.08892
     2013.33880        -1.22193         8.13526
     2013.34154         1.54054         8.25182
     2013.34428        -9.81100         8.38382
     2013.34702       -10.39753         8.38382
     2013.34976       -10.62707         8.36416
     2013.35249       -13.88760         8.27007
     2013.35523       -11.36813         8.57622
     2013.35797        -5.72867         8.37119
     2013.36071        -5.43920         8.29816
     2013.36344        -0.79174         8.36838
     2013.36618         3.75373         8.60430
     2013.36892         1.97219         8.34170
     2013.37166        -4.25734         8.42736
     2013.37440        -4.64488         8.36276
     2013.37713        -4.51741         9.51992
     2013.37987       -15.72895         8.84585
     2013.38261       -12.79648         8.27288
     2013.38535       -14.74002         8.40910
     2013.38809       -10.01855         8.51864
     2013.39082        -5.19208         8.35995
     2013.39356        -2.83862         8.48494
     2013.39630        -8.68215         8.96100
     2013.39904        -2.09669         8.55515
     2013.40177        -3.02222         8.34731
     2013.40451        -8.06776         8.33889
     2013.40725        -3.05029         8.33608
     2013.40999        -1.85483         8.23075
     2013.41273        -7.59236         8.20267
     2013.41546       -12.45990         9.78113
     2013.41820        -6.02043         8.68997
     2013.42094         0.42304         8.35995
     2013.42368        -7.08450         8.38944
     2013.42642        -2.95503         8.23918
     2013.42915        -4.15157         8.46949
     2013.43189        -1.96910         9.76428
     2013.43463        -6.27564         8.27990
     2013.43737       -11.71517         8.31220
     2013.44010        -6.96471         8.30940
     2013.44284        -9.60324         8.26446
     2013.44558       -15.23378         8.54532
     2013.44832        -9.47131         8.22794
     2013.45106        -6.64684         8.17318
     2013.45379        -6.13538         8.26727
     2013.45653        -4.98191         8.20688
     2013.45927        -0.03945         8.38944
     2013.46201        -4.35098         8.26305
     2013.46475        -0.93352         8.18441
     2013.46748        -1.80605         8.43157
     2013.47022        -2.00959         8.40068
     2013.47296        -1.30612         8.30940
     2013.47570        -3.59266         8.41191
     2013.47843         1.64481         8.55937
     2013.48117         3.47128         8.30518
     2013.48391         4.52974         8.20548
     2013.48665         1.06721         8.22514
     2013.48939        -1.20333         9.40758
     2013.49212       -10.09586        11.31465
     2013.49486        -0.48540         8.34731
     2013.49760         3.97607         8.17879
     2013.50034         3.48753         8.31782
     2013.50308         0.49200         8.24058
     2013.50581        -6.58854         8.17458
     2013.50855        -6.55507         8.24058
     2013.51129         0.41840        11.99013
     2013.51403         2.46786         8.31501
     2013.51676         2.05033         8.26867
     2013.51950        -5.53621         8.19284
     2013.52224        -8.92574         8.94134
     2013.52498       -12.16928         9.69406
     2013.52772        -6.08781         8.23075
     2013.53045        -3.20235         8.17879
     2013.53319        -2.16488         9.60980
     2013.53593         3.37258         9.52695
     2013.53867        -5.88295         8.30940
     2013.54141        -2.33548         8.24480
     2013.54414        -0.18802         8.26446
     2013.54688        -4.09855         8.29254
     2013.54962        -4.97709         8.22794
     2013.55236        -2.34162         8.28131
     2013.55509        -5.42816         8.14930
     2013.55783         1.79331         8.18862
     2013.56057        -3.17323         8.54954
     2013.56331        -2.37376         8.62958
     2013.56605        -7.65430         8.24620
     2013.56878         0.11017         8.16475
     2013.57152        -5.24036         8.22654
     2013.57426         0.54410         8.19986
     2013.57700        -3.52643         8.40349
     2013.57974        -5.42997         8.38102
     2013.58247        -3.42050         8.21952
     2013.58521        -0.62404         8.14509
     2013.58795         0.95343         8.16335
     2013.59069         2.66789         8.27148
     2013.59342        -5.92164         8.42174
     2013.59616         4.66782         8.21250
     2013.59890        -2.63871         8.42034
     2013.60164        -1.12524         8.11700
     2013.60438         2.91122         8.25884
     2013.60711         1.33569         8.18722
     2013.60985         2.83315         8.17037
     2013.61259         2.31062         8.11419
     2013.61533         5.05808         8.53128
     2013.61807        -1.09545         8.37680
     2013.62080        10.90001         8.48213
     2013.62354         7.09548         8.74474
     2013.62628         7.22894         8.36838
     2013.62902         5.15641         8.16194
     2013.63175         5.71488         8.10015
     2013.63449         7.07234         8.38663
     2013.63723         5.89781         8.51724
     2013.63997        10.06727         8.23075
     2013.64271         6.64374         8.50460
     2013.64544         0.95120         8.37399
     2013.64818        -0.54633         8.44140
     2013.65092        -2.72387         8.25463
     2013.65366        -1.40040         8.43859
     2013.65639         4.61406         8.30940
     2013.65913         3.96553         8.21109
     2013.66187         5.25400         8.25884
     2013.66461        -5.11954         8.61694
     2013.66735         0.10693         8.44702
     2013.67008         0.34139         8.37821
     2013.67282         9.91686         8.40629
     2013.67556         8.50632         8.51864
     2013.67830         5.33679         8.18581
     2013.68104         3.35525         8.15913
     2013.68377         5.83072         8.26727
     2013.68651         7.52918         8.28974
     2013.68925         5.10565         8.11981
     2013.69199         3.13411         8.14228
     2013.69472         3.70158         8.27429
     2013.69746        -3.09995         8.10577
     2013.70020         3.48251         8.33748
     2013.70294         3.20398         8.10296
     2013.70568         0.15944         8.14509
     2013.70841        -0.55709         8.15492
     2013.71115         1.20037         8.14088
     2013.71389        -1.04516         8.18581
     2013.71663        -0.37970         8.22233
     2013.71937         3.59977         8.17598
     2013.72210        12.68023         8.17598
     2013.72484         5.79870         8.15773
     2013.72758         4.45917         8.09453
     2013.73032        -1.40737         8.90904
     2013.73305        -5.55390         8.21671
     2013.73579         2.17656         8.17458
     2013.73853         3.30703         8.14649
     2013.74127         4.72949         8.14509
     2013.74401         4.99196         8.24058
     2013.74674        -0.41158         8.08049
     2013.74948        -0.13811         8.15352
     2013.75222        -1.82965         8.85427
     2013.75496        -3.47018         8.05521
     2013.75770         1.65229         8.10436
     2013.76043        -0.04225         8.12262
     2013.76317         4.04522         8.05802
     2013.76591         8.22368         8.16335
     2013.76865         5.43515         8.19986
     2013.77138         6.75161         9.52975
     2013.77412         3.82608         8.15352
     2013.77686         3.38954         8.19986
     2013.77960        -1.50399         8.12543
     2013.78234        -1.51553         8.13807
     2013.78507         6.47094         9.50448
     2013.78781         5.30441         8.58183
     2013.79055         0.85187         8.18160
     2013.79329         2.11634         8.31501
     2013.79603        10.08980         8.16756
     2013.79876         7.04227         8.24339
     2013.80150        10.04673         8.30799
     2013.80424         7.22820         8.24761
     2013.80698         1.52166         8.09594
     2013.80971         6.15113         8.14088
     2013.81245         1.32059         8.17739
     2013.81519         1.14606         8.08611
     2013.81793        -2.73547         8.06223
     2013.82067        -5.46901         8.07206
     2013.82340         1.97746         8.22233
     2013.82614        13.64192         8.43719
     2013.82888         8.81939         9.57469
     2013.83162         6.73085         8.12683
     2013.83436         7.77932         8.46668
     2013.83709        -0.41722         8.20969
     2013.83983         1.67525         8.31080
     2013.84257         2.46071         8.16054
     2013.84531         2.78718         8.16475
     2013.84804        -4.23035         8.11279
     2013.85078         3.46211         9.00735
     2013.85352         3.60458         8.15773
     2013.85626         5.22804         9.99318
     2013.85900         0.82651         8.33186
     2013.86173        -1.67903         9.56627
     2013.86447        -3.61056         8.12262
     2013.86721        -1.55910         8.09875
     2013.86995        -0.22963         8.19986
     2013.87269        -4.17717         8.29254
     2013.87542         1.30830         8.44421
     2013.87816         1.17877         8.09032
     2013.88090        -2.74577         8.19565
     2013.88364         1.51170         8.54532
     2013.88637         1.23916         8.23075
     2013.88911         2.11963         8.13526
     2013.89185         6.41509         8.06926
     2013.89459         4.51256         8.34591
     2013.89733        -2.07298         8.15773
     2013.90006        -0.39151         8.22935
     2013.90280         1.32195         8.23216
     2013.90554         8.25242         8.10296
     2013.90828         7.47489         8.08049
     2013.91102         2.46135         8.16615
     2013.91375        -4.74318         8.18581
     2013.91649        -5.77672         8.19705
     2013.91923        -7.18925         8.17177
     2013.92197       -10.31779         8.23356
     2013.92470        -5.63932         8.22233
     2013.92744        -2.89886         8.39646
     2013.93018        -5.05839         8.20828
     2013.93292        -8.00093         8.13526
     2013.93566         0.88054         9.05509
     2013.93839         2.97601         8.05943
     2013.94113        -1.83753         8.14649
     2013.94387        -6.87706         8.20548
     2013.94661       -13.68060         8.33046
     2013.94935       -11.74313         8.18441
     2013.95208        -6.44867         8.35433
     2013.95482        -1.53520         8.18160
     2013.95756       -15.17374         8.21811
     2013.96030       -13.71627         8.25182
     2013.96303       -15.12581         8.22373
     2013.96577       -12.32234         8.26446
     2013.96851        -8.85987         8.27990
     2013.97125        -6.61841         8.33748
     2013.97399        -6.13294         8.28552
     2013.97672       -14.38148         8.24058
     2013.97946       -15.93701         8.22233
     2013.98220        -8.89455         8.90483
     2013.98494       -16.51308         8.25463
     2013.98767       -19.82562         8.26024
     2013.99041       -19.34015         8.32203
     2013.99315       -20.06469         8.29957
     2013.99589       -14.74722         8.29395
     2013.99863       -15.60776         8.32344
     2014.00410       -10.93482         8.54251
     2014.00684       -18.98536         8.43719
     2014.00958       -12.14389         8.37680
     2014.01232       -10.20643         8.36697
     2014.01505       -11.62596         8.30799
     2014.01779       -13.34950         8.38804
     2014.02053       -11.92503         8.25041
     2014.02327        -7.23257         8.60430
     2014.02600       -10.24510         8.53268
     2014.02874       -19.49564         8.29535
     2014.03148       -16.47017         8.45264
     2014.03422       -24.97570         8.43859
     2014.03696       -14.30124         8.56217
     2014.03969       -20.60377         8.50600
     2014.04243       -10.70031         8.62958
     2014.04517       -12.76084         8.54813
     2014.04791       -14.34738         8.42455
     2014.05065       -15.97891         8.23918
     2014.05338       -16.11145         8.24620
     2014.05612       -13.88098         8.33608
     2014.05886       -19.89052         8.17458
     2014.06160       -13.20905         8.27850
     2014.06433        -3.44358         8.58745
     2014.06707         0.23888         8.42455
     2014.06981        -0.97965         8.24058
     2014.07255        -6.51919         8.11279
     2014.07529        -1.57472         8.15632
     2014.07802        -5.95426         8.23356
     2014.08076        -7.97679         8.25322
     2014.08350        -6.92433         8.13245
     2014.08624        -8.95086         8.24901
     2014.08898       -10.00740         8.49196
     2014.09171        -9.29393         8.56358
     2014.09445       -13.03446         8.24620
     2014.09719       -14.95500         8.38663
     2014.09993        -8.61353         8.55515
     2014.10266        -5.46407         8.42315
     2014.10540        -4.31560         8.44842
     2014.10814        -5.55214         8.33748
     2014.11088        -6.70667         8.44983
     2014.11362         2.13879         8.19003
     2014.11635         7.51126         8.14649
     2014.11909         9.66872         8.15211
     2014.12183        13.08219         8.34029
     2014.12457        16.75766         8.23356
     2014.12731        20.30712         8.40489
     2014.13004        11.95059         8.18441
     2014.13278         2.84905         8.50741
     2014.13552         4.13352        10.40465
     2014.13826        -2.85902         9.78394
     2014.14099        -2.34255         8.74474
     2014.14373        -4.73309         8.42736
     2014.14647        -1.10762         8.64784
     2014.14921        -2.39416         8.17739
     2014.15195        -3.69769         8.08892
     2014.15468        -5.44622         8.31782
     2014.15742        -3.10976         8.88376
     2014.16016        -3.32129         8.92730
     2014.16290       -11.28683         8.64643
     2014.16564       -10.07936         8.14649
     2014.16837        -9.93990         8.69839
     2014.17111        -8.30243         8.57200
     2014.17385        -7.15497         8.50741
     2014.17659        -7.32450         8.47511
     2014.17932        -5.89804         8.59307
     2014.18206        -1.21357         8.54251
     2014.18480         4.38890         8.25182
     2014.18754         1.37836         8.46387
     2014.19028         3.95383         8.27007
     2014.19301         6.79029         8.26024
     2014.19575        -0.65224         8.51583
     2014.19849        -1.35078         8.47370
     2014.20123        -1.64831         8.24620
     2014.20397        -3.82285         8.14790
     2014.20670        -5.08838         8.08751
     2014.20944        -4.50292         8.31361
     2014.21218        -7.85845         8.16194
     2014.21492        -9.29298         8.37259
     2014.21765        -6.54152         8.67873
     2014.22039        -9.50205         8.17177
     2014.22313        -9.61059         8.20126
     2014.22587        -6.54212         8.12683
     2014.22861        -2.58766         8.21952
     2014.23134         3.29081         8.34872
     2014.23408        -5.29573         8.54954
     2014.23682        -0.19226         8.30237
     2014.23956        -6.62980         8.33186
     2014.24777        -3.99440         8.54251
     2014.25051        -3.82793         8.11419
     2014.25325        -2.23247         8.32906
     2014.25598        -2.05900         8.41051
     2014.25872         0.50146         8.41191
     2014.26146        -0.15907         8.25182
     2014.26420         0.20539         8.27288
     2014.26694         5.99886         8.30799
     2014.26967         1.52632         8.36136
     2014.27241        -3.78721         8.42876
     2014.27515        -4.60874         8.60150
     2014.27789        -5.59628         9.49886
     2014.28062         2.59719         8.56779
     2014.28336        -3.69235         8.36557
     2014.28610        -1.43488         8.42315
     2014.28884        -5.86742         8.85989
     2014.29158        -9.89295         8.52426
     2014.29431        -5.01449         8.23356
     2014.29705        -7.52002         8.30799
     2014.29979        -1.77056         8.35012
     2014.30253        -4.33309         8.66609
     2014.30527        -3.79363         8.21671
     2014.30800        -0.48216         8.38663
     2014.31074         0.36431         8.46106
     2014.31348        -1.41723         8.34872
     2014.31622         1.80824         8.27429
     2014.31895         4.45170         8.28271
     2014.32169        -5.72683         8.61133
     2014.32443        -6.57437         8.54392
     2014.32717       -17.40090        10.87369
     2014.32991       -11.68444         8.34450
     2014.33264       -14.13097         8.29395
     2014.33538        -6.97151         8.28552
     2014.33812        -6.02704         9.49886
     2014.34086        -4.30157         8.48072
     2014.34360        -4.02111         8.27148
     2014.34633        -3.72964         8.27710
     2014.34907       -10.11218         9.02701
     2014.35181        -4.01471         8.54673
     2014.35455        -1.41925         8.29254
     2014.35728        -8.18278         8.58183
     2014.36002        -4.54232         8.32906
     2014.36276        -5.73285         8.31923
     2014.36550        -7.30639         8.33889
     2014.36824       -13.02792         8.42455
     2014.37097        -8.52745         8.24199
     2014.37371        -6.70099         8.15492
     2014.37645        -3.40552         8.26446
     2014.37919        -7.59606         8.23075
     2014.38193        -5.31459         8.29114
     2014.38466        -7.02913         8.29395
     2014.38740       -10.97466         8.18020
     2014.39014        -8.06620         8.27288
     2014.39288        -5.84573         8.22233
     2014.39561        -8.96027         8.10015
     2014.39835        -5.78480         8.15632
     2014.40109        -6.07933         8.22233
     2014.40383        -5.47987         8.33327
     2014.40657        -7.69340         8.45966
     2014.40930        -1.82294         8.31080
     2014.41204        -0.08247         8.39646
     2014.41478        -4.14601         8.30799
     2014.41752        -3.80554         8.24058
     2014.42026        -4.79008         8.31923
     2014.42299       -13.33861         8.32906
     2014.42573        -6.98315         8.38663
     2014.42847        -0.03168         8.32063
     2014.43121        -0.93621         8.31220
     2014.43394         3.04725         8.97364
     2014.43668        -2.25628         8.34731
     2014.43942        -5.43782         8.33327
     2014.44216        -2.57435         8.36697
     2014.44490        -5.39489         8.45123
     2014.44763         1.22558         8.51162
     2014.45037        -5.10896         8.30378
     2014.45311        -5.11449         8.29535
     2014.45585        -0.80203         8.44702
     2014.45859        -1.85456         8.39085
     2014.46132        -2.85809         8.30237
     2014.46406         0.09637         8.41753
     2014.46680       -12.72216         8.37961
     2014.46954        -3.98970         8.59869
     2014.47227        -0.51623         8.28693
     2014.47501        -0.16677         8.27990
     2014.47775        -0.37730         8.29676
     2014.48049        -5.40884         8.42034
     2014.48323        -1.67837         8.46247
     2014.48596        -2.10891         8.38382
     2014.48870         0.34156         8.34310
     2014.49144        -0.56697         8.11139
     2014.49418        -1.45351         8.14228
     2014.49692        -9.57204         8.23918
     2014.49965        -8.07958         8.22514
     2014.50239        -2.66211         8.49477
     2014.50513         0.75535         8.41051
     2014.50787        -1.51018         8.23356
     2014.51060        -3.77972         8.31080
     2014.51334         3.75675         8.33467
     2014.51608         3.64621         8.27990
     2014.51882        -8.98832         8.19003
     2014.52156         4.28915         8.42034
     2014.52429         0.98361         8.25463
     2014.52703        12.02908         8.77563
     2014.52977         0.06854         8.30659
     2014.53251         0.13201         8.22794
     2014.53525         1.48747         8.20969
     2014.53798         0.53594         8.23918
     2014.54072        -2.32760         8.40068
     2014.54346         4.83687         8.17739
     2014.54620        -4.14667         8.31220
     2014.54893        -2.48020         8.18301
     2014.55167        -5.48673         8.30237
     2014.55441        -0.01427         8.25884
     2014.55715        -2.63080         8.26024
     2014.55989        -2.11834         8.22373
     2014.56262         4.24113         8.17037
     2014.56536        -9.98141         8.37259
     2014.56810        -0.42294         8.19845
     2014.57084        -4.75048         8.28131
     2014.57357        -1.50001         8.35574
     2014.57631        -4.52355         8.39927
     2014.57905        -7.20908         8.14509
     2014.58453        -6.14015         8.53830
     2014.58726        -2.66268         8.58605
     2014.59000         3.02378         8.45264
     2014.59274         5.84325         8.71946
     2014.59548        -2.10429         8.19003
     2014.59822        -5.72682         8.29535
     2014.60095        -5.87836         8.54954
     2014.60369        -0.35689         8.26305
     2014.60643        -0.67043         8.18862
     2014.60917         1.72304         8.17318
     2014.61190         3.54750         8.44562
     2014.61464         3.83097         8.24339
     2014.61738        -0.37056         8.43859
     2014.62012         8.86790         8.33046
     2014.62286        -2.68663         8.17879
     2014.62559         8.98583         8.26586
     2014.62833        -2.37670         8.32203
     2014.63107        -0.64724         8.47230
     2014.63381         0.34423         8.57762
     2014.63655        -5.89631         8.53409
     2014.63928        -4.68184         8.36136
     2014.64202        -5.38138         8.34029
     2014.64476        -5.76491         8.27569
     2014.64750         5.82356         8.34029
     2014.65023        -4.57598         8.32625
     2014.65297        -7.14651        10.93548
     2014.65571        -1.13105         9.27417
     2014.65845         6.45342         8.69278
     2014.66119         3.35988         8.52426
     2014.66392         5.29035         8.60290
     2014.66666         5.78581         8.20969
     2014.66940         3.48828         8.27288
     2014.67214        -3.14326         8.51443
     2014.67488       -10.26779         8.45685
     2014.67761        -4.82232         8.42876
     2014.68035        -3.38286         8.36557
     2014.68309       -14.27139         8.32063
     2014.68583       -10.76893         8.30659
     2014.68856        -5.88146         8.29254
     2014.69130        -4.45000         8.37961
     2014.69404        -8.79753         8.53128
     2014.69678       -11.87307         8.55375
     2014.69952        -3.51460         8.12402
     2014.70225        -6.14614         8.18722
     2014.70499         2.56133         8.25322
     2014.70773         7.08180         8.20969
     2014.71047         5.87626         8.08049
     2014.71321         5.41573         7.99202
     2014.71594        -0.46681         8.82057
     2014.71868         2.62566         8.23075
     2014.72142         3.69212         8.07066
     2014.72416         2.55959         8.18722
     2014.72689        -2.70895         8.30378
     2014.72963        -0.50348         8.48774
     2014.73237        -5.21002         8.27429
     2014.73511        -3.81655         8.53549
     2014.73785        -0.79908         8.43578
     2014.74058         6.87338         8.18722
     2014.74332         0.63085         8.05662
     2014.74606        -2.29669         8.52566
     2014.74880        -9.98022         8.33327
     2014.75154        -2.95376         8.32203
     2014.75427         7.48171         8.07768
     2014.75701         8.76517         8.11279
     2014.75975         9.87964         8.02291
     2014.76249         6.81110         8.11419
     2014.76522        -4.53043         8.03836
     2014.76796         6.59604         8.49336
     2014.77070         5.71850         9.36685
     2014.77344         9.45697         8.00466
     2014.77618        11.98943         8.63520
     2014.77891         9.55390         8.27569
     2014.78165         8.31336         8.08892
     2014.78439         4.63783         8.19003
     2014.78713         6.29629         8.14509
     2014.78987         5.59276         8.12543
     2014.79260         8.90022         8.20407
     2014.79534        11.26469         8.37399
     2014.79808        12.72016         8.39646
     2014.80082        16.47862         9.21097
     2014.80355        11.99709         8.48353
     2014.80629         9.32655         8.48072
     2014.80903         1.10302         8.30799
     2014.81177         3.53548         8.24339
     2014.81451         2.99195         8.20828
     2014.81724         7.73141         8.32484
     2014.81998        -1.19912         8.48213
     2014.82272         5.62034         8.84585
     2014.82546        14.42381         8.23216
     2014.82820        10.74128         8.10998
     2014.83093         9.53174         8.11700
     2014.83367         9.78121         8.14088
     2014.83641        12.66167         8.10858
     2014.83915        11.26514         8.17458
     2014.84188         8.00560         9.33877
     2014.84462         6.42707         8.48072
     2014.84736        13.24653         8.22794
     2014.85010         8.01700         8.47932
     2014.85284         8.37546         8.21531
     2014.85557        12.60693         8.23637
     2014.85831         2.49840         9.43566
     2014.86105        -4.55814         8.14228
     2014.86379        -2.42567         8.14509
     2014.86653        -6.44521         8.10717
     2014.86926        -1.95474         8.14369
     2014.87200        -0.94728         8.73631
     2014.87474        -5.11481         8.83461
     2014.87748        -0.54035         8.19565
     2014.88021        -1.89588         8.33467
     2014.88295         8.36858         8.14790
     2014.88569         1.68505         8.65205
     2014.88843         2.28851         8.62116
     2014.89117         9.42698         8.70542
     2014.89390         3.24845         8.63801
     2014.89664         2.28291         8.41472
     2014.89938         0.20838         8.42034
     2014.90212        -8.47816         8.43157
     2014.90485        -8.85669         8.36416
     2014.90759        -2.75223         8.27569
     2014.91033         2.90724         8.32765
     2014.91307         7.14670         8.33889
     2014.91581         8.21117         8.36416
     2014.91854         5.14663         8.43578
     2014.92128         5.04810         8.30237
     2014.92402         4.67457         8.38523
     2014.92676        -0.80397         8.30940
     2014.92950         3.94250         8.39366
     2014.93223         1.35196         9.12671
     2014.93497        -1.30357         8.35995
     2014.93771         6.96589         8.26446
     2014.94045        10.77936         8.24901
     2014.94318        10.98482         8.23918
     2014.94592        12.61729         8.75176
     2014.94866         1.89575         8.21952
     2014.95140         6.18822         8.33186
     2014.95414         8.08869         8.81495
     2014.95687        11.70815         8.32765
     2014.95961        16.47962         8.30378
     2014.96235        10.06808         8.17458
     2014.96509         7.54355         8.46387
     2014.96783         5.03201         8.34310
     2014.97056         6.85448         8.63801
     2014.97330         1.66994         9.13514
     2014.97604         1.69941         8.59026
     2014.97878         5.76287         8.84023
     2014.98151         7.76734         8.45264
     2014.98425         7.80281         8.52004
     2014.98699         4.47627         8.17598
     2014.98973        -2.41326         8.31642
     2014.99247        -3.15180         8.93151
     2014.99520        -4.48933         8.52707
     2014.99794         4.32413         8.28833
     2015.00068         6.62860         8.17458
     2015.00342         0.39406         8.42315
     2015.00616       -10.55847         8.20688
     2015.00889        -2.41101         9.92718
     2015.01163         3.83146         8.36978
     2015.01437         3.37893         8.25603
     2015.01711        -3.10361         9.53256
     2015.01984        -1.20014         8.15352
     2015.02258         5.86232         8.18862
     2015.02532         1.37479         8.16896
     2015.02806         1.31425         8.17318
     2015.03080         6.80372         8.16194
     2015.03353         6.23518         8.18160
     2015.03627         9.09265         8.17177
     2015.03901        13.63611         8.15352
     2015.04175        13.42558         8.32063
     2015.04449         7.79305         8.24480
     2015.04722        12.07751         8.12122
     2015.04996        10.08298         8.12683
     2015.05270        11.49544         8.14088
     2015.05544         9.16291         8.27569
     2015.05817         9.46337         8.29535
     2015.06091        12.61384         8.30799
     2015.06365        19.34930         8.61273
     2015.06639         8.19077         8.17318
     2015.06913         4.78023         8.54111
     2015.07186        -4.15830         8.33608
     2015.07460         4.00917         8.36276
     2015.07734        -3.04237         8.38804
     2015.08008        -4.84590         8.43298
     2015.08282        -5.10244         8.25884
     2015.08555        -0.75397         8.39366
     2015.08829         6.70649         8.98347
     2015.09103         1.70196         8.39787
     2015.09377         3.97842         8.29395
     2015.09650        -2.39711         8.57622
     2015.09924        11.51935         8.60711
     2015.10198         7.91082         9.12531
     2015.10472        -1.62371         8.36838
     2015.10746        -0.83125         8.21671
     2015.11019        -5.81178         8.40068
     2015.11293         7.81368         8.55656
     2015.11567         4.02115         8.17318
     2015.11841        10.57461         8.37821
     2015.12115         1.99808         8.20407
     2015.12388         1.99754         8.33186
     2015.12662         2.12801         8.25041
     2015.12936         3.89747         8.69137
     2015.13210         4.42994         8.71244
     2015.13483        -3.69959         8.21811
     2015.13757        -7.60913         8.19424
     2015.14031        -2.91266         8.24480
     2015.14305        -3.31420         8.22935
     2015.14579         7.00827         9.87241
     2015.14852        -2.48327         8.95819
     2015.15126        -6.92080         8.09734
     2015.15400        -8.78534         8.14930
     2015.15674       -10.89687         8.12262
     2015.15948        -4.96941         8.42174
     2015.16221        -9.33694         9.04245
     2015.16495        -5.53347         9.64912
     2015.16769        -0.72401         8.25041
     2015.17043        -1.00354         8.27990
     2015.17316        -0.23708         8.26165
     2015.17590        -6.46661         8.71665
     2015.17864         0.52285         8.51724
     2015.18138         0.08832         8.31080
     2015.18412        -0.92422         8.13807
     2015.18685        -4.09675         8.12543
     2015.18959        -2.93029         8.28693
     2015.19233         9.91318         8.72227
     2015.19507         5.24664         8.19424
     2015.19780        -1.00189         8.15071
     2015.20054        -3.22842         8.14509
     2015.20328        -7.48596         8.13105
     2015.20602         4.84251        12.52799
     2015.20876        -4.39103         9.39354
     2015.21149        -5.30456         9.12671
     2015.21423        -3.33910         8.56217
     2015.21697        -6.17463         8.07066
     2015.21971        -6.04117         8.74755
     2015.22245        -4.76370         8.29395
     2015.22518        -4.19224         8.17739
     2015.22792        -4.93677         8.14930
     2015.23066        -0.12230         8.13807
     2015.23340        -3.29684         8.52566
     2015.23613        -5.07337         8.81355
     2015.23887         2.44309         9.02841
     2015.24161         1.87856         8.81214
     2015.24435        -2.40298         9.00454
     2015.24709         1.42749         8.46247
     2015.24982        -3.16305         8.31923
     2015.25256        -4.41658         8.29957
     2015.25530        -6.87712         8.18581
     2015.25804        -7.64065         8.16194
     2015.26078        -4.69318         8.11841
     2015.26351        -3.46572         8.21811
     2015.26625         0.47375         8.16054
     2015.26899         0.33221         8.25884
     2015.27173         7.88768         9.25732
     2015.27446        -6.06186         9.67861
     2015.27720        -5.56439         8.19565
     2015.27994        -4.95893         8.33046
     2015.28268        -9.72346         8.76861
     2015.28542        -8.76900         8.99190
     2015.28815       -11.27453         9.92016
     2015.29089       -16.19606         8.70682
     2015.29363        -7.96760         8.35153
     2015.29637        -5.43413         8.30940
     2015.29911        -4.10567         8.31361
     2015.30184        -2.30420         8.83321
     2015.30458        -8.80474         8.31782
     2015.30732        -8.10627         8.12824
     2015.31006       -10.85781         8.17739
     2015.31279       -12.80334         8.18301
     2015.31553        -8.69088         8.11700
     2015.31827        -8.92241         8.25041
     2015.32101       -16.79294         8.23216
     2015.32375        -4.43048         8.18581
     2015.32648        -5.55301         8.23075
     2015.32922        -7.98055         8.23075
     2015.33196       -11.35908         8.11139
     2015.33470        -9.47362         8.19845
     2015.33744       -14.10715         8.13807
     2015.34017       -15.61169         8.26446
     2015.34291       -15.37422         9.27698
     2015.34565        -6.73676         8.12402
     2015.34839       -10.02929         8.15913
     2015.35112        -6.74282         8.15632
     2015.35386       -11.13136         8.48634
     2015.35660       -11.98189         8.95117
     2015.35934       -12.71643         9.51571
     2015.36208       -15.12296         9.23485
     2015.36481        -8.97950         8.16615
     2015.36755        -4.96903         8.31782
     2015.37029       -10.95257         8.11841
     2015.37303       -12.00410         8.11279
     2015.37577       -14.73164         8.41191
     2015.37850       -12.18117         8.63660
     2015.38124        -5.37170         8.25322
     2015.38398        -8.79724         8.16475
     2015.38672        -8.60377         8.04679
     2015.38945       -10.09331         8.19284
     2015.39219        -8.51484         8.15773
     2015.39493        -4.68338         8.20267
     2015.39767        -6.63891         8.24480
     2015.40041        -8.68145         8.20407
     2015.40314       -11.13298         8.48353
     2015.40588       -20.15752         8.22654
     2015.40862        -6.34205         8.18581
     2015.41136        -2.94058         8.17037
     2015.41410        -9.52412         8.28271
     2015.41683        -5.98565         8.09734
     2015.41957        -2.87719         8.09875
     2015.42231         0.48528         8.12122
     2015.42505         0.64774         8.48072
     2015.42778        -3.63079         8.18722
     2015.43052         3.65567         8.18441
     2015.43326        -6.13586         9.54801
     2015.43600        -2.14740         8.19143
     2015.43874         1.31407         8.27850
     2015.44147        -5.51246         8.60711
     2015.44421        -6.97000         8.15352
     2015.44695        -3.95853         8.24620
     2015.44969       -16.97607         8.37680
     2015.45243        -7.37860         8.93432
     2015.45516        -8.64814         8.29957
     2015.45790        -7.21567         8.97224
     2015.46064        -6.11321         8.39085
     2015.46338        -1.05174         8.31501
     2015.46611        -0.90928         8.23497
     2015.46885         1.47619         8.17879
     2015.47159        -3.93434         8.76018
     2015.47433        -7.09688        10.48891
     2015.47707        -2.07941         8.73350
     2015.47980         1.80105         9.80641
     2015.48254         1.80452         8.29957
     2015.48528         3.34998         8.21531
     2015.48802        -1.50255         8.21531
     2015.49076         2.14291         8.15632
     2015.49349         3.86738         8.52426
     2015.49623        -2.43716         8.45545
     2015.49897         4.29631         8.36557
     2015.50171        -0.64323         8.20688
     2015.50444        -4.10376         8.33467
     2015.50718        -1.13929         8.67171
     2015.50992        -3.29583         8.36557
     2015.51266        -5.80836         8.27990
     2015.51540         0.81810         8.24199
     2015.51813         4.56857         8.16054
     2015.52087        -0.27197         8.37961
     2015.52361        -1.82950         8.87955
     2015.52635         0.57596         8.32625
     2015.52908        -2.40357        10.01425
     2015.53182         6.04189         8.23497
     2015.53456        -0.93164         8.15071
     2015.53730        -0.60917         8.24901
     2015.54004        -0.49871         8.28974
     2015.54277         5.91276         8.27148
     2015.54551         1.47622         8.34872
     2015.54825         0.17269         8.31080
     2015.55099        -2.25685         8.40770
     2015.55373         5.57662         8.47089
     2015.55646         6.64408         9.27417
     2015.55920         9.40555         8.38804
     2015.56194        11.52401         8.46808
     2015.56468         3.78548         8.42736
     2015.56741         4.56795         8.81495
     2015.57015         5.09441         8.58464
     2015.57289        -8.66612         8.37259
     2015.57563        -7.22266         8.39787
     2015.57837        -0.41619         8.58745
     2015.58110        -5.37573         8.36416
     2015.67145         2.02163         8.12122
     2015.67419        -1.08290         9.07897
     2015.67693        -3.12844         8.30659
     2015.67967        -1.53897         8.35714
     2015.68240         1.95749         9.25591
     2015.68514         0.99496         8.36276
     2015.68788         5.63643        11.94941
     2015.69062         8.43489         8.20407
     2015.69336         9.27136         9.90471
     2015.69609         9.24482         8.14930
     2015.69883         8.89429         8.25463
     2015.70157         2.69775         8.21109
     2015.70431         6.43922         8.12964
     2015.70705         4.61668         8.09313
     2015.70978        10.25115         8.21250
     2015.71252        16.48961         8.55094
     2015.71526         4.31008         8.46668
     2015.71800         8.66355         9.49465
     2015.72073        11.31301         8.08049
     2015.72347         3.31548         8.12964
     2015.72621         2.69094         8.32344
     2015.72895         2.27541         8.01168
     2015.73169         9.15887         7.98078
     2015.73442         4.63334         8.00044
     2015.73716         9.51280         8.09453
     2015.73990        13.45527         8.23637
     2015.74264         5.56373         8.22794
     2015.74538         5.38220         8.63801
     2015.74811        -3.06233         8.48353
     2015.75085        -9.56887         8.48213
     2015.75359        -3.70340         8.45545
     2015.75633         2.84906         8.75176
     2015.75906        -1.52847         8.89640
     2015.76180         0.79899         8.31642
     2015.76454         3.08146        10.63636
     2015.76728         3.03892         8.84304
     2015.77002        12.69839         8.23216
     2015.77275         9.11985         8.06083
     2015.77549         8.73732         8.00887
     2015.77823         6.88479         8.51302
     2015.78097         8.21625         8.59728
     2015.78371         3.79172         8.28974
     2015.78644         4.10618         8.01308
     2015.78918         3.40265         7.91478
     2015.79192         9.92311         8.14930
     2015.79466         6.77058         8.63941
     2015.79739         5.91404         8.09734
     2015.80287         7.00797         8.02291
     2015.80561         8.77244         8.08892
     2015.80835         7.79690         8.05521
     2015.81108         6.17737         8.05381
     2015.81382         5.91284         8.09032
     2015.81656         2.35730         7.99483
     2015.81930        -1.32123         7.95691
     2015.82203         7.58523         7.99483
     2015.82477         9.06070         8.06645
     2015.82751         9.76116         8.11560
     2015.83025         0.86863         7.95831
     2015.83299        -2.25391         8.53971
     2015.83572         2.42656         7.95691
     2015.83846         0.20002         9.37528
     2015.84120        -3.06351         8.91606
     2015.84394        -2.04204         8.19705
     2015.84668         8.09942         7.94708
     2015.84941        -1.48211        10.04093
     2015.85215        -3.12265         8.03555
     2015.85489         0.42182         9.04245
     2015.85763         0.34028         8.56639
     2015.86036         3.86375         8.26727
     2015.86310         8.96221         8.09875
     2015.86584        14.06868         8.21952
     2015.86858         4.28614         8.15913
     2015.87132         2.90061         8.07909
     2015.87405         2.11108         8.34591
     2015.87679         0.43354         8.19143
     2015.87953        -0.73199         8.22514
     2015.88227         1.38847         8.19003
     2015.88501         2.18894         8.19003
     2015.88774         5.93040         8.12262
     2015.89048         1.79087         8.14509
     2015.89322        -3.30567         8.12262
     2015.89596         3.57180         8.15071
     2015.89869         3.35526         8.13947
     2015.90143         2.80573         8.17458
     2015.90417         4.89620         8.29254
     2015.90691         9.69866         8.29254
     2015.90965         4.95213         8.14088
     2015.91238         0.75559         8.53830
     2015.91512        -2.20094         8.29676
     2015.91786         3.74452         8.18160
     2015.92060         1.96199         8.26446
     2015.92334         0.23145         8.11841
     2015.92607        -3.41608         8.02151
     2015.92881        -1.09462         8.26024
     2015.93155         4.15585         8.47089
     2015.93429         4.01232         8.26586
     2015.93702         6.82978         8.20548
     2015.93976         7.40225         8.38102
     2015.94250         1.49671         8.46528
     2015.94524         4.60118         8.28271
     2015.94798        -0.73936         8.35714
     2015.95071         8.73711         8.31923
     2015.95345         6.13857         8.07628
     2015.95619         6.26204         7.98640
     2015.95893         0.76050         8.18160
     2015.96167         7.14897         8.31501
     2015.96440         6.16044         8.19565
     2015.96714        14.10790        13.12483
     2015.96988         2.00037        10.88072
     2015.97262        15.58483         8.16475
     2015.97535         4.67930         8.08611
     2015.97809        -1.69024         8.18020
     2015.98083        -4.50977         8.10156
     2015.98357        -6.00331         8.05521
     2015.98631        -7.79984         8.05100
     2015.98904        -4.23338         7.94568
     2015.99178        -2.98891         8.01730
     2015.99452        -4.74144         8.01168
     2015.99726         7.27702         9.07897
     2016.00000         8.03349         8.72788
     2016.00273         9.19995         7.95129
     2016.00547        -4.03458         7.99342
     2016.00821       -11.39312         8.00606
     2016.01095       -12.41765         8.00466
     2016.01368        -9.66819         7.98640
     2016.01642       -12.58672         8.05802
     2016.01916        -9.11426         8.31220
     2016.02190        -5.97079         8.23637
     2016.02464        -4.17632         8.01449
     2016.02737       -10.25686         8.04257
     2016.03011        -7.78539         7.94006
     2016.03285        -5.13293         7.92601
     2016.03559        -8.90746         7.98078
     2016.03833       -10.69400         8.24480
     2016.04106        -2.23053         8.02010
     2016.04380        -1.70107         7.91057
     2016.04654        -2.89460         7.91899
     2016.04928        -7.82114         8.04117
     2016.05201       -11.40267        10.51840
     2016.05475       -10.25820         8.55656
     2016.05749        -9.85174         8.01308
     2016.06023        -6.01727         7.99764
     2016.06297        -1.12881         7.92040
     2016.06570        -1.33934         8.24480
     2016.06844         1.79812         8.27148
     2016.07118         6.96059         8.29114
     2016.07392         9.64605         8.40770
     2016.07666         6.23052         8.52566
     2016.07939         3.94698         8.23918
     2016.08213        -3.49855         8.57762
     2016.08487        -1.22708         8.58183
     2016.08761        -3.89862         8.30518
     2016.09034        -5.50215         8.49196
     2016.09308         4.51831         8.32765
     2016.09582         2.94678         8.30940
     2016.09856        -6.95576         8.27288
     2016.10130        -2.56529         8.36557
     2016.10403        -0.93583         8.46528
     2016.10677        -1.29236         8.38804
     2016.10951       -10.02090         8.26446
     2016.11225        -0.95643         8.58605
     2016.11498         2.16703         8.61835
     2016.11772        -6.57050         8.29395
     2016.12046        -6.44303         8.40068
     2016.12320        -2.59957         8.22373
     2016.12594       -10.09010         9.44128
     2016.12867         1.90536         8.85849
     2016.13141         2.51583         8.60150
     2016.13415        -1.77071         8.43438
     2016.13689         6.23376         8.25744
     2016.13963         3.88122         8.20126
     2016.14236        -7.52531         8.18020
     2016.14510        -7.06985         8.12964
     2016.14784        -1.79338         8.18160
     2016.15058         7.67109         8.19705
     2016.15331        -0.28345         8.31501
     2016.15605         3.38802         8.11279
     2016.15879         6.81648         8.27148
     2016.16153         1.96195         8.23216
     2016.16427         1.33141         8.23075
     2016.16700        -1.64912         8.22654
     2016.16974        -1.09766         8.15913
     2016.17248         1.35781         8.35995
     2016.17522         1.28427         8.14790
     2016.17796         1.24074         8.59728
     2016.18069         6.51221         8.59307
     2016.18343         1.90367         8.62116
     2016.18617         5.94014         8.19565
     2016.18891         1.46460         8.17318
     2016.19164         3.23007         8.81495
     2016.19438         5.75553         8.12543
     2016.19712         0.18700         8.13807
     2016.19986        -1.27054         8.39085
     2016.20260         0.86393         8.96522
     2016.20533        -4.81761         8.97505
     2016.20807        -9.51514         8.71946
     2016.21081        -7.43567         8.54673
     2016.21355        -2.07621         8.52004
     2016.21629        -4.31874         8.14088
     2016.21902        -5.86628         8.12964
     2016.22176        -2.49581         8.14649
     2016.22450        -5.40635         8.21952
     2016.22724        -4.09588         8.19424
     2016.22997        -6.63142         8.16615
     2016.23271        -1.87295         8.20548
     2016.23545        -1.80849         8.19565
     2016.23819        -4.65602         8.12683
     2016.24093        -4.30955         8.33046
     2016.24366        -4.72309         8.24339
     2016.24640        -7.51362         8.12402
     2016.24914        -4.13716         8.06926
     2016.25188         0.98731         8.17879
     2016.25462        -1.53523         8.34731
     2016.25735        -2.53376         8.17879
     2016.26009        -0.84430         8.17739
     2016.26283        -8.65283         8.18581
     2016.26557         1.28263         8.18581
     2016.26830         0.62410         8.11841
     2016.27104        -2.51743         8.16335
     2016.27378        -1.00797         8.24339
     2016.27652         0.65150         8.24058
     2016.27926        -4.64704         8.31782
     2016.28199        -4.19257         8.93292
     2016.28473        -7.32911         8.86270
     2016.28747        -6.67164         8.22233
     2016.29021       -10.59318         8.34591
     2016.29295        -5.18671         8.37680
     2016.29568        -2.85025         8.11560
     2016.29842        -1.85378         8.40349
     2016.30116        -4.61531         8.53830
     2016.30390        -9.41185         8.21531
     2016.30663        -4.67438         8.25182
     2016.30937        -4.20792         8.18441
     2016.31211        -7.36745         8.30378
     2016.31485        -7.25899         8.16756
     2016.31759         4.01848         8.23356
     2016.32032        -3.43906         8.27710
     2016.32306       -13.36859         8.18160
     2016.32580        -0.67613         8.17739
     2016.32854        -3.99866         8.22092
     2016.33128        -2.15419         8.41893
     2016.33401        -0.05173         8.85989
     2016.33675        -8.72826         8.49055
     2016.33949        -5.09780         8.29535
     2016.34223        -7.59133         8.30799
     2016.34496        -2.37287         8.74474
     2016.34770        -2.65940         8.38242
     2016.35044        -2.84794        11.69523
     2016.35318       -11.13547         8.58745
     2016.35592       -14.32801         8.46528
     2016.35865       -15.40054         8.25322
     2016.36139       -10.57907         8.14228
     2016.36413        -7.01861         8.26024
     2016.36687        -7.03514         8.56498
     2016.36961        -0.97368         8.56920
     2016.37234         1.81679         8.96522
     2016.37508        -2.73775         8.29535
     2016.37782       -11.83928         8.40629
     2016.38056        -8.39882         8.47370
     2016.38329        -9.89835         8.35153
     2016.38603       -10.80289         8.45545
     2016.38877         0.70658         8.38663
     2016.39151        -5.39496         8.30518
     2016.39425        -7.18949         8.30659
     2016.39698         1.34498         8.36557
     2016.39972        -0.31156         8.45825
     2016.40246       -12.06709         8.59728
     2016.40520       -11.35863         8.37119
     2016.40794        -6.25916         8.38804
     2016.41067       -12.37870         8.44983
     2016.41341        -6.45223         8.27429
     2016.41615        -0.07477         8.28974
     2016.41889        -5.76830         8.26165
     2016.42162        -3.32284         8.40208
     2016.42436       -10.04837         8.34450
     2016.42710        -6.95390         8.77844
     2016.42984        -1.58844         8.85287
     2016.43258        -1.05397         8.29676
     2016.43531        -1.06051         8.37540
     2016.43805        -2.15604         8.39085
     2016.44079        -0.40958         8.44983
     2016.44353        -9.25811         8.43719
     2016.44626        -3.55565         8.31501
     2016.44900        -5.14318         8.45264
     2016.45174        -3.49072         8.32063
     2016.45448        -7.03225         8.64784
     2016.45722        -7.62378         8.34731
     2016.45995        -2.63932         8.41332
     2016.46269       -10.29785         8.33748
     2016.46543        -4.30239         8.32063
     2016.46817        -3.07692         8.39506
     2016.47091         3.96854         8.37680
     2016.47364        -1.13299         8.41893
     2016.47638         0.21347         8.36838
     2016.47912         1.78194         8.65486
     2016.48186        -4.48360         8.35153
     2016.48459        -3.15013         8.39927
     2016.48733        -5.99566         8.32906
     2016.49007        -6.70820         8.39085
     2016.49281       -10.27773         8.43859
     2016.49555        -3.34727         8.27850
     2016.49828        -3.91180         8.38804
     2016.50102        -1.09934         8.38382
     2016.50376         1.53613         8.69699
     2016.50650        -5.51641         8.57200
     2016.50924        -0.62494         8.38242
     2016.51197        -7.33848         8.30237
     2016.51471        -6.94001         9.20255
     2016.51745        -7.77854         9.33034
     2016.52019        -9.88508         8.55656
     2016.52292         0.32639         8.46387
     2016.52566        -4.00215         8.39085
     2016.52840        -8.79268         8.58605
     2016.53114       -15.93822         8.39927
     2016.53388        -7.43175         8.56358
     2016.53661        -6.85829         8.44000
     2016.53935       -14.16082         8.39646
     2016.54209        -9.07136         8.47932
     2016.54483         2.13311         8.33467
     2016.54757       -11.17142         8.34872
     2016.55030        -8.60896         8.69137
     2016.55304        -4.28949         8.31642
     2016.55578        -6.39803         8.59167
     2016.55852         0.81144         8.36978
     2016.56125         3.56890         8.34731
     2016.56399         4.20737         9.50448
     2016.56673        -5.57917         8.39646
     2016.56947        -5.68470         8.35293
     2016.57221        -7.71424         8.77423
     2016.57494        -3.56477         8.57200
     2016.57768        -2.11430         8.24901
     2016.58042       -12.53684         8.25182
     2016.58316        -4.89137         8.32765
     2016.58590        -7.23091         8.31080
     2016.58863        -3.61844         9.78253
     2016.59137        -2.10998         8.99049
     2016.59411        -1.21451         8.64784
     2016.59685        -2.77405         8.55796
     2016.59958        -3.27658         8.44842
     2016.60232         2.24188         8.53268
     2016.60506        -5.01365         8.64363
     2016.60780         1.31982         8.64784
     2016.61054         1.88028         8.38102
     2016.61327        -1.53725         8.33608
     2016.61601         1.63521         8.37961
     2016.61875        -1.52432         8.33748
     2016.62149         0.31114         8.29676
     2016.62423        -5.27839         8.60992
     2016.62696        -4.44593         8.41612
     2016.62970        -1.83646         8.28412
     2016.63244       -14.70100         8.50038
     2016.63518        -8.07553         8.29254
     2016.63791         1.65894         8.30097
     2016.64065         4.66440         8.32063
     2016.64339         3.03087         8.50179
     2016.64613        -8.48467         8.60009
     2016.64887        -6.09020         8.35714
     2016.65160        -0.70274         8.43719
     2016.65434        -4.88127         8.32765
     2016.65708        -8.00981         8.34450
     2016.65982        -5.97534         8.38523
     2016.66256        -7.31988         8.53128
     2016.66529        -5.89941         8.31220
     2016.66803         0.30406         9.21940
     2016.67077        -9.44048         9.03262
     2016.67351        -1.69501         9.22923
     2016.67624         0.08045         8.87393
     2016.67898         5.30592         8.34450
     2016.68172         4.13038         8.34731
     2016.68446         2.71385         8.77001
     2016.68720        -2.77669         9.09301
     2016.68993         0.05178         8.39506
     2016.69267         1.00224         8.31080
     2016.69541         0.60071         8.28974
     2016.69815         6.67117         8.30378
     2016.70089         6.68464         8.36978
     2016.70362         1.91411         8.53549
     2016.70636         2.28257         8.87253
     2016.70910         6.93404         8.62256
     2016.71184         6.68750         8.22935
     2016.71457         5.85397         8.31080
     2016.71731         2.52643         8.55515
     2016.72005         3.14590         8.52145
     2016.72279         7.70236         8.31782
     2016.72553         5.29183         8.59588
     2016.72826        12.42729         8.64082
     2016.73100         5.43676         8.25463
     2016.73374        11.56723         8.43578
     2016.73648         1.40569         8.47932
     2016.73921         3.80216         8.65065
     2016.74195         2.62162         8.63660
     2016.74469        -2.09991         9.66036
     2016.74743        -5.75445         8.31782
     2016.75017         3.09602         8.39085
     2016.75290         5.75648         8.39646
     2016.75564         8.46495         8.21671
     2016.75838         3.27441         9.11407
     2016.76112         2.84588         8.27850
     2016.76386         5.51935         8.27007
     2016.76659         4.05781         8.25603
     2016.76933         4.43428         8.29957
     2016.77207         1.83674         8.21390
     2016.77481         4.33021         8.31501
     2016.77754        11.35367         8.32484
     2016.78028         3.87714         8.21531
     2016.78302         2.94660        11.17001
     2016.78576         2.58707         8.82759
     2016.78850         9.23753         8.18722
     2016.79123        14.16600         8.28974
     2016.79397         9.03447         8.37821
     2016.79671         8.75993         8.30659
     2016.79945         6.33840         8.16896
     2016.80219        10.35886         8.13385
     2016.80492        12.03733         8.11981
     2016.80766        13.02179         8.09313
     2016.81040         1.27626         8.34731
     2016.81314         9.42472         8.44421
     2016.81587         8.67019         9.17306
     2016.81861         9.09365         8.80091
     2016.82135        14.37312         8.43157
     2016.82409        11.17459         8.29254
     2016.82683        12.62305         9.26995
     2016.82956        16.72052         8.39085
     2016.83230        18.89798         8.10436
     2016.83504        21.77145         8.31923
     2016.83778        18.62291         8.11419
     2016.84052        23.60938         8.67171
     2016.84325        24.20684         8.25041
     2016.84599        20.51231         8.20828
     2016.84873        19.81677         8.18301
     2016.85147        15.81124         8.18020
     2016.85420        14.16771         8.09313
     2016.85694        11.68617         8.29535
     2016.85968        10.95564         9.13935
     2016.86242        18.10210         8.21250
     2016.86516        13.81557         8.21531
     2016.86789         7.01603         8.14790
     2016.87063        15.94150         8.10436
     2016.87337        11.95396         8.10296
     2016.87611         5.16243         8.15071
     2016.87885        -0.86311         8.19424
     2016.88158        -3.36764         8.10577
     2016.88432         0.86683         8.08611
     2016.88706         9.07729         8.07909
     2016.88980         9.52076         8.15211
     2016.89253         6.71222         8.13105
     2016.89527         7.23869         8.14649
     2016.89801         7.03115         8.97364
     2016.90075         1.26562         8.20688
     2016.90349         8.70808         8.31501
     2016.90622        12.33355         8.27569
     2016.90896         7.82601         8.17177
     2016.91170         5.98248         8.14509
     2016.91444        14.65495         8.15492
     2016.91718        10.47041         8.29816
     2016.91991        10.01288         8.37680
     2016.92265        12.46234         8.26727
     2016.92539         7.96581         8.19986
     2016.92813        -3.35973         8.11700
     2016.93086         0.31574         8.20267
     2016.93360         2.55120         8.24339
     2016.93634         2.95667         8.24761
     2016.93908         1.96113         8.41051
     2016.94182         2.64860         8.24761
     2016.94455        -0.72593         8.14509
     2016.94729         2.26153         8.23778
     2016.95003         2.68700         8.25322
     2016.95277         1.84046         8.19565
     2016.95551         4.24693         8.26305
     2016.95824         9.53639         8.15492
     2016.96098        18.11586         8.19424
     2016.96372        15.01732         8.23497
     2016.96646        19.38079         8.21109
     2016.96919        20.91425         8.25463
     2016.97193        15.65072         8.53971
     2016.97467        15.39619         8.48353
     2016.97741        17.25665         8.39225
     2016.98015         3.33512         8.27148
     2016.98288        13.86258         8.50741
     2016.98562        17.09105         8.27710
     2016.98836        22.68751         8.20828
     2016.99110        22.16098         8.24761
     2016.99384        17.34044         8.24199
     2016.99657        14.35691         8.27007
     2016.99931        12.98137         8.86270
     2017.00205         7.66484         8.34029
     2017.00479         1.93630         8.24058
     2017.00752         2.58677         8.27990
     2017.01026        -3.23476         8.13245
     2017.01300         4.64570         8.15913
     2017.01574        -1.83983         8.12543
     2017.01848        -2.99137         8.27850
     2017.02121        -6.06990         8.27990
     2017.02395         5.32756         8.10717
     2017.02669         3.65903         8.27850
     2017.02943         5.37749         8.13385
     2017.03216        10.52396         8.21250
     2017.03490        10.62342         8.28552
     2017.03764        13.32689         8.25603
     2017.04038        12.12036         8.16475
     2017.04312        16.88482         8.15211
     2017.04585        19.65729         8.45545
     2017.04859        17.41075         8.60711
     2017.05133        18.55322         8.31361
     2017.05407        19.52868         8.22233
     2017.05681        15.80015         8.17177
     2017.05954        10.52661         8.14649
     2017.06228        13.48908         8.17458
     2017.06502        16.47054         8.21671
     2017.06776        15.26901         8.20126
     2017.07049        17.25848         8.27288
     2017.07323        18.65694         8.27569
     2017.07597        11.76541         8.14790
     2017.07871         9.93887         8.15632
     2017.08145         6.88234         8.16896
     2017.08418         0.08580         8.33327
     2017.08692         1.59327         8.41051
     2017.08966        -1.63327         8.14509
     2017.09240        -0.73980         8.22514
     2017.09514         8.08566         8.16335
     2017.09787        10.49113         8.22092
     2017.10061        10.44660         8.21250
     2017.10335        15.24306         8.19424
     2017.10609        11.55453         8.14369
     2017.10882        24.71999         8.17037
     2017.11156        26.59346         8.20548
     2017.11430        23.37292         8.23637
     2017.11704        12.26239         8.25744
     2017.11978        24.51285         8.19845
     2017.12251        23.00032         8.17739
     2017.12525        32.29778         8.23356
     2017.12799        12.82625         8.25884
     2017.13073        11.63372         8.45123
     2017.13347        13.06918         8.08611
     2017.13620         9.62865         8.14930
     2017.13894         8.02911         8.12402
     2017.14168         1.67858         8.10296
     2017.14442         4.74004         8.25463
     2017.14715        -4.18349         8.27288
     2017.14989         0.58997         8.19845
     2017.15263        -4.41256         8.15913
     2017.15537         7.53790         8.07206
     2017.15811         3.95537         8.44842
     2017.16084         3.57484         8.25182
     2017.16358        -8.47970         9.04948
     2017.16632         3.21177         8.81776
     2017.16906        -2.58077         8.56358
     2017.17180         1.00670         8.19986
     2017.17453         0.57516         8.26024
     2017.17727         1.19263         8.60150
     2017.18001        -4.18991         8.17177
     2017.18275        -3.80444         8.19424
     2017.18548        -7.35798         8.23637
     2017.18822        -6.99251         8.33467
     2017.19096        -2.18604         8.16054
     2017.19370         3.90242         8.21109
     2017.19644         1.75789         8.14930
     2017.19917         7.20135         8.14509
     2017.20191         4.91082         8.19845
     2017.20465         3.70528         8.22233
     2017.20739         3.90675         8.23216
     2017.21013         7.37021         8.15913
     2017.21286         5.85968         8.19143
     2017.21834         5.72261         8.70120
     2017.22108        -1.98392         8.35995
     2017.22381         6.17454         8.38944
     2017.22655         3.06901         8.38804
     2017.22929         2.69147         8.13385
     2017.23203         2.95894         8.20267
     2017.23477         1.99040         9.59857
     2017.23750         3.35987         8.52707
     2017.24024        -0.27267         8.57481
     2017.24298         4.73380         8.28833
     2017.24572         9.99826         8.72227
     2017.24846         5.23973         8.54392
     2017.25119        -0.02280         8.22794
     2017.25393        -3.97834         8.27288
     2017.25667         2.24413         8.98909
     2017.25941         5.98659         8.21811
     2017.26214         9.76106         8.31782
     2017.26488         3.75052         8.34450
     2017.26762         8.10199         8.31782
     2017.27036        -0.61655         8.38663
     2017.27310        -4.87308         8.15492
     2017.27583        -4.58362         8.34310
     2017.27857        -8.31815         8.25322
     2017.28131        -5.41168         8.10436
     2017.28405        -7.91422         8.26867
     2017.28679        -1.95275         8.15071
     2017.28952         1.09471         8.15632
     2017.29226        -3.66582         8.16896
     2017.29500        -2.82636         8.19424
     2017.29774        -2.60989         8.45123
     2017.30047        -3.14343         8.60009
     2017.30321         1.46104         8.19284
     2017.30595        -5.16650        10.05638
     2017.30869        -2.29003         9.36545
     2017.31143         1.32843         8.38523
     2017.31416         1.76090         8.30799
     2017.31690         3.23337         8.13385
     2017.31964         2.74783         8.28693
     2017.32238        -0.16370         8.32625
     2017.32512        -3.86124         8.21109
     2017.32785         0.32923         8.23918
     2017.33059         0.64469         8.13947
     2017.33333         1.90016         8.13807
     2017.33607         3.98662         8.15211
     2017.33880        -0.94691         8.19565
     2017.34154         4.10355         8.43578
     2017.34428        -0.62298         8.15773
     2017.34702         7.91549         8.20828
     2017.34976         2.88195         8.18020
     2017.35249         1.97342         8.26867
     2017.35523        -5.34012         8.17458
     2017.35797        -3.23065         8.18722
     2017.36071        -6.07619         8.21531
     2017.36344        -0.84672         8.17879
     2017.36618         5.38574         8.29816
     2017.36892         7.18821         8.27429
     2017.37166         4.13267         8.22233
     2017.37440        -0.50886         8.20969
     2017.37713         1.45561         8.39085
     2017.37987         0.20607         8.68716
     2017.38261         2.01154         8.89500
     2017.38535        -5.51200         8.32625
     2017.38809         1.13147         8.42315
     2017.39082         0.69793         8.24058
     2017.39356        -3.62360         8.18020
     2017.39630         3.19086         8.31782
     2017.39904         0.09333         8.30237
     2017.40177        -0.31021         8.18581
     2017.40451        -6.67974        10.52683
     2017.40725         3.85473         8.42455
     2017.40999        -0.90681         8.21811
     2017.41273        -1.30234         8.25041
     2017.41546         3.37612         8.20548
     2017.41820         2.80959         8.29676
     2017.42094         0.61105         8.34450
     2017.42368        -9.98948         8.23497
     2017.42642        -5.75302         8.24901
     2017.42915        -0.64255         8.33327
     2017.43189        -4.55109         8.19003
     2017.43463        -2.53662         8.18160
     2017.43737         1.10985         8.25463
     2017.44010        -0.40069         8.31220
     2017.44284         2.01378         8.46106
     2017.44558        -3.44576         8.28693
     2017.44832        -2.10229         8.25463
     2017.45106         0.53217         8.31782
     2017.45379        -0.13636         8.33186
     2017.45653        -0.11790         8.92730
     2017.45927        -1.87443         8.32203
     2017.46201         1.58103         8.48072
     2017.46475        -2.97050         8.36557
     2017.46748        -2.32503         8.34029
     2017.47022        -7.51757         8.34170
     2017.47296        -5.49010         8.33046
     2017.47570        -8.81964         8.23497
     2017.47843         0.50683         8.29535
     2017.48117        -8.66771         8.55937
     2017.48391        -4.19024         8.32625
     2017.48665        -2.64478         8.39366
     2017.48939         0.18769         8.31220
     2017.49212        -2.29185         8.26867
     2017.49486        -8.83838         8.33046
     2017.49760       -10.89491         8.40068
     2017.50034        -4.54445         8.55656
     2017.50308        -7.45898         8.47651
     2017.50581        -8.70152         8.36697
     2017.50855        -2.64705         8.40629
     2017.51129        -4.71559         8.58605
     2017.51403        -9.67812         8.41893
     2017.51676        -5.39866         8.37119
     2017.51950        -8.43919         8.65346
     2017.52224        -5.75473         8.27007
     2017.52498        -7.89426         8.35714
     2017.52772       -15.52679         8.62256
     2017.53045        -7.66633         8.34872
     2017.53319        -7.99186         8.33046
     2017.53593        -3.90740         8.28693
     2017.53867         1.02407        10.03110
     2017.54141        -3.11447         9.48622
     2017.54414         6.22500         8.40068
     2017.54688         0.90946         8.30237
     2017.54962        -2.81407         8.33889
     2017.55236        -3.74161         8.33889
     2017.55509        -5.98714         8.51864
     2017.55783        -0.18767         8.60992
     2017.56057        -7.41821         8.40208
     2017.56331        -5.81474         8.32484
     2017.56605       -10.21028         8.45123
     2017.56878       -11.22681         8.33889
     2017.57152        -4.87935         8.37259
     2017.57426        -5.70588         8.32906
     2017.57700        -5.17042         8.44000
     2017.57974        -9.32295         8.27990
     2017.58247       -12.74749         8.41612
     2017.58521        -9.73302         8.29395
     2017.58795       -14.50955         8.58464
     2017.59069        -8.13309        10.36533
     2017.59342        -7.54462         8.48213
     2017.59616        -6.73216         8.47932
     2017.59890        -8.27169         8.44140
     2017.60164        -5.85023         8.37961
     2017.60438        -5.39576         8.30518
     2017.60711        -5.62930         8.45685
     2017.60985        -7.14783         8.52145
     2017.61259        -7.23837         8.35293
     2017.61533         2.72810         8.32906
     2017.61807        -2.62444         8.53971
     2017.62080        -1.63597         8.27288
     2017.62354         1.48450         8.38944
     2017.62628         9.84296         9.44690
     2017.62902         5.64743         9.05931
     2017.63175        -0.81211         8.58464
     2017.63449        -5.22464         8.57060
     2017.63723        -2.98518         8.38242
     2017.63997        -0.90471         8.68856
     2017.64271        -2.97325         9.78534
     2017.64544         1.19222         8.99471
     2017.64818        -1.73632         8.47089
     2017.65092        -5.60185         8.26446
     2017.65366        -5.90238         8.29114
     2017.65639        -9.95892         8.35855
     2017.65913         1.89055         8.31642
     2017.66187         1.96701         8.35855
     2017.66461         5.20748         9.45252
     2017.66735         4.60394         8.88798
     2017.67008        -4.98659         8.43438
     2017.67282        -0.91913         8.61273
     2017.67556         0.56234         8.47511
     2017.67830         0.83980         8.28271
     2017.68104        -3.87573         8.33608
     2017.68377         4.77774         8.98488
     2017.68651        -0.20080        10.71079
     2017.68925         0.53567         8.34591
     2017.69199         0.16313         8.28552
     2017.69472         2.09460         8.39927
     2017.69746        -4.91194         8.64784
     2017.70020         0.98053         8.52145
     2017.70294         1.44399         8.94977
     2017.70568        -6.53054         8.66188
     2017.70841        -0.02008         8.77282
     2017.71389         3.51286         8.76440
     2017.71663         0.64132         8.30659
     2017.71937        -2.35121         8.42876
     2017.72210        -1.79075         8.40629
     2017.72484         2.21872         8.42174
     2017.72758         5.44818         8.34029
     2017.73032         8.43065         8.26024
     2017.73305         2.56411         8.32203
     2017.73579         4.68358         8.30097
     2017.73853         9.25004         9.32472
     2017.74127         8.65851         9.36124
     2017.74401         4.11998         8.41753
     2017.74674        -1.94556         8.32063
     2017.74948        -2.92609         8.29395
     2017.75222        -3.92663         8.36557
     2017.75496         5.06484         8.26727
     2017.75770         1.66230         8.43578
     2017.76043         3.32177         8.24761
     2017.76317         6.68023         8.28271
     2017.76591         6.32770         8.29816
     2017.76865         6.33016         8.31080
     2017.77138         6.99363         8.37540
     2017.77412        -0.10990         8.23778
     2017.77686        -2.67344         8.55375
     2017.77960         0.99303         8.72929
     2017.78234         0.96449         8.97364
     2017.78507         6.75696         9.06071
     2017.78781         8.97042         8.58464
     2017.79055         4.25789         8.16615
     2017.79329         7.35535         8.11700
     2017.79603        15.39082         8.13807
     2017.79876        11.67528         8.49196
     2017.80150        12.66475         8.51864
     2017.80424        11.26222         8.15913
     2017.80698         6.87768         8.14228
     2017.80971        13.20715         8.09032
     2017.81245        17.73761         8.43017
     2017.81519        18.92308         8.32063
     2017.81793         4.52354         8.70542
     2017.82067         5.72301         8.39787
     2017.82340         1.05547         8.19845
     2017.82614        -2.07306         8.11139
     2017.82888         7.46240         8.19424
     2017.83162        -1.40613         8.30799
     2017.83436        -6.01366         8.24199
     2017.83709        -4.46920         8.51864
     2017.83983        -7.86273         8.26586
     2017.84257        -4.73927         8.13947
     2017.84531         3.69320         8.21390
     2017.84804        -0.96334         8.24058
     2017.85078        11.85713         9.27838
     2017.85352        15.52859        10.45801
     2017.85626        14.11906         8.58886
     2017.85900        16.17552         8.74755
     2017.86173        12.19599         8.41753
     2017.86447        12.52346         8.21531
     2017.86721        12.30292         8.24620
     2017.86995         9.26839         8.29676
     2017.87269        10.31785         8.36978
     2017.87542        12.78832         8.27710
     2017.87816        14.11878         8.21811
     2017.88090         5.27025         8.28833
     2017.88364        12.95771         8.28833
     2017.88637        10.18718         8.21531
     2017.88911        13.81864         8.70120
     2017.89185         5.96911         8.22373
     2017.89459         5.34257         8.23497
     2017.89733         2.09704         8.25603
     2017.90006         0.05451         8.29114
     2017.90280        -2.55803         8.27429
     2017.90554        12.55744         8.26586
     2017.90828         9.56690         8.23356
     2017.91102         9.16537         8.42174
     2017.91375         3.99383         8.45685
     2017.91649         2.24930         8.25041
     2017.91923         8.02776         8.22514
     2017.92197         8.39223         8.22373
     2017.92470        20.06569         8.26727
     2017.92744        11.01316         8.90202
     2017.93018         6.07063         8.32063
     2017.93292        -7.80191         8.43157
     2017.93566        -2.24944         8.28833
     2017.93839        -8.08898         8.32063
     2017.94113       -13.62851         8.24761
     2017.94387        -7.03005         8.51724
     2017.94661       -20.52958         8.42736
     2017.94935        -8.70412         8.30378
     2017.95208       -13.79565         8.64082
     2017.95482       -17.24119         8.27850
     2017.95756       -15.31172         8.24620
     2017.96030       -12.27925         8.40770
     2017.96303       -17.67779         8.30940
     2017.96577       -16.85732         8.46387
     2017.96851       -19.17186         8.30940
     2017.97125       -31.74639         8.25744
     2017.97399       -28.22993         8.35153
     2017.97672       -25.78546         8.35433
     2017.97946       -26.57200         8.57903
     2017.98220       -23.70553         8.32344
     2017.98494       -31.22007         8.29957
     2017.99041       -28.51213         8.36136
     2017.99315       -24.94467         8.36136
     2017.99589       -25.85420         8.42595
     2017.99863       -23.92174         8.32625
     2018.00136       -20.65527         8.38102
     2018.00410       -20.62381         8.41332
     2018.00684       -19.03034         8.36276
     2018.00958       -15.76488         8.33327
     2018.01232       -21.37241         8.27850
     2018.01505       -20.58695         8.23637
     2018.01779       -14.66448         8.22654
     2018.02053       -15.37101         8.35293
     2018.02327       -17.34355         8.28833
     2018.02600       -12.49708         8.22654
     2018.02874       -14.04462         8.21390
     2018.03148       -15.19015         8.25463
     2018.03422       -14.50269         8.30940
     2018.03696       -14.13822         8.37680
     2018.03969       -13.19676         8.32203
     2018.04243       -16.19029         8.17879
     2018.04517       -16.46583         8.29254
     2018.04791       -10.24636         8.25463
     2018.05065        -9.20189         8.48494
     2018.05338        -7.54443         8.28412
     2018.05612        -4.60596         8.25182
     2018.05886       -11.21250         8.23497
     2018.06160        -5.93703         8.24901
     2018.06433        -9.89657         8.42174
     2018.06707        -7.14910         8.44842
     2018.06981       -11.96064         8.39085
     2018.07255       -10.76017         8.40629
     2018.07529       -13.54771         8.53690
     2018.07802       -10.87324         8.42455
     2018.08076        -6.03077         8.44000
     2018.08350        -8.84231         8.36136
     2018.08624       -10.15184         8.37399
     2018.08898       -13.56538         8.43438
     2018.09171       -12.39991         8.53690
     2018.09445       -11.96545         8.46247
     2018.09719        -8.41198         8.64643
     2018.09993        -9.20352         8.35153
     2018.10266       -15.65405         8.49617
     2018.10540       -16.89759         8.75738
     2018.10814       -13.61912         8.48213
     2018.11088        -5.94765         8.48213
     2018.11362        -3.89719         8.46668
     2018.11635        -3.13772         8.45264
     2018.11909        -0.73526         8.60150
     2018.12183        -2.94979         8.61413
     2018.12457         0.13167         8.43298
     2018.12731       -16.55386         8.44702
     2018.13004        -4.22540         8.38102
     2018.13278        -5.30093         8.31220
     2018.13552        -0.69547         8.37119
     2018.13826        -3.95500         8.36557
     2018.14099        -5.51153         8.34591
     2018.14373        -4.47707         8.34170
     2018.14647        -4.73760         8.90062
     2018.14921        -6.82514         8.48915
     2018.15195         6.02633         8.32344
     2018.15468        10.84979         8.31220
     2018.15742        13.37426         8.48915
     2018.16016         2.45472         8.30237
     2018.16290        -6.84181         8.47932
     2018.16564        -9.98635         8.36978
     2018.16837       -11.44388         8.30097
     2018.17111        -8.39641         8.31642
     2018.17385        -5.11595         8.27990
     2018.17659        -0.43748         8.29535
     2018.17932         1.77798         8.27569
     2018.18206         6.26045         8.34310
     2018.18480        13.64191         8.41332
     2018.18754         4.04138         8.81214
     2018.19028         1.64484         8.17458
     2018.19301         0.19931         8.19845
     2018.19575         0.71977         8.30237
     2018.19849         5.94624         8.29676
     2018.20123         8.31370         8.54954
     2018.20397         3.18217         8.63520
     2018.20670         3.61664         8.25603
     2018.20944         3.48710         8.43719
     2018.21218         0.15257         8.18020
     2018.21492       -17.83797         8.18160
     2018.21765        -1.71750         8.16335
     2018.22039        -5.32604         8.10858
     2018.22313        -4.26557         8.25884
     2018.22587       -10.73011         8.24901
     2018.22861        -9.16464         8.30237
     2018.23134        -0.77218         8.24480
     2018.23408         1.26929         8.14228
     2018.23682        -2.17624         8.20126
     2018.23956        -7.89978         8.19986
     2018.24230        -9.50431         8.18862
     2018.24503        -8.36985         8.18441
     2018.24777       -10.80138         8.16475
     2018.25051        -8.42492         8.16054
     2018.25325        -6.51845         8.17739
     2018.25598        -4.28299         8.14369
     2018.25872        -4.89652         8.24901
     2018.26146        -0.81206         8.28833
     2018.26420        -3.56259         8.19565
     2018.26694        -2.90112         8.17318
     2018.26967        -2.26266         8.29114
     2018.27241        -2.79019         8.45685
     2018.27515         6.13327         8.40349
     2018.27789         6.60774         8.50741
     2018.28062         4.19420         8.51162
     2018.28336        -7.93433         8.24480
     2018.28610       -12.15187         8.21952
     2018.28884        -7.67140         8.17318
     2018.29158         6.51406         8.45825
     2018.29431        -1.93347         8.33748
     2018.29705         3.55400         8.16054
     2018.29979         2.38346         9.31068
     2018.30253         2.31793         8.19565
     2018.30527        -0.10261         8.22935
     2018.30800         0.77586         8.26305
     2018.31074         0.02332         8.23637
     2018.31348        -2.89221         8.31923
     2018.31622        -3.51475         8.27429
     2018.31895        -2.48428         8.43438
     2018.32169        -2.27082         8.17598
     2018.32443        -3.17835         8.28412
     2018.32717        -3.35288         8.22935
     2018.32991        -0.33442         8.33889
     2018.33264         1.15505         8.14649
     2018.33538         1.85651         8.49055
     2018.33812         4.01798         8.50038
     2018.34086         5.78544         8.51162
     2018.34360        -5.27009         8.27148
     2018.34633         0.47237         8.27148
     2018.34907        -5.53016         8.18301
     2018.35181         4.56130         8.36557
     2018.35455         1.96577         8.27710
     2018.35728         3.88724         8.49898
     2018.36002        -2.36730         8.23216
     2018.36276         5.10717         8.47932
     2018.36550        -3.40637         8.21952
     2018.36824         1.76010         8.21109
     2018.37097        -3.64544         8.10717
     2018.37371        -4.55997         8.31923
     2018.37645        -4.47951         8.31642
     2018.37919         5.63796         8.15632
     2018.38193         1.37842         8.17739
     2018.38466         4.96889         8.25322
     2018.38740         2.55136         8.27850
     2018.39014         2.54682         8.40208
     2018.39288        -2.72171         8.16615
     2018.39561        -2.11825         8.20126
     2018.39835        -1.95778         8.20407
     2018.40109         3.60068         8.31080
     2018.40383        -2.83285         8.36136
     2018.40657        -0.46539         8.14649
     2018.40930         4.99108         8.27007
     2018.41204        -0.89046         8.21952
     2018.41478        -2.27599         8.80934
     2018.41752        -9.79952         8.30799
     2018.42026        -5.74206         8.28552
     2018.42299        -3.35959         8.28552
     2018.42573         0.24087         8.18862
     2018.42847         3.92434         8.30799
     2018.43121        -1.76820         8.40910
     2018.43394        -7.50573         8.32625
     2018.43668        -7.25827         8.18160
     2018.43942        -4.00680         8.21671
     2018.44216        -6.35234         8.21390
     2018.44490        -9.62087         8.26727
     2018.44763        -6.40140         8.22654
     2018.45037        -6.73894         8.19565
     2018.45311        -9.47147         8.23356
     2018.45585        -0.54601         8.37259
     2018.45859        -8.04454         8.48915
     2018.46132        -6.73808         8.48774
     2018.46406        -4.80761         8.36557
     2018.46680        -8.58615         8.26305
     2018.46954        -4.75168         8.39927
     2018.47227        -6.04022         8.55094
     2018.47501        -4.09975         8.56920
     2018.47775        -8.83228         8.31361
     2018.48049        -9.79182         8.28833
     2018.48323        -3.40235         8.95398
     2018.48596        -7.66889         8.30237
     2018.48870        -6.03942         8.31923
     2018.49144        -2.09296         8.18581
     2018.49418        -5.30749         8.29676
     2018.49692       -10.21903         8.37680
     2018.49965       -15.02856         8.27148
     2018.50239       -12.39710         8.27569
     2018.50513       -13.16463         8.27990
     2018.50787       -10.87917         8.46949
     2018.51060       -12.96670         8.32625
     2018.51334        -7.58523         8.22373
     2018.51608        -8.28277         8.26305
     2018.51882        -0.74730         8.27429
     2018.52156        -0.70584         8.16615
     2018.52429         4.93363         8.28552
     2018.52703        -8.12991         8.32063
     2018.52950        -8.56799         9.11127
     2018.53251        -6.54098         8.28412
     2018.53525        -3.69651         8.20828
     2018.53798        -4.70005         8.62958
     2018.54072        -2.23958         8.37680
     2018.54346        -7.59711         8.20126
     2018.54620        -8.95765         8.19143
     2018.54893        -8.09418         8.30237
     2018.55167       -10.77772         8.49617
     2018.55441         3.83575         8.23497
     2018.55715        -2.25279         8.24761
     2018.55989        -5.78732         8.65486
     2018.56262        -5.51686         8.38523
     2018.56536        -5.50539         8.26727
     2018.56810         5.05607         8.30237
     2018.57084        -9.61346         8.43157
     2018.57357        -2.40699         8.40629
     2018.57631        -6.84053         8.61413
     2018.57905        -8.94206         8.74755
     2018.58179        -3.10960         8.45966
     2018.58453         6.62787         8.78827
     2018.58726        -2.30767         8.25182
     2018.59000        -2.53420         8.19986
     2018.59274        -7.74774         8.32906
     2018.59548         0.03073         8.29535
     2018.59822         8.60019         8.35012
     2018.60095        -1.38034         8.26727
     2018.60369        -1.50187         8.20267
     2018.60643        -2.34841         8.21250
     2018.60917        -4.21894         8.27569
     2018.61190        -3.58748         8.34872
     2018.61464         5.04599         8.35433
     2018.61738        -1.79655         8.17037
     2018.62012        -3.47808         8.56358
     2018.62286        -9.56562         8.82900
     2018.62559       -11.82115         8.83742
     2018.62833        -8.66069         8.34450
     2018.63107        -3.77122         8.25041
     2018.63381       -13.09175         8.62396
     2018.63655        -2.26829         8.33046
     2018.63928        -1.97382         8.81917
     2018.64202        -4.30636         8.69559
     2018.64476         3.84311         8.20126
     2018.64750        -2.75943         8.23497
     2018.65023        -5.29396        12.63331
     2018.65297         1.66350         9.23765
     2018.65571        -4.98803         8.37821
     2018.65845        -6.39757         8.18020
     2018.66119        -0.72910         8.20548
     2018.66392        -3.18863         8.21531
     2018.66666         1.82083         8.25603
     2018.66940        -6.19270         8.32344
     2018.67214        -1.03124         8.22935
     2018.67488        -4.74277         8.21811
     2018.67761        -2.06131         8.25744
     2018.68035        -0.71984         8.38102
     2018.68309        -7.15238         8.36978
     2018.68583        -4.87991         8.30237
     2018.68856        -5.18745         8.23778
     2018.69130        -8.16898         8.44000
     2018.69404        -0.77551         8.71525
     2018.69678        -6.73605         8.31501
     2018.69952        -6.18558         8.42595
     2018.70225       -10.93512         8.38102
     2018.70499        -8.98365         8.19705
     2018.70773        -3.35819         8.14369
     2018.71047        -1.15872         8.22233
     2018.71321        -8.06326         8.30659
     2018.71594        -8.77979         8.22654
     2018.71868        -5.19233         8.17879
     2018.72142        -1.27986         8.17037
     2018.72416        -1.36839         8.82478
     2018.72689        -5.98293         8.30799
     2018.72963         2.64354         8.23918
     2018.73237        -7.17400         8.38804
     2018.73511        -4.78453         8.16615
     2018.73785        -5.16207         8.10296
     2018.74058        -8.64360         8.15492
     2018.74332        -5.14214         8.35012
     2018.74606        -3.10467         8.19003
     2018.74880        -5.22221         8.29535
     2018.75154        -2.64074         8.11139
     2018.75427        10.41973         8.14369
     2018.75701         5.94919         8.28131
     2018.75975         3.31466         8.20548
     2018.76249         2.31212         8.16335
     2018.76522        -0.95241         8.66188
     2018.76796        -1.79495         8.44702
     2018.77070         0.13052         8.31361
     2018.77344        -1.23302         8.47511
     2018.77618         7.10445         8.20548
     2018.77891         6.78791         8.23216
     2018.78165        -0.74562         8.38663
     2018.78439         6.93385         8.16615
     2018.78713         5.43031         8.21390
     2018.78987        -9.12022         8.45545
     2018.79260        -0.31576         8.21952
     2018.79534        14.65871         8.20267
     2018.79808         2.71217         8.22233
     2018.80082        10.67764         8.10015
     2018.80355         0.19010         8.24199
     2018.80629         5.81457         8.35293
     2018.80903         4.67603         8.27710
     2018.81177        11.04850         8.47089
     2018.81451        10.09096         8.19705
     2018.81724         7.12843         8.17598
     2018.81998         4.25190         8.18301
     2018.82272         5.80736         8.16615
     2018.82546         5.58383         8.10296
     2018.82820        -0.43771         8.13666
     2018.83093        -9.20624         8.12402
     2018.83367        -5.12678         8.17598
     2018.83641         5.36669         8.16194
     2018.83915        10.66815         8.12964
     2018.84188         5.64562         8.09734
     2018.84462        11.93608         9.10565
     2018.84736        11.57755         8.14228
     2018.85010        13.06302         8.16194
     2018.85284        12.01448         8.18862
     2018.85557        12.88595         8.09453
     2018.85831        11.70941         8.28833
     2018.86105        11.28888         8.06083
     2018.86379        15.94434         8.43157
     2018.86653        15.41281         8.24199
     2018.86926        14.21327         8.07628
     2018.87200        15.66574         8.08049
     2018.87474        16.46920         8.09032
     2018.87748        21.48967         8.28552
     2018.88021        16.69214         8.30799
     2018.88295        19.89460         8.35012
     2018.88569        19.85807         8.22514
     2018.88843        22.13153         8.30940
     2018.89117        15.35400         8.31501
     2018.89390        12.49946         8.32906
     2018.89664        16.51993         8.51583
     2018.89938        23.90439         8.40770
     2018.90212        23.36186         8.37961
     2018.90485        20.73632         8.44842
     2018.90759        22.02279         8.42595
     2018.91033        15.40726         8.23918
     2018.91307        19.20572         8.45825
     2018.91581        18.72519         8.23637
     2018.91854        13.58265         8.18441
     2018.92128        14.87312         8.29395
     2018.92402        12.86458         8.31642
     2018.92676        11.67505         8.25884
     2018.92950        17.51051         8.29535
     2018.93223        14.51898         8.41612
     2018.93497        13.88844         8.26446
     2018.93771        19.75191         8.18581
     2018.94045        17.38538         8.16194
     2018.94318        20.84684         8.16756
     2018.94592        28.26631         8.23918
     2018.94866        19.39677         8.04679
     2018.95140        17.01024         8.32063
     2018.95414        18.92670         8.12122
     2018.95687        22.64917         8.07347
     2018.95961        25.95763         8.19143
     2018.96235        23.59310         8.11700
     2018.96509        21.70556         8.17458
     2018.96783        11.28103         8.17177
     2018.97056        19.10750         8.26867
     2018.97330        18.29196         8.23918
     2018.97604        16.77743         8.28552
     2018.97878        14.75289         8.19986
     2018.98151        12.81636         8.32906
     2018.98425        27.53982         8.59447
     2018.98699        24.99129         8.42174
     2018.98973        29.67375         8.60992
     2018.99247        31.17622         8.48634
     2018.99520        25.42768         8.51021
     2019.00068        18.54462         8.32765
     2019.00342        17.77908         8.42174
     2019.00616        15.62355         8.16896
     2019.00889        13.16601         8.19565
     2019.01163        12.45648         8.28693
     2019.01437        16.54294         8.19003
     2019.01711        13.82741         8.17879
     2019.01984         8.81587         8.10436
     2019.02258        10.08034         8.14509
     2019.02532        17.09180         8.29535
     2019.02806        18.56827         8.32484
     2019.03080        16.67374         8.38382
     2019.03353         6.65420         8.28412
     2019.03627         4.39267         8.20828
     2019.03901        15.41313         8.23918
     2019.04175        14.15260         8.17739
     2019.04449        12.57606         8.12402
     2019.04722        11.40953         8.27850
     2019.04996        11.15899         8.35995
     2019.05270         9.62046         8.53690
     2019.05544        15.58092         8.34029
     2019.05817         8.22339         8.48072
     2019.06091         8.72886         8.32063
     2019.06365        13.47532         8.29676
     2019.06639        16.32879         8.40629
     2019.06913         0.88525         8.37259
     2019.07186       -25.93228         8.35855
     2019.07460       -19.55482         8.10436
     2019.07734       -11.33335         8.14790
     2019.08008       -16.21589         8.15773
     2019.08282       -16.53742         8.57762
     2019.08555       -23.88196         8.29676
     2019.08829       -24.63149         8.21811
     2019.09103       -21.15702         8.22373
     2019.09377       -13.86456         8.11419
     2019.09650        -9.13409         8.11139
     2019.09924       -11.83163         8.11419
     2019.10198       -17.42316         8.06223
     2019.10472       -18.65670         8.14790
     2019.10746       -17.74723         8.05802
     2019.11019       -21.97777         8.23497
     2019.11293        -7.46930         8.35012
     2019.11567         0.99816         8.54111
     2019.11841        10.19563         8.17458
     2019.12115        -1.00191         8.31220
     2019.12388         1.57056         8.30518
     2019.12662         2.17303         8.17739
     2019.12936         3.39849         8.14790
     2019.13210         4.18596         8.14369
     2019.13483        -8.28558         8.19003
     2019.13757        -7.88411         8.24620
     2019.14031         1.45235         8.17318
     2019.14305        -6.42818         8.18020
     2019.14579        -5.92972         8.07487
     2019.14852         1.78275         8.07206
     2019.15126         3.48121         8.20267
     2019.15400         0.95968         8.23075
     2019.15674        -3.87085         8.13105
     2019.15948         0.47861         8.27569
     2019.16221        -4.34692         8.29395
     2019.16495        -0.88446         8.20407
     2019.16769        -0.90099         8.10156
     2019.17043        -7.31153         8.18722
     2019.17316        -4.86906         8.03415
     2019.17590        -5.45260         8.04538
     2019.17864         4.89087         8.40068
     2019.18138         4.03833         8.12824
     2019.18412        -8.95220         8.15773
     2019.18685         4.79227         8.17458
     2019.18959         5.02773         8.14930
     2019.19233         0.68720         8.18441
     2019.19507        -1.40534         8.06926
     2019.19780         3.24413         8.03696
     2019.20054         1.44959         8.26586
     2019.20328         1.25406         8.12683
     2019.20602        -6.49248         8.64503
     2019.20876        -2.69801         8.20969
     2019.21149        -6.69155         8.19003
     2019.21423       -11.75208         8.14228
     2019.21697        -2.54561         8.10015
     2019.21971        -1.95215         8.41893
     2019.22245        -7.09568         8.13385
     2019.22518        -9.63722         8.18862
     2019.22792        -7.65575         8.12543
     2019.23066       -14.27429         8.10156
     2019.23340        -5.97582         8.25463
     2019.23613        -6.96136         8.23778
     2019.23887       -10.52489         8.21811
     2019.24161       -10.36843         8.52707
     2019.24435        -6.65796         8.53830
     2019.24709       -13.52249         8.49336
     2019.24982        -8.07803         8.18160
     2019.25256       -11.84556         8.37961
     2019.25530        -2.69110         8.24199
     2019.25804        -1.81363         8.18301
     2019.26078         0.29683         8.14649
     2019.26351        -1.52170         8.34170
     2019.26625        -3.63624         8.37119
     2019.26899        -1.26577         8.31361
     2019.27173         1.45169         8.59588
     2019.27446        -1.32584         8.22794
     2019.27720         1.46663         8.35574
     2019.27994        -4.84891         8.26024
     2019.28268        -6.72044         8.27569
     2019.28542        -0.97098         8.34450
     2019.29089         0.33995         8.19986
     2019.29363         6.47842         8.16615
     2019.29637         1.16988         8.43157
     2019.29911        -1.67965         8.16335
     2019.30184         2.80981         8.21531
     2019.30458        -1.88472         8.19424
     2019.30732         1.72175         8.26024
     2019.31006        -0.25179         8.36276
     2019.31279        -1.13832         8.32484
     2019.31553        -5.81086         8.20126
     2019.31827        -4.17339         8.35574
     2019.32101        -4.82293         8.27850
     2019.32375       -16.95546         8.20126
     2019.32648        -9.61600         8.15071
     2019.32922        -4.45853         8.29816
     2019.33196        -2.87807         8.50038
     2019.33470        -7.58460         8.31923
     2019.33744        -4.35713         8.35012
     2019.34017        -8.78267         8.21390
     2019.34291        -4.74620         8.19705
     2019.34565        -3.73474         8.38242
     2019.34839        -6.51227         8.45825
     2019.35112        -1.68681         8.27429
     2019.35386        -3.52234         8.27429
     2019.35660        -4.43488         8.75035
     2019.35934        -4.27341         8.17879
     2019.36208        -5.13195         8.72648
     2019.36481        -5.87648         8.75316
     2019.36755        -8.61501         8.24901
     2019.37029       -12.34255         8.28131
     2019.37303        -4.01408         8.23356
     2019.37577        -5.55562         8.35433
     2019.37850        -3.57515         8.15913
     2019.38124        -1.32469         8.31361
     2019.38398        -9.74722         8.23637
     2019.38672       -11.21576         8.33467
     2019.38945        -8.01829         8.34450
     2019.39219       -12.16483         8.26867
     2019.39493        -8.27436         8.21390
     2019.39767        -3.46390         8.37540
     2019.40041        -7.68343         8.50460
     2019.40314        -5.67196         8.25603
     2019.40588        -6.59950         8.35574
     2019.40862        -6.35003         8.29676
     2019.41136        -7.98757         8.25041
     2019.41410        -6.80810         8.24199
     2019.41683        -8.00764         8.35012
     2019.41957       -11.57317         8.32765
     2019.42231        -5.12971         8.33608
     2019.42505        -8.33924         8.19705
     2019.42778        -7.51778         8.58183
     2019.43052        -7.06231         8.30237
     2019.43326        -9.78784         8.27990
     2019.43600       -13.24738         8.37821
     2019.43874        -8.26091         8.39085
     2019.44147        -7.84845         8.49758
     2019.44421       -11.57498         8.43298
     2019.44695       -14.78452         8.63520
     2019.44969       -12.18505         8.74052
     2019.45243        -6.21759         8.59728
     2019.45516        -9.97012         8.41612
     2019.45790        -7.22566         8.44842
     2019.46064        -9.02419         8.51724
     2019.46338        -9.23572         8.93011
     2019.46611        -5.71326         9.23063
     2019.46885        -6.21979         8.72788
     2019.47159        -4.54033         8.64784
     2019.47433        -9.05586         8.58464
     2019.47707        -7.34140         8.60711
     2019.47980        -7.34393         8.45264
     2019.48254        -8.29747         8.57341
     2019.48528       -16.29200         8.55656
     2019.48802       -11.92654         8.43298
     2019.49076        -8.38707         8.33327
     2019.49349        -8.79060         8.37821
     2019.49623        -4.44514         8.68716
     2019.49897        -4.14567         8.33186
     2019.50171       -10.45821         8.34872
     2019.50444       -10.28274         8.28833
     2019.50718       -17.81828         8.37821
     2019.50992        -5.58581         8.47370
     2019.51266       -10.43535         8.42455
     2019.51540        -1.36788         8.29676
     2019.51813       -12.13542         8.46387
     2019.52087        -2.00795         8.75176
     2019.52361        -7.06148         8.52145
     2019.52635         1.19698         8.68575
     2019.52908         2.69645         8.87955
     2019.53182        -6.98209         8.62116
     2019.53456        -6.37762         8.61413
     2019.53730         2.63984         8.51724
     2019.54004        -4.37869         8.67452
     2019.54277        -1.17823         8.70120
     2019.54551         0.86124         8.86551
     2019.54825        -7.21330         8.45123
     2019.55099        -3.26683         8.31782
     2019.55373        -1.32736         8.51021
     2019.55646       -10.03490         8.49617
     2019.55920       -11.26943         8.72367
     2019.56194        -0.79097         8.29114
     2019.56468        -9.18650         8.41753
     2019.56741        -1.17404         8.29676
     2019.57015        -4.97857         8.33748
     2019.57289        -9.61611         8.48494
     2019.57563        -1.79564         8.36416
     2019.57837        -6.91918         8.19986
     2019.58110        -2.40771         8.28693
     2019.58384        -2.00124         8.51583
     2019.58658        -8.73578         8.33327
     2019.58932        -5.41431         8.35293
     2019.59206         1.49915         9.25451
     2019.59479        -4.73738         8.25041
     2019.59753        -4.41192         8.71805
     2019.60027        -7.92945         8.69839
     2019.60301        -4.93599         8.31220
     2019.60574        -4.73852         8.72086
     2019.60848        -1.67006         8.71805
     2019.61122        -0.18959         8.30237
     2019.61396        -5.25612         8.53549
     2019.61670        -4.94566         8.32063
     2019.61943       -10.70819         8.37119
     2019.62217        -9.24673         8.40208
     2019.62491        -9.26226         8.38804
     2019.62765        -5.62380         8.20267
     2019.63039        -0.35633         8.17037
     2019.63312        -0.97587         8.26586
     2019.63586         3.96260         8.19705
     2019.63860         1.79706         8.29395
     2019.64134        -0.17047         8.38804
     2019.64407        -1.89300         8.25322
     2019.64681        -4.13654         8.25322
     2019.64955        -0.67907         8.31642
     2019.65229         0.91339         8.42876
     2019.65503        -2.55714         8.44421
     2019.65776        -4.74768         8.26867
     2019.66050         0.14579         8.40068
     2019.66324        -7.17575         8.91185
     2019.66598       -10.98428         9.61682
     2019.66872         4.80318         8.39506
     2019.67145         2.59365         8.30237
     2019.67419         0.29612         8.20828
     2019.67693        -0.24142         8.82759
     2019.67967        -5.38095         8.32765
     2019.68240         1.78351         8.23497
     2019.68514         0.00998         8.27288
     2019.68788        -1.03156         8.46528
     2019.69062        -3.27809         8.31361
     2019.69336         0.92537         8.20267
     2019.69609         1.22284         8.31361
     2019.69883         1.17830         8.21390
     2019.70157         0.17477         8.27990
     2019.70431        -4.11577         8.21811
     2019.70705        -0.70130         8.29254
     2019.70978        -0.36483         8.11981
     2019.71252         2.88263         8.40068
     2019.71526         0.45810         8.20688
     2019.71800         9.21256         8.60290
     2019.72073         9.41103         8.70682
     2019.72347         2.81749         8.16475
     2019.72621         5.28296         8.17177
     2019.72895         5.95842         8.16475
     2019.73169         9.06989         8.16615
     2019.73442         4.82435         8.11560
     2019.73716        -0.28518         8.18441
     2019.73990        -1.63071         8.80653
     2019.74264         8.51975         8.25603
     2019.74538         1.96922         8.50179
     2019.74811         6.39468         8.49196
     2019.75085         0.15415         8.27569
     2019.75359         5.95561         8.45264
     2019.75633        -0.50992         8.40208
     2019.75906        -1.08746         8.18020
     2019.76180         6.29501         8.14509
     2019.76454        -3.32053         8.11560
     2019.76728        -6.20606         8.13526
     2019.77002         0.12641         8.43298
     2019.77275         3.97787         8.57903
     2019.77549         3.14834         8.40629
     2019.77823        -0.13420         8.04679
     2019.78097        -2.72373         8.09453
     2019.78371         1.73973         8.17318
     2019.78644         7.29820         8.21952
     2019.78918         4.99466         8.09453
     2019.79192         8.63713         8.09173
     2019.79466         7.64959         8.10717
     2019.79739         4.70206         8.12122
     2019.80013         8.50153         8.12122
     2019.80287         3.94299         8.08611
     2019.80561         8.28246         8.05521
     2019.80835         5.70992         7.99342
     2019.81108         4.42039         8.24901
     2019.81382         0.69485         8.79248
     2019.81656        -2.33968         8.94696
     2019.81930         2.30778         8.15352
     2019.82203        -0.22675         8.24339
     2019.82477         2.30871         8.18301
     2019.82751         4.51218         8.14088
     2019.83025         2.46065         8.28693
     2019.83299        -1.97189         8.27990
     2019.83572        -3.85842         7.97095
     2019.83846         5.00104         8.22233
     2019.84120         1.06151         8.18862
     2019.84394         3.49497         8.52987
     2019.84668         1.23144         8.22373
     2019.84941         7.82990         8.17598
     2019.85215        -1.76663         8.16896
     2019.85489       -11.50917         8.21390
     2019.85763        -5.89070         8.23778
     2019.86036        -5.97423         8.26024
     2019.86310        -6.67277         8.19705
     2019.86584         2.53570         8.19284
     2019.86858         2.77716         8.10436
     2019.87132         3.63563         8.53128
     2019.87405         6.95509         8.22233
     2019.87679         3.25356         8.45123
     2019.87953         2.84502         8.15773
     2019.88227         5.80949         8.11279
     2019.88501        12.09095         8.15913
     2019.88774         8.08542         8.42876
     2019.89048        13.42189         8.31501
     2019.89322        14.79935         8.20828
     2019.89596         4.05582         8.24620
     2019.89869         3.18328         8.15913
     2019.90143         1.38675         8.21671
     2019.90417        -0.14079         8.45685
     2019.90691         3.85068         8.30097
     2019.90965         5.64214         8.19565
     2019.91238         8.82261         8.10577
     2019.91512         9.53007         8.40489
     2019.91786        12.28054         8.23216
     2019.92060         4.14501         8.24761
     2019.92607        -0.51106         8.19424
     2019.92881        -0.66360         8.19565
     2019.93155         3.87487         8.27148
     2019.93429         7.07733         8.31642
     2019.93702         9.27580         8.26446
     2019.93976        10.68126         8.23216
     2019.94250         7.83173         8.21250
     2019.94524         5.65919         8.20126
     2019.94798        11.33266         8.31361
     2019.95071         8.96413         8.63941
     2019.95345        11.93859         8.32344
     2019.95619        16.55006         8.29254
     2019.95893         4.53252         8.40489
     2019.96167         8.10699         8.44281
     2019.96440         6.77045         8.49196
     2019.96714         7.87692         8.58886
     2019.96988         7.78138         8.29535
     2019.97262         6.66885         8.28974
     2019.97535         8.26631         8.44281
     2019.97809        11.29078         8.38804
     2019.98083        12.47225         8.48915
     2019.98357        15.03971         8.36838
     2019.98631        18.10018         8.33748
     2019.98904         9.57764         8.34591
     2019.99178         8.87511         8.38944
     2019.99452        15.56557         8.36838
     2020.00000        25.55050         8.23918
     2020.00273        19.18197         8.26867
     2020.00547        15.77843         8.45123
     2020.00821        11.42790         8.50741
     2020.01095        18.01536         8.51864
     2020.01368        11.85683         8.47370
     2020.01642        15.96230         8.51162
     2020.01916        10.91676         8.30378
     2020.02190        10.11023         8.80512
     2020.02464         6.39969         8.64503
     2020.02737         6.28516         8.44421
     2020.03011         0.12762         8.41612
     2020.03285         1.38009         8.43859
     2020.03559        -3.71945         8.30378
     2020.03833        -4.90898         8.26446
     2020.04106        -8.50052         8.56217
     2020.04380        -6.77305         8.56217
     2020.04654         1.75142         8.30518
     2020.04928         6.71388         8.21531
     2020.05201         0.46935         8.29254
     2020.05475        -2.10219         8.29957
     2020.05749        -1.95172         8.30237
     2020.06023         5.81574         8.24761
     2020.06297         3.54321         8.23918
     2020.06570         1.70367         8.24480
     2020.06844         1.09614         8.27429
     2020.07118         4.51460         8.23216
     2020.07392        10.22707         8.27288
     2020.07666        12.60054         8.20267
     2020.07939        12.60400         8.20548
     2020.08213         8.64847         8.22935
     2020.08487         2.08193         8.20407
     2020.08761         4.50140         8.26727
     2020.09034        13.18586         8.21671
     2020.09308        12.62933         8.20969
     2020.09582        13.73679         8.26727
     2020.09856         9.48826         8.40349
     2020.10130         6.80372         8.25182
     2020.10403        10.08719         8.21952
     2020.10677        10.39866         8.18441
     2020.10951        14.37812         8.09032
     2020.11225        20.98659         8.15632
     2020.11498        17.46505         8.11279
     2020.11772         3.11552         8.34450
     2020.12046        -0.19402         8.29395
     2020.12320         5.53245         8.10156
     2020.12594         8.47091         8.20688
     2020.12867         5.23038         8.11279
     2020.13141        10.48184         8.70682
     2020.13415         7.46631         8.41051
     2020.13689         9.20778         8.29816
     2020.13963         9.06924         8.21109
     2020.14236        11.53571         8.12262
     2020.14510         2.27617         8.06223
     2020.14784        -2.45236         8.03274
     2020.15058         3.87110         7.99483
     2020.15331         6.34557         8.04679
     2020.15605        10.39903         8.06504
     2020.15879         5.45650         8.01870
     2020.16153         1.73696         8.09032
     2020.16427         5.92643         8.08470
     2020.16700        14.07590         7.98921
     2020.16974         9.04636         8.06364
     2020.17248         4.67583         8.01449
     2020.17522        -4.26871         8.05943
     2020.17796        -0.81524         8.11981
     2020.18069        -0.69678         7.98781
     2020.18343         3.58869         8.01308
     2020.18617         9.18115         8.01308
     2020.18891         8.14562         7.97657
     2020.19164        -2.36592         8.04257
     2020.19438        -3.43545         8.06083
     2020.19712        -5.33698         8.15913
     2020.19986        -7.37652         8.04538
     2020.20260        -4.24005         8.09032
     2020.20533        -4.96759         8.09453
     2020.20807        -5.68612         8.06504
     2020.21081        -5.89366         8.03977
     2020.21355        -3.62319         8.76580
     2020.21629         2.67227         8.32344
     2020.21902         1.33174         8.21952
     2020.22176        -7.90680         8.09594
     2020.22450        -7.66733         8.09594
     2020.22724         1.55114         8.02291
     2020.22997         6.73460         8.13105
     2020.23271         2.34807         8.08189
     2020.23545         6.10553         8.19986
     2020.23819         5.04700         8.23497
     2020.24093         2.51546         8.11841
     2020.24366         1.09093         8.12402
     2020.24640         7.03239         8.27990
     2020.24914        -4.79814         8.16615
     2020.25188         0.34032         8.21811
     2020.25462         2.49579         8.19845
     2020.25735         1.55426         8.17318
     2020.26009         6.25272         8.19284
     2020.26283        -1.07381         8.18862
     2020.26557        -4.40935         8.14930
     2020.26830         3.45312         8.35574
     2020.27104        -1.50042         8.12262
     2020.27378         0.18805         8.13666
     2020.27652        -4.68449         8.28552
     2020.27926         0.41398         8.47791
     2020.28199         6.57344         8.51021
     2020.28473        -6.60909         8.38944
     2020.28747        -6.36162         8.33889
     2020.29021         1.28984         8.28271
     2020.29295        -6.87369         8.37119
     2020.29568         0.07377         8.38382
     2020.29842         2.98224         8.39506
     2020.30116         4.87670         9.63508
     2020.30390         4.79217         8.42736
     2020.30663         1.20563         8.27288
     2020.30937        -3.13490         8.55515
     2020.31211         0.29856         8.60992
     2020.31485        -4.42797         8.18441
     2020.31759        -0.89451         8.09734
     2020.32032         4.68196         8.13666
     2020.32306         2.82843         8.28693
     2020.32580         1.58889         8.25463
     2020.32854         0.03536         8.20688
     2020.33128        -0.01218         8.23075
     2020.33401        -7.85971         8.15632
     2020.33675         2.27475         8.19284
     2020.33949        -0.43378         8.31501
     2020.34223        -5.16232         8.29395
     2020.34496        -7.27585         8.16194
     2020.34770        -9.26839         8.27850
     2020.35044        -4.29892         8.41051
     2020.35318        -5.45645         8.37119
     2020.35592        -6.87299         8.44562
     2020.35865        -4.66652         8.24620
     2020.36139        -0.31906         8.24199
     2020.36413        -2.98659         8.34310
     2020.36687        -1.34313         8.38523
     2020.36961        -2.69266         8.43438
     2020.37234        -2.37620         8.25463
     2020.37508        -7.55373         8.28131
     2020.37782        -4.95127         8.19143
     2020.38056        -3.37280         8.18862
     2020.38329        -6.62633         8.19565
     2020.38603        -7.21187         8.28693
     2020.38877        -5.56240         8.40629
     2020.39151         1.76106         8.29114
     2020.39425         1.47653         8.17458
     2020.39698        -7.75801         8.35714
     2020.39972       -11.20754         8.20969
     2020.40246        -5.55208         8.25463
     2020.40520       -12.64361         8.45264
     2020.40794        -8.83315         8.20267
     2020.41067        -9.58068         8.66890
     2020.41341        -5.56521         8.18581
     2020.41615        -5.27575         8.28552
     2020.41889        -3.54528         8.46528
     2020.42162        -1.96782         8.15773
     2020.42436        -4.72235         8.46387
     2020.42710        -4.52989         8.60992
     2020.42984       -12.69742         8.22233
     2020.43258        -3.94896         8.24620
     2020.43531        -8.53249         8.25322
     2020.43805        -4.66003         8.10717
     2020.44079        -7.31356         8.26024
     2020.44353        -4.77709         8.20969
     2020.44626       -11.61763         8.28412
     2020.44900        -5.34116         8.26165
     2020.45174        -5.58870         8.22514
     2020.45448        -3.32723         8.24620
     2020.45722        -9.38877         8.16756
     2020.45995        -0.96830         8.43719
     2020.46269       -12.60884         8.38663
     2020.46543        -5.00537         8.24761
     2020.46817        -3.09091         8.26727
     2020.47091        -8.73844         8.21250
     2020.47364        -8.36397         8.37961
     2020.47638        -1.14351         8.22935
     2020.47912        -8.17204         8.20126
     2020.48186        -8.34958         8.28131
     2020.48459        -3.81511         8.53549
     2020.48733        -9.74565         8.45825
     2020.49007       -13.69218         8.57341
     2020.49281        -8.95472         8.50741
     2020.49555       -12.40625         8.49477
     2020.49828       -14.64379         8.24761
     2020.50102       -15.33132         8.26024
     2020.50376        -7.16385         8.28412
     2020.50650        -9.01639         8.23778
     2020.50924        -6.83092         8.46247
     2020.51197        -3.60046         8.35574
     2020.51471       -13.23899         8.44000
     2020.51745       -13.14453         8.24620
     2020.52019         0.12694         8.61413
     2020.52292         5.01740         8.32906
     2020.52566        -3.53913         8.36697
     2020.52840        -4.98667         8.31923
     2020.53114        -8.95320         8.30518
     2020.53388        -6.13173         8.73350
     2020.53661        -5.54927         8.34310
     2020.53935       -10.83880         8.34591
     2020.54209        -2.76134         8.27569
     2020.54483        -2.93487         8.29114
     2020.54757        -0.89641         8.34591
     2020.55030        -5.48894         8.25603
     2020.55304        -8.67848         8.24761
     2020.55578       -11.66701         8.33467
     2020.55852        -5.08355         8.29254
     2020.56125        -7.26308         8.77844
     2020.56399         1.86939         8.47511
     2020.56673        -3.92615         8.24480
     2020.56947        -7.44868         8.45825
     2020.57221       -12.17322         8.93292
     2020.57494        -3.97775         8.34450
     2020.57768         0.12271         8.39225
     2020.58042        -2.62582         8.39787
     2020.58316        -5.03136         8.46247
     2020.58590        -8.41889         8.60711
     2020.58863         4.41057         8.62958
     2020.59137        -0.54096         8.43298
     2020.59411        -2.66149         8.43017
     2020.59685        -0.92403         8.65346
     2020.59958         8.41044         8.49336
     2020.60232         2.89690         8.33748
     2020.60506         7.50437         8.46528
     2020.60780         3.00283         8.36416
     2020.61054         1.96030         8.37399
     2020.61327         1.20176         8.41893
     2020.61601         0.82723         8.44000
     2020.61875        -1.41131         8.39085
     2020.62149        -2.10984         8.45966
     2020.62423         1.15962         8.39366
     2020.62696        -1.63391         8.48494
     2020.62970         1.53956         8.42876
     2020.63244        12.41402         8.32344
     2020.63518         6.27449         8.38944
     2020.63791         0.87595         8.44702
     2020.64065        -1.25958         8.36557
     2020.64339        -1.26212         8.39646
     2020.64613         3.19835         8.41051
     2020.64887         1.56281         8.44702
     2020.65160         3.17328         8.26867
     2020.65434        -1.80826         8.42315
     2020.65708        -0.25479         8.39085
     2020.65982         3.83668         8.42736
     2020.66256         9.58314         8.40349
     2020.66529         6.31261         8.37540
     2020.66803         3.05807         8.53268
     2020.67077         3.38054         8.55656
     2020.67351         3.69600         8.25744
     2020.67624         2.19847         8.46247
     2020.67898         0.73793         8.39085
     2020.68172        -4.02460         8.31642
     2020.68446         2.72286         8.40770
     2020.68720         8.56233         8.41191
     2020.68993         0.76080         8.25041
     2020.69267         2.04826         8.55796
     2020.69541         1.65173         8.62818
     2020.69815         2.99619         8.33327
     2020.70089         1.01766         8.32203
     2020.70362        -2.21688         8.34029
     2020.70636         0.84259         8.77984
     2020.70910        -2.40395         8.64784
     2020.71184         6.82952         8.58886
     2020.71457         4.97298         8.57341
     2020.71731         2.75045         8.34310
     2020.72005         4.59392         8.46668
     2020.72279         2.46438         8.27569
     2020.72553         7.86785         8.35995
     2020.72826        12.22931         8.53830
     2020.73100         2.29978         8.27990
     2020.73374         5.75324         8.22935
     2020.73648        15.36071         8.50881
     2020.73921         4.69417         8.42876
     2020.74195        16.01964         8.55375
     2020.74469         4.00910         8.24480
     2020.74743         7.04457         8.37961
     2020.75017        12.47404         8.27007
     2020.75290         9.45150         8.25041
     2020.75564         8.70797         8.11700
     2020.75838         6.59943         8.17598
     2020.76112        16.12390         8.12262
     2020.76386         1.06036         8.14228
     2020.76659         5.15383         8.06645
     2020.76933         9.82329         8.15773
     2020.77207        -6.70224         8.16054
     2020.77481         9.16622         8.04398
     2020.77754         8.10969         8.10296
     2020.78028        10.76916         8.10436
     2020.78302         3.74162         8.09313
     2020.78576         3.38809         8.12683
     2020.78850         3.64055         8.03415
     2020.79123        -0.82698         8.04117
     2020.79397        -5.39952         8.06364
     2020.79671         2.80895         7.93304
     2020.79945         3.80741         7.93584
     2020.80219         8.01888         8.24058
     2020.80492         3.56434         8.08330
     2020.80766         3.22381         8.17037
     2020.81040         3.90628         8.09173
     2020.81314         4.43274         8.02291
     2020.81587        13.39021         8.06083
     2020.81861        16.57567         8.44842
     2020.82135         3.32314         8.06926
     2020.82409         9.69660         7.98078
     2020.82683         1.15407         8.05240
     2020.82956         6.57153         7.99623
     2020.83230        10.00200         8.15773
     2020.83504         8.44646         8.17318
     2020.83778        10.99593         8.01168
     2020.84052        12.21240         7.96253
     2020.84325        11.58686         8.23075
     2020.84599         5.02933         8.29535
     2020.84873        12.57779         8.14509
     2020.85147         0.46726         8.14790
     2020.85420        18.62972         8.06364
     2020.85694        16.33519         8.21390
     2020.85968         8.61265         8.02993
     2020.86242        13.84612         8.08892
     2020.86516        14.37858         8.58183
     2020.86789        15.65205         8.28271
     2020.87063        20.90352         8.02993
     2020.87337        14.20198         7.98640
     2020.87611         4.46645         8.26165
     2020.87885         1.02391         8.38944
     2020.88158         9.01838         8.27850
     2020.88432         7.46584         8.07206
     2020.88706         5.90231         8.45404
     2020.88980        14.42877         8.25463
     2020.89253         9.79824         8.70822
     2020.89527         9.78970         8.43859
     2020.89801         9.27617         8.34872
     2020.90075        16.65163         8.09173
     2020.90349        16.95610         7.99202
     2020.90622         7.00657         8.08330
     2020.90896         7.44503         8.27288
     2020.91170        10.33550         8.43859
     2020.91444         6.21896         8.24761
     2020.91718         7.87143         7.99904
     2020.91991         2.52289         8.12543
     2020.92265        11.18736         8.06504
     2020.92539         9.76182         8.02151
     2020.92813         2.03529         8.09032
     2020.93086         9.20375         7.98359
     2020.93360        17.57122         7.93584
     2020.93634         9.51469         7.98640
     2020.93908         8.48815         8.04117
     2020.94182         5.44162         8.00747
     2020.94455         2.16308         8.00325
     2020.94729         1.85255         7.99202
     2020.95003        -2.30899         8.04819
     2020.95277        -3.24252         8.09453
     2020.95551         1.29694         8.08330
     2020.95824         1.04541         8.05381
     2020.96098         5.95287         8.06364
     2020.96372         1.69834         8.11279
     2020.96646         4.78181         8.12683
     2020.96919         3.42927         8.18160
     2020.97193         4.29374         7.96674
     2020.97467         4.57520         8.22092
     2020.97741         9.94167         8.20126
     2020.98015        -0.71587         8.49758
     2020.98288         4.59760         8.26165
     2020.98562        10.28306         8.05100
     2020.98836        17.96153         7.99342
     2020.99110        12.52699         8.06785
     2020.99384        14.11846         8.05943
     2020.99657        10.48893         8.08470
     2020.99931        10.23739         8.06926
     2021.00205         9.66986         8.02291
     2021.00479        19.71932         7.96955
     2021.00752        15.63879         8.10577
     2021.01026        13.23125         8.11981
     2021.01300        14.71172         8.23637
     2021.01574        20.48218         8.03274
     2021.01848        18.46065         8.03274
     2021.02121        14.03011         8.00044
     2021.02395        11.52958         8.08611
     2021.02669        10.84305         8.08892
     2021.02943        18.08051         8.20548
     2021.03216        29.07998         8.06785
     2021.03490        25.08244         8.08330
     2021.03764        13.69691         8.15773
     2021.04038        14.51937         8.18301
     2021.04312        10.46784         8.18160
     2021.04585        17.58930         8.24901
     2021.04859        18.16777         8.15211
     2021.05133         8.16823         8.13526
     2021.05407        -0.90330         8.50741
     2021.05681         4.36817         8.25744
     2021.05954        -5.04937         8.04538
     2021.06228         4.00610         8.00044
     2021.06502         4.50756         8.01449
     2021.06776         1.14803         8.22794
     2021.07049        -3.75951         8.10156
     2021.07323        -7.97704         8.06083
     2021.07597         6.15642         8.07768
     2021.07871         4.73589         8.00606
     2021.08145         0.35135         8.02291
     2021.08418        -5.94218         8.07066
     2021.08692        -4.96371         8.07487
     2021.08966        -3.09725         8.17739
     2021.09240        -1.41578         7.98078
     2021.09514        -1.85232         8.11279
     2021.09787         3.93415         8.20969
     2021.10061        -0.30539         8.09453
     2021.10335        -8.60592         8.80231
     2021.10609        -9.66846         7.97236
     2021.10882        -1.20599         8.02151
     2021.11156        -4.65353         7.99483
     2021.11430        -7.57106         8.10998
     2021.11704        -3.85059         8.02713
     2021.11978        -3.29613         8.08330
     2021.12251         4.74834         7.93304
     2021.12525         3.97980         8.02010
     2021.12799         5.44227         8.33186
     2021.13073         1.53673         8.06645
     2021.13347        -2.44180         8.36557
     2021.13620        10.74266         8.68014
     2021.13894         2.97113         8.19565
     2021.14168         6.07559         8.19424
     2021.14442        -0.50494         8.07206
     2021.14715         0.08453         8.20267
     2021.14989         3.34099         8.15071
     2021.15263         5.95746         8.32906
     2021.15537         7.53892         8.15352
     2021.15811        13.84139         8.23075
     2021.16084         2.39485         8.09453
     2021.16358       -14.18468         8.97785
     2021.16632        -3.88322         8.72227
     2021.16906       -11.40075         8.26165
     2021.17180       -13.02329         7.98219
     2021.17453        14.69918         8.27288
     2021.17727        24.04965         8.29395
     2021.18001        24.71011         8.20828
     2021.18275        13.15758         8.31080
     2021.18548         8.91104         8.04960
     2021.18822        -6.89049         8.04257
     2021.19096         2.34297         8.01168
     2021.19370         2.82244         8.13807
     2021.19644       -13.36510         8.29535
     2021.19917        -6.63063         8.33327
     2021.20191        -2.96517         8.01449
     2021.20465        10.57630         8.03415
     2021.20739         7.58176         8.00887
     2021.21013        10.23623         8.04257
     2021.21286         0.30270         8.02713
     2021.21560         6.67016         8.55375
     2021.21834        -0.29937         8.18020
     2021.22108        -4.14991         8.01027
     2021.22381         4.02256         8.02713
     2021.22655         2.20002         8.02713
     2021.22929         6.66749         8.02993
     2021.23203         8.26395         8.22233
     2021.23477        -1.88058         8.02713
     2021.23750        -5.06212         7.99202
     2021.24024         0.11835         7.98921
     2021.24298         7.37482         8.02151
     2021.24572         4.89028         8.24901
     2021.24846         0.14275         8.30940
     2021.25119         5.44021         8.01449
     2021.25393         4.67168         8.00747
     2021.25667        -0.80586         8.01168
     2021.25941         4.70361         8.04679
     2021.26214         3.61007         7.93023
     2021.26488         2.87254         8.24480
     2021.26762         2.57000         8.09173
     2021.27036         1.10147         8.13526
     2021.27310        -0.29206         7.96393
     2021.27583        -5.55260         7.99904
     2021.27857        -0.49013         8.08189
     2021.28131         1.93033         8.01730
     2021.28405        -0.27420         8.24339
     2021.28679        -3.22474         8.15071
     2021.28952        -6.87927         8.30799
     2021.29226        -1.78581         8.97364
     2021.29500        -1.49134         8.64503
     2021.29774        -7.92788         8.59026
     2021.30047        -1.73441         8.35995
     2021.30321        -0.63694         8.22794
     2021.30595        -3.14348         8.55234
     2021.30869         4.57399         8.56358
     2021.31143        -8.15355         8.35855
     2021.31416        -9.44108         8.86551
     2021.31690         1.04638         8.50179
     2021.31964        -2.21415         8.39366
     2021.32238         3.96731         8.39646
     2021.32512         2.37878         8.23356
     2021.32785        -4.14376         8.18441
     2021.33059        -2.44629         8.09032
     2021.33333        -7.28382         8.18301
     2021.33607         4.69364         8.16475
     2021.33880         0.17411         8.18862
     2021.34154        -5.02843         8.11279
     2021.34428        -5.50096         8.21811
     2021.34702       -10.40950         8.14369
     2021.34976         0.88697         8.09313
     2021.35249        -2.66257         8.10156
     2021.35523        -3.02010         8.24901
     2021.35797        -6.68564         8.14228
     2021.36071        -7.95717         8.76580
     2021.36344        -1.89570         8.02572
     2021.36618       -12.10124         8.19705
     2021.36892        -6.43677         8.20828
     2021.37166        -6.66631         8.09734
     2021.37440        -8.63284         8.08189
     2021.37713        -5.42138         8.19284
     2021.37987        -4.74791         8.25182
     2021.38261        -3.25545         9.35141
     2021.38535       -14.26298         8.38242
     2021.38809        -8.91752         8.20969
     2021.39082        -6.59305         8.06364
     2021.39353        -4.21153         8.02572
     2021.39630       -12.11012         8.11279
     2021.39904        -2.31865         8.09453
     2021.40177         1.09681         8.32625
     2021.40451        -1.65472         8.34310
     2021.40725        -3.43426         8.15492
     2021.40999        -0.03779         8.10436
     2021.41273         1.17067         8.04819
     2021.41546         1.08414         8.20688
     2021.41820        -1.47840         8.07347
     2021.42094        -2.33893         8.30237
     2021.42368        -4.79046         8.20126
     2021.42642        -6.86800         8.15632
     2021.42915        -0.98153         8.17598
     2021.43189         7.38493         8.12964
     2021.43463        -5.19860         8.12683
     2021.43737         2.04886         8.25041
     2021.44010        -5.93867         8.33748
     2021.44284        -9.63221         9.05931
     2021.44558        -1.68874         8.31501
     2021.44832        -5.54628         8.23216
     2021.45106       -12.18681         8.41191
     2021.45379        -1.14534         8.61413
     2021.45653        -0.84588         8.39506
     2021.45927        -3.69741         8.31642
     2021.46201        -0.77595         8.09313
     2021.46475       -10.10648         8.21250
     2021.46748       -10.05302         8.16756
     2021.47022        -1.18355         8.33327
     2021.47296       -10.31009         8.16335
     2021.47570        -6.78462         8.18581
     2021.47843        -2.47516         8.21531
     2021.48117       -14.02869         8.14228
     2021.48391        -9.96422         8.09875
     2021.48665       -14.03276         8.24761
     2021.48939        -8.34829         8.13245
     2021.49212       -15.89383         8.03555
     2021.58247        -7.44647         8.25041
     2021.58521        -8.13300         8.30940
     2021.58795        -3.17054         8.52566
     2021.59069        -8.59007         8.42174
     2021.59342        -5.39661         8.32765
     2021.59616         1.12386         8.60711
     2021.59890        -5.25968         8.85006
     2021.60164        -1.44021         8.35855
     2021.60438        -0.76975         8.31923
     2021.60711         3.38572         8.29816
     2021.60985        -6.05981         8.26024
     2021.61259         3.85565         8.30940
     2021.61533        -2.99288         8.26165
     2021.61807        -1.49542         8.27429
     2021.62080        -4.18995         8.28693
     2021.62354        -7.17549         8.29395
     2021.62628        -8.58502         8.38382
     2021.62902         2.38044         8.24480
     2021.63175        -5.95209         8.35714
     2021.63449       -13.14263         8.53971
     2021.63723         2.99084         8.44702
     2021.63997        -9.73769         8.35995
     2021.64271        -3.62623         8.40910
     2021.64544        -2.27476         8.27850
     2021.64818         0.15670         8.49898
     2021.65092       -10.92483         8.25884
     2021.65366        -3.36537         8.72367
     2021.65639         2.70610         8.59728
     2021.65913         8.33456         8.26586
     2021.66187        -4.42097         8.23918
     2021.66461        -8.34551         8.32765
     2021.66735         1.43696         8.36838
     2021.67008         2.37243         8.51583
     2021.67282        -1.49611         8.84023
     2021.67556         7.47236         8.62677
     2021.67830         5.78182         8.40489
     2021.68104        -2.23771         8.28412
     2021.68377        -6.56825         8.33889
     2021.68651        -1.92178         8.48774
     2021.68925        -3.09032         8.20407
     2021.69199         0.37615         8.21390
     2021.69472        -8.00739         8.34029
     2021.69746        -0.59192         8.31923
     2021.70020         4.46555         8.45264
     2021.70294        -4.32499         8.28131
     2021.70568        -1.16252         8.30659
     2021.70841        10.45794         8.25322
     2021.71115         3.93741         8.37680
     2021.71389         1.38787         8.40770
     2021.71663        -3.22066         8.28833
     2021.71937        -0.49120         8.21811
     2021.72210        -0.34473         8.19143
     2021.72484        -6.31127         8.38944
     2021.72758        -0.17480         8.31361
     2021.73032         5.86367         8.77844
     2021.73305         1.80513         8.25884
     2021.73579         2.18360         8.14369
     2021.73853        -2.69994         8.13105
     2021.74127        10.85453         8.19845
     2021.74401         3.51199         8.25463
     2021.74674        10.83646         8.38944
     2021.74948        12.12192         8.61554
     2021.75222         5.97339         8.72648
     2021.75496         0.98185         8.13666
     2021.75770         3.38232         8.22654
     2021.76043        -0.86821         8.19986
     2021.76317        -1.19275         8.26024
     2021.76591         6.98972         8.23356
     2021.76865        10.48718         8.14228
     2021.77138        10.47265         8.18722
     2021.77412         5.35111         8.27569
     2021.77686        10.67558         8.35153
     2021.77960         8.87804        10.81190
     2021.78234         9.65951         8.22514
     2021.78507        12.13397         8.23497
     2021.78781         4.65044         8.17458
     2021.79055         7.39791         8.19705
     2021.79329         5.05037         8.49477
     2021.79603         7.33184         8.35293
     2021.79876        22.20230         8.13807
     2021.80150        16.95677         8.21250
     2021.80424         7.94623         8.34591
     2021.80698        12.43670         8.22514
     2021.80971        13.34816         8.27007
     2021.81245        12.57263         8.42315
     2021.81519        11.01709         8.12824
     2021.81793        11.12956         8.15492
     2021.82067         9.85702         8.39787
     2021.82340        11.51249         8.14369
     2021.82614        12.20996         8.18160
     2021.82888        11.02542         8.15352
     2021.83162        12.75489         8.55937
     2021.83436        16.73335         8.21952
     2021.83709        13.79082         8.20267
     2021.83983        -0.27972         8.20267
     2021.84257         4.01575        10.06340
     2021.84531         5.53221         8.22092
     2021.84804        22.53468         8.43157
     2021.85078        22.96814         8.26446
     2021.85352         6.31761         8.11560
     2021.85626        14.73908         8.12683
     2021.85900         9.56954         8.15632
     2021.86173         3.00501         8.22092
     2021.86447        13.61547         8.42315
     2021.86721         9.60494         8.58043
     2021.86995        19.46740         8.46808
     2021.87269        18.14487         8.24620
     2021.87542        17.83733         8.38102
     2021.87816        20.21680         8.18581
     2021.88090        12.56626         8.25603
     2021.88364         6.09473         8.24480
     2021.88637        11.49220         8.28974
     2021.88911        17.60966         8.30940
     2021.89185        14.36913         8.19003
     2021.89459        12.60959         8.29114
     2021.89733        18.37806         8.29676
     2021.90006        15.51052         8.25041
     2021.90280        15.29599         8.18441
     2021.90554        16.49345         8.27710
     2021.90828        20.06692         8.33467
     2021.91102        17.59838         8.27710
     2021.91375        17.73285         8.29957
     2021.91649        16.57332         8.52566
     2021.91923        19.01878         8.31782
     2021.92197        12.19525         8.76580
     2021.92470         4.35871         8.30659
     2021.92744         1.20418         8.28552
     2021.93018         6.49364         8.28693
     2021.93292        19.13611         8.47511
     2021.93566        22.78157         8.42455
     2021.93839        16.26504         8.42174
     2021.94113        19.17450         8.67452
     2021.94387        28.40997         8.14369
     2021.94661        -6.92956         8.14790
     2021.94935         9.63590         8.22233
     2021.95208         6.83037         8.17177
     2021.95482        -3.59417         8.30518
     2021.95756         0.49930         8.26024
     2021.96030        -1.31324         8.28693
     2021.96303       -20.51477         8.33467
     2021.96577        -4.83431         8.33467
     2021.96851        -5.33684         8.28412
     2021.97125       -15.50838         8.13105
     2021.97399        -8.42491         8.08751
     2021.97672        -8.61744         8.11841
     2021.97946       -16.54098         8.19565
     2021.98220       -13.86351         8.19705
     2021.98494       -15.09405         8.17177
     2021.98767       -11.64158         8.37259
     2021.99041       -12.11112         8.34872
     2021.99315       -16.33565         8.29676
     2021.99589       -29.74319         8.33608
     2021.99863       -21.79572         8.14369
     2022.00136       -13.09826         8.13385
     2022.00410       -30.78979         8.17739
     2022.01779       -32.15246         8.17458
     2022.02874       -25.44060         8.21811
     2022.04243       -35.36327         8.53549
     2022.04517       -27.71081         8.22654
     2022.04791       -31.68834         8.56498
     2022.05065       -30.97388         8.48634
     2022.05886       -28.72948         8.57903
     2022.06160       -33.96202         8.48353
     2022.06433       -27.59155         8.36978
     2022.06707       -24.87908         8.83742
     2022.06981       -25.82162         8.35574
     2022.07255       -32.62415         8.29114
     2022.07529       -29.40769         8.30659
     2022.07802       -26.08022         8.25884
     2022.08898       -34.56336         8.59728
     2022.09993       -35.40950         8.64503
     2022.10540       -33.28357         8.45264
     2022.10814       -26.61510         8.39646
     2022.11088       -34.58164         8.90343
     2022.11362       -34.14017         8.35714
     2022.11909       -36.39524         8.39085
     2022.12183       -36.75378         8.35012
     2022.12731       -36.49885         8.39927
     2022.13004       -29.46538         8.34872
     2022.13278       -36.91091         8.44842
     2022.13552       -19.40045         8.33889
     2022.13826       -23.88898         8.26727
     2022.14099       -26.13352         8.39927
     2022.14647       -18.09859         8.43578
     2022.14921         9.31788         8.55937
     2022.15195         7.68034         8.47370
     2022.15468         7.28781         8.17318
     2022.15742        -1.43173         8.47932
     2022.16016         7.98874         8.30097
     2022.16290        -5.64479         8.35012
     2022.16564        -1.56033         8.18722
     2022.16837         8.52214         8.19565
     2022.17111         5.76660         8.15211
     2022.17385         7.93307         8.79529
     2022.17659        10.03653         8.37680
     2022.17932        -1.97600         8.19424
     2022.18206        -6.62154         8.18581
     2022.18480        -2.96407         8.19986
     2022.18754         8.09739         8.44421
     2022.19028        -4.23814         8.43719
     2022.19301        -4.20367         8.26727
     2022.19575       -14.85021         9.20536
     2022.19849       -12.19774         8.26165
     2022.20123         5.00972         8.25744
     2022.20397        -5.20481         8.24901
     2022.20670        -5.69835         8.45966
     2022.20944        14.01912         8.40349
     2022.21218         5.72858         8.28833
     2022.21492        -4.75695         8.40349
     2022.21765         2.13251         8.13385
     2022.22039        -0.07502         8.08330
     2022.22313        -1.37955         8.31782
     2022.22587        -4.46209         8.38523
     2022.22861         1.74938         8.43017
     2022.23134         3.44484         8.18301
     2022.23408         2.95631         8.30518
     2022.23682         1.32077         8.42876
     2022.23956        -3.37276         8.19003
     2022.24230       -13.18830         8.30940
     2022.24503        -0.74683         8.87955
     2022.24777         4.05963         8.79670
     2022.25051        -3.19790         8.56779
     2022.25325        -0.07343         8.19986
     2022.25598         5.32303         8.55656
     2022.25872        -0.37050         8.35855
     2022.26146        -4.53604         8.20548
     2022.26420         5.39743         8.85989
     2022.26694       -29.33611         8.67171
     2022.26967       -12.25264         8.64222
     2022.27241        -0.79318         9.67440
     2022.27515       -17.55271         8.36276
     2022.27789        -9.03625         8.21952
     2022.28062        -8.74178         8.30378
     2022.28336        -3.20831        10.16872
     2022.28610        -4.58085         9.07897
     2022.28884        -4.35738         8.60150
     2022.29158       -12.46292         8.25884
     2022.29431        -5.65845         8.32906
     2022.29705        -2.80399         8.32484
     2022.29979         2.53748         8.34731
     2022.30253        -2.69606         8.82478
     2022.30527         1.15641         8.44842
     2022.30800        -4.76413         8.62116
     2022.31074       -10.80966         8.41753
     2022.31348       -13.83619         8.39085
     2022.31622        -9.68673         8.36978
     2022.31895        -9.42326         8.88657
     2022.32169        -6.80780         8.61975
     2022.32443        -3.87333         8.64784
     2022.32717        -5.18187         8.59167
     2022.32991        -2.64540         8.33467
     2022.33264       -10.13694         8.30940
     2022.33538        -1.10747         8.49055
     2022.33812        -0.54301         8.50881
     2022.34086       -14.78354         8.28974
     2022.34360        -7.55507         8.28271
     2022.34633       -12.47961         8.27148
     2022.34907        -2.03714         8.20969
     2022.35181        -4.56168         8.34872
     2022.35455        -4.62421         8.20688
     2022.35728        -8.05775         8.29395
     2022.36002        -8.31828         8.33748
     2022.36276        -4.43682         8.28131
     2022.36550        -6.26435         8.27850
     2022.36824        -3.77489         8.39225
     2022.37097       -12.34642         8.34591
     2022.37371       -15.81695         8.49758
     2022.37645       -12.67049         8.20969
     2022.37919        -9.59202         8.55094
     2022.38193       -24.34356         8.56077
     2022.38466       -10.30509         8.31642
     2022.38740       -18.96263         8.44281
     2022.39014        -2.00916         8.39927
     2022.39288       -17.12870         8.32484
     2022.39561       -13.41123         8.35153
     2022.39835        -9.07577         8.83883
     2022.40109       -10.72330         9.13795
     2022.40383       -10.54984         9.04526
     2022.40657         1.99263         8.76721
     2022.40930        -8.32790         8.47370
     2022.41204         1.63856         8.63660
     2022.41478        -0.88797         8.42034
     2022.41752        -7.11251         8.52707
     2022.42026       -31.40204         8.57341
     2022.42299        -6.92758         8.36838
     2022.42573       -12.41011         8.38804
     2022.42847        -5.12065         8.34731
     2022.43121        -4.40918         8.77844
     2022.43394         5.51628         8.40770
     2022.43668       -14.38425         8.34872
     2022.43942        -0.09078         8.32344
     2022.44216        -5.25432         8.33327
     2022.44490        11.12015         8.62677
     2022.44763        15.99961         8.27569
     2022.45037        -2.90992         8.38804
     2022.45311       -17.24446         8.94836
     2022.45585        -5.95999         8.52145
     2022.45859       -17.46153         8.43859
     2022.46132        -6.28106         8.40910
     2022.46406       -13.42860         8.41051
     2022.46680       -10.82413         8.40770
     2022.46954        -0.96266         8.44562
     2022.47227       -16.47420         8.56920
     2022.47501         7.39227         8.55234
     2022.47775       -15.27027         8.66750
     2022.48049         2.40520         8.49758
     2022.48323        10.81566         8.87113
     2022.48596        14.39713         8.50600
     2022.48870        -3.82541         8.45404
     2022.49144        -0.77594         8.47370
     2022.49418        -8.26348         8.65907
     2022.49692         2.14699         8.42595
     2022.49965        -2.34454         9.20114
     2022.50239       -25.45408         8.55937
     2022.50513        -2.91061         9.20816
     2022.50787        33.03785         9.03543
     2022.51060        -1.72368         8.67733
     2022.51334        -7.56122         9.56767
     2022.51608       -12.00875         8.78546
     2022.51882       -12.78329         8.60150
     2022.52156        -3.08082         8.41051
     2022.52429        14.04764         8.48774
     2022.52703        -6.54989         8.78406
     2022.52977        11.39458         8.50881
     2022.53251        -6.66896         8.60430
     2022.53525         3.31851         8.50319
     2022.53798        -0.00603         8.37961
     2022.54072         2.64144         8.44000
     2022.54346         7.64490         8.55796
     2022.54620         0.46937         9.67861
     2022.54893        19.12883         8.47651
     2022.55167        13.51030         8.42315
     2022.55441         6.87876         8.44842
     2022.55715        14.56623         8.57481
     2022.55989         2.48670         8.34731
     2022.56262        -6.71884         8.30659
     2022.56536       -25.66337         8.60992
     2022.56810         0.30309         8.33186
     2022.57084        -0.16644         8.35433
     2022.57357        13.21002         8.59728
     2022.57631        -3.99751         8.39787
     2022.57905        -7.21205         8.28131
     2022.58179         7.93342         8.29535
     2022.58453        10.87488         8.62537
     2022.58726        -8.84765         8.58605
     2022.59000        10.36482         8.53268
     2022.59274        -3.44172         8.40208
     2022.59548        -3.04425         8.28131
     2022.59822        -4.66879         9.05228
     2022.60095       -12.53032         8.68575
     2022.60369       -13.76686         8.74474
     2022.60643        -1.01239         8.35995
     2022.60917       -10.58893         8.66469
     2022.61190         5.08854         8.64784
     2022.61464         6.22700         8.39787
     2022.61738        17.31847         8.42595
     2022.62012         4.59294         8.40349
     2022.62286         5.78740         8.31501
     2022.62559        -2.00113         8.47651
     2022.62833         9.18333         9.61261
     2022.63107         0.70480         8.36276
     2022.63381         6.54526         8.34450
     2022.63655        -3.11627         8.42736
     2022.63928         0.21219         8.37399
     2022.64202        10.93266         8.86130
     2022.64476         6.27412         8.67452
     2022.64750         0.96359         8.33467
     2022.65023         1.29806         8.31501
     2022.65297         6.97252         8.68435
     2022.65571         3.91999         8.27850
     2022.65845        11.57745         8.60150
     2022.66119         5.93992         8.35012
     2022.66392         7.74038         8.28974
     2022.66666         5.89385         8.32344
     2022.66940         7.90031         8.39366
     2022.67214         9.35678         8.91185
     2022.67488         5.89024        10.34567
     2022.67761         9.28771         9.21519
     2022.68035         4.55218         8.53690
     2022.68309         1.47464         8.39787
     2022.68583         4.40111         8.75035
     2022.68856        -5.47943         9.03403
     2022.69130         5.82504         8.60430
     2022.69404         3.74150         8.32484
     2022.69678         4.60497         8.46387
     2022.69952         1.06043         8.42315
     2022.70225         9.10990         8.85568
     2022.70499        -5.99464         8.66469
     2022.70773         5.80783         8.31220
     2022.71047        11.32629         8.22514
     2022.71321         7.31976         8.25463
     2022.71594        -2.86577         8.50038
     2022.71868         3.57669         8.35714
     2022.72142        13.78816         8.38663
     2022.72416         0.94462         8.44842
     2022.72689        10.28409         8.44562
     2022.72963        10.71455         8.22514
     2022.73237        14.84102         8.22935
     2022.73511         5.76448         8.18441
     2022.73785         8.92995         8.68014
     2022.74058         6.74741         8.33608
     2022.74332        15.40188         8.69418
     2022.74606        10.06035         8.50460
     2022.74880        11.76381         8.22935
