# ================= DQRFIT RESULTS ================
# INPUT FILE: series/BDRD.rad
# OUTPUT: LDETRENDED
# FILTER FUNCTION: f(t)
# f(t)=+line(t)
# line(t)=+P 1+P 2*t
# heav(t)=(t<0?0:1)
# TOTAL OBSERVATIONS MTOT=   74
# INITIAL TIME INTERVAL= 2010.9979 - 2010.2998 =  0.6982
# TOTAL OBSERVATIONS AFTER PREFILTER M=   73
# TIME-SPAN= 2010.9979 - 2010.2998 =  0.6982
# OBSERVATIONS: USED M=    73 REJECTED MTOT-M=     1 %USED=   98.6487
# N=  2 PARAMETERS
# MAXSIG= 175.00000
# MAXRES=  20.39049
# SCALE FACTOR FOR LENGTHS: SCL=  10.00000
# SCALE FACTOR FOR SIGMAS: SCLSIG=   1.00000
# CHI^2=     55.535 DOF=    71 CHI^2/DOF=   0.78218
# RMS=     14.063 SDEV=     13.633 MEAN=   -3.80238
#  P #       PARAMETER +-    SIGMA %error PARAMETER NAME
# P 1 =     -7489.00540 +- ******** 191.84 YZERO                              
# P 2 =         3.73704 +-    7.146 191.23 SLOPE                              
#       T            LDETRENDED       SIG_OBS
     2010.29979         6.83642         6.07952
     2010.30253         0.03589         7.32827
     2010.30527         6.82902         7.15348
     2010.30801        16.96501         6.43623
     2010.31075        -2.41661         7.22845
     2010.31348        11.46920         8.82104
     2010.31622         8.96084         8.34588
     2010.31896         1.88613         7.79910
     2010.32170        -3.43712         7.78178
     2010.32444         5.14254         8.60445
     2010.32717        20.39049        14.11531
     2010.32991         3.52935         7.23503
     2010.33265         2.14466         7.13025
     2010.33539        13.39335        14.10600
     2010.33812        -6.20098         7.53636
     2010.34086       -12.40256         7.50015
     2010.34360        -6.22108         7.28429
     2010.34634        -4.14601         7.89145
     2010.34908        -4.85971         7.07008
     2010.35181         4.54151         6.93093
     2010.35455         5.33661         6.90508
     2010.35729       -16.81467        17.83535
     2010.36003         4.12634         6.59945
     2010.36277        -1.63862         6.66643
     2010.36550         4.89036         6.87731
     2010.36824         8.68369         6.88870
     2010.37098         7.49140         6.43003
     2010.37372         7.24131         6.37840
     2010.37645         4.83373         6.85083
     2010.37919        -6.23261         6.90585
     2010.38193         2.35126         8.42553
     2010.38467         3.16153         7.89297
     2010.38741       -40.68600        31.28971
     2010.39014         5.53518         8.83475
     2010.39288       -14.97459         7.50127
     2010.39562        -9.64115         7.25754
     2010.39836        -4.40896         7.39778
     2010.40110         4.20552         9.63591
     2010.40383        -4.66916         7.76457
     2010.40657       -11.45317        14.11289
     2010.41478        -1.36025         9.30655
     2010.41752        -5.99314         8.61017
     2010.42026       -14.22013        14.79410
     2010.42300       -14.47906         7.87322
     2010.42574         1.11714        10.04449
     2010.42847        -2.39509         7.50365
     2010.43121       -23.58580         8.82208
     2010.43395         4.36012         8.35888
     2010.43669       -13.07182        10.37760
     2010.43943       -15.69901        11.21633
     2010.44216       -65.55624        35.49312
     2010.44764       -17.25625        26.64834
     2010.45038        -0.59288        10.12044
     2010.45311        -0.10286         9.98644
     2010.45585       -10.06563        15.06314
     2010.45859       -10.60173        23.50252
     2010.46133         8.34601        12.31097
     2010.46407        -7.76557        12.66959
     2010.46680       -27.21774        12.63814
     2010.46954       -15.13386        29.05042
     2010.47228       -22.55979        32.05267
     2010.47502       -11.61480        33.25797
     2010.47775         1.07057        12.67863
     2010.48049         6.72868        10.37411
     2010.48323        -1.58613         9.62762
     2010.48597         0.87878        30.55782
     2010.48871         1.14110        12.92146
     2010.49966       -24.44350        26.66310
     2010.50240        16.21052        58.81319
     2010.50513        -4.31388        45.36764
     2010.99247       -32.02990        25.89239
     2010.99521        10.32891         7.45280
     2010.99795         4.11087         6.00267
