# ================= DQRFIT RESULTS ================
# INPUT FILE: series/BELT.rad
# OUTPUT: LDETRENDED
# FILTER FUNCTION: f(t)
# f(t)=+line(t)
# line(t)=+P 1+P 2*t
# heav(t)=(t<0?0:1)
# TOTAL OBSERVATIONS MTOT=   87
# INITIAL TIME INTERVAL= 2015.3238 - 2015.0719 =  0.2519
# TOTAL OBSERVATIONS AFTER PREFILTER M=   87
# TIME-SPAN= 2015.3238 - 2015.0719 =  0.2519
# OBSERVATIONS: USED M=    87 REJECTED MTOT-M=     0 %USED=  100.0000
# N=  2 PARAMETERS
# MAXSIG= 175.00000
# MAXRES= 175.36660
# SCALE FACTOR FOR LENGTHS: SCL=  10.00000
# SCALE FACTOR FOR SIGMAS: SCLSIG=   1.00000
# CHI^2=     51.239 DOF=    85 CHI^2/DOF=   0.60281
# RMS=     29.342 SDEV=     29.492 MEAN=    1.08400
#  P #       PARAMETER +-    SIGMA %error PARAMETER NAME
# P 1 =   -444504.81006 +- ********  14.43 YZERO                              
# P 2 =       221.61028 +-   31.819  14.36 SLOPE                              
#       T            LDETRENDED       SIG_OBS
     2015.07187       -41.24226        25.04774
     2015.07461        17.67164        16.40946
     2015.07734        -1.82533        16.30845
     2015.08008        -5.35806        16.43243
     2015.08282         2.83970        15.95775
     2015.08556        -1.64271        17.34362
     2015.08830         9.52769        17.69103
     2015.09103        18.84288        20.29944
     2015.09377        13.84344        17.97149
     2015.09651         1.49887        20.72252
     2015.09925         5.87681        20.97851
     2015.10198       -23.41326        19.50040
     2015.10472         0.71531        17.76522
     2015.10746        21.02266        28.63670
     2015.11020       -10.11530        19.54725
     2015.11294        -0.20781        20.07839
     2015.11567        11.11876        19.14596
     2015.11841       -14.95917        19.11827
     2015.12115       -18.08197        19.73117
     2015.12389        12.66562        18.96381
     2015.12663        -5.79030        20.99284
     2015.12936         4.53599        20.33840
     2015.13210       -16.70510        22.61056
     2015.13484         7.23795        23.32485
     2015.13758        12.00990        27.70840
     2015.14031       -36.21451        21.07630
     2015.14305        -9.35182        22.45943
     2015.14579         8.07432        22.71629
     2015.14853        -2.18054        22.71928
     2015.15127        -3.33208        21.67981
     2015.15400        18.55213        21.18396
     2015.15674        27.38065        20.91623
     2015.15948       -12.78527        20.91386
     2015.16222         4.11409        20.19353
     2015.16496        -1.68062        20.39588
     2015.16769        48.41384        21.77879
     2015.17043        -0.37801        19.87937
     2015.17317         8.55189        20.00044
     2015.17591        -5.25788        20.82731
     2015.17864        -9.37393        20.28570
     2015.18138       -15.01699        21.53907
     2015.18412        -5.72735        20.39552
     2015.18686        12.29243        18.15788
     2015.18960        38.72988        19.89930
     2015.19233        -5.73848        23.68117
     2015.19507        -5.54903        23.59170
     2015.19781       -10.35174        21.59156
     2015.20055       -26.50125        19.86243
     2015.20329        20.26517        22.65101
     2015.20602         9.20888        23.61777
     2015.20876        14.30836        21.63938
     2015.21150         2.54984        21.67221
     2015.21424         2.09830        22.74773
     2015.21697        25.68010        21.67156
     2015.22245       -22.64036        26.98887
     2015.22519       -30.81761        24.13054
     2015.22793         3.43442        30.44324
     2015.23066       -46.56850        26.70096
     2015.23340       -44.85091        29.16265
     2015.23614       -17.48096        26.86725
     2015.23888       -62.21202        28.85399
     2015.24162        13.21018        24.66661
     2015.24435        -5.73091        25.29795
     2015.24709       -40.71172        25.16930
     2015.24983         7.42658        26.19656
     2015.25257        29.89102        25.58150
     2015.25530        13.76030        23.68282
     2015.25804       -13.20778        26.75061
     2015.26078         1.71449        24.59643
     2015.26352       -53.48235        22.16687
     2015.26626       175.36660        57.34784
     2015.28268       -18.79045        25.33812
     2015.28542       -44.73588        24.61002
     2015.28816         0.64459        22.92316
     2015.29090       -23.08305        22.49693
     2015.29363        33.12920        23.33218
     2015.29637         5.38997        24.11734
     2015.29911       -32.66922        24.01776
     2015.30185        18.23786        23.91578
     2015.30459       -15.10424        24.71897
     2015.30732        21.32698        23.67943
     2015.31006        41.24567        25.05224
     2015.31280        36.84648        22.02690
     2015.31554        -4.92243        23.87188
     2015.31828        -2.89145        20.97437
     2015.32101        17.19815        23.69313
     2015.32375        64.53861        39.38152
