# ================= DQRFIT RESULTS ================
# INPUT FILE: series/BESI.rad
# OUTPUT: LDETRENDED
# FILTER FUNCTION: f(t)
# f(t)=+line(t)
# line(t)=+P 1+P 2*t
# heav(t)=(t<0?0:1)
# TOTAL OBSERVATIONS MTOT=   82
# INITIAL TIME INTERVAL= 2015.3320 - 2015.1020 =  0.2300
# TOTAL OBSERVATIONS AFTER PREFILTER M=   82
# TIME-SPAN= 2015.3320 - 2015.1020 =  0.2300
# OBSERVATIONS: USED M=    82 REJECTED MTOT-M=     0 %USED=  100.0000
# N=  2 PARAMETERS
# MAXSIG= 175.00000
# MAXRES=  29.34156
# SCALE FACTOR FOR LENGTHS: SCL=  10.00000
# SCALE FACTOR FOR SIGMAS: SCLSIG=   1.00000
# CHI^2=    220.747 DOF=    80 CHI^2/DOF=   2.75934
# RMS=     10.247 SDEV=     10.310 MEAN=    0.02451
#  P #       PARAMETER +-    SIGMA %error PARAMETER NAME
# P 1 =    -44953.30509 +- ********  77.92 YZERO                              
# P 2 =        22.28779 +-   17.382  77.99 SLOPE                              
#       T            LDETRENDED       SIG_OBS
     2015.10198        -4.76774        10.10079
     2015.11020        -0.89832        11.20089
     2015.11294        -4.42818        10.52439
     2015.11567       -11.47451        10.31208
     2015.11841         0.13870        10.79442
     2015.12115        -5.57764        10.58354
     2015.12389        13.61563        10.60670
     2015.12663        11.64768        10.39948
     2015.12936         0.53622        10.08972
     2015.13210        -3.13767        10.07989
     2015.13484        -0.44435        10.27910
     2015.13758        12.09561        10.54071
     2015.14031         4.11509        10.20907
     2015.14305        -6.49031        10.40747
     2015.14579         3.17270        10.58953
     2015.14853         1.45859         9.89114
     2015.15127         5.40786        10.04978
     2015.15400         4.47781        10.20609
     2015.15674        -6.25329        10.44594
     2015.15948        -1.95053        10.52141
     2015.16222         4.74348         9.85884
     2015.16496         5.88625        10.33308
     2015.16769        11.87047        10.24333
     2015.17043         1.03133        10.13725
     2015.17317       -12.58847        10.28832
     2015.17591       -14.30945        10.06254
     2015.17864       -21.51446        10.20779
     2015.18138        -7.25858        10.38512
     2015.18412        -6.85234         9.92268
     2015.18686        -6.81651        10.02532
     2015.18960         6.21490        10.67286
     2015.19233        -4.67470        10.67204
     2015.19507        -8.43061         9.99418
     2015.19781        -0.65895        10.86174
     2015.20055        13.75044         9.84758
     2015.20329         9.39864         9.86346
     2015.20602        17.27125        11.59328
     2015.20876        18.64715        10.19792
     2015.21150         9.47820        10.40594
     2015.21424        11.90252        10.09219
     2015.21697         7.92684        11.15374
     2015.22245       -11.41471        10.44723
     2015.22519        -9.17008        10.88863
     2015.22793       -15.89130        10.15508
     2015.23066        -3.13218        11.12516
     2015.23340         4.29831        12.48929
     2015.23614       -13.49680        10.87227
     2015.23888        -7.76332        11.25138
     2015.24162        -0.50967        10.35176
     2015.24435        -6.57661        10.55989
     2015.24709         8.20004        10.32944
     2015.24983        14.47434        10.35542
     2015.25257        11.02023        10.44508
     2015.25530        10.15566        10.12880
     2015.25804         1.08369        10.49779
     2015.26078        -1.72989        11.36353
     2015.26352        -6.70527        10.23246
     2015.26626        -8.26607        10.93285
     2015.26899        -7.39563        10.51616
     2015.27173        -8.04123        10.47496
     2015.27447       -12.57538        10.44240
     2015.27721       -12.57208        10.35132
     2015.27995        -3.55445        10.35485
     2015.28268        -2.40998        10.54420
     2015.28542        -5.84977        10.40458
     2015.28816        -7.69463        11.33257
     2015.29090        -7.72956         9.95550
     2015.29363        10.65228        10.61554
     2015.29637        -0.26456        10.94288
     2015.29911        19.52164        10.44779
     2015.30185         6.57463        10.44246
     2015.30459        16.17265        10.94100
     2015.30732        29.34156        10.24841
     2015.31006        23.73232        10.31561
     2015.31280         9.81093        10.02195
     2015.31554         1.67541        10.30411
     2015.31828        -3.85337         9.88141
     2015.32101       -20.87091        10.14954
     2015.32375       -13.04386        10.09603
     2015.32649         2.62800        11.04510
     2015.32923       -14.55314        10.41281
     2015.33196        -8.52815        10.49528
