# ================= DQRFIT RESULTS ================
# INPUT FILE: series/BLCL.rad
# OUTPUT: LDETRENDED
# FILTER FUNCTION: f(t)
# f(t)=+line(t)+annual(t)
# line(t)=+P 1+P 2*t
# annual(t)=+P 3*sin(2*pi*t+P 4)
# heav(t)=(t<0?0:1)
# TOTAL OBSERVATIONS MTOT= 2707
# INITIAL TIME INTERVAL= 2022.7488 - 2015.2170 =  7.5318
# TOTAL OBSERVATIONS AFTER PREFILTER M= 2701
# TIME-SPAN= 2022.7488 - 2015.2170 =  7.5318
# OBSERVATIONS: USED M=  2701 REJECTED MTOT-M=     6 %USED=   99.7784
# N=  4 PARAMETERS
# MAXSIG= 175.00000
# MAXRES=  19.91155
# SCALE FACTOR FOR LENGTHS: SCL=  10.00000
# SCALE FACTOR FOR SIGMAS: SCLSIG=   1.00000
# CHI^2=   2714.256 DOF=  2697 CHI^2/DOF=   1.00640
# RMS=      5.754 SDEV=      5.755 MEAN=   -0.01656
#  P #       PARAMETER +-    SIGMA %error PARAMETER NAME
# P 1 =    -10871.04141 +-  102.222   0.94 YZERO                              
# P 2 =         5.39873 +-    0.051   0.94 SLOPE                              
# P 3 =         8.51201 +-    0.155   1.82 ANNUAL AMPLITUDE                   
# P 4 =         2.83870 +-    0.025   0.86 ANNUAL PHASE                       
#       T            LDETRENDED       SIG_OBS
     2015.21697        -9.32910         5.57375
     2015.21971        -7.39388         5.57676
     2015.22245        -6.96366         5.63594
     2015.22518        -3.21844         5.72523
     2015.22792        -9.62722         5.73225
     2015.23066        -8.87601         5.71018
     2015.23335        -5.86153         5.78843
     2015.24172        -7.62875         6.14557
     2015.24435        -8.38291         5.90982
     2015.24709        -8.22069         5.81150
     2015.24982         0.61853         5.64397
     2015.25256        -1.61025         5.75633
     2015.25530        -7.30003         5.72723
     2015.25804       -10.11281         5.67306
     2015.26078       -10.23960         5.74930
     2015.26351        -9.87538         5.78341
     2015.26625        -5.64516         5.74228
     2015.26899        -7.83994         5.76034
     2015.27173        -1.00772         5.88975
     2015.27446         2.76650         5.81451
     2015.27720        -2.26228         5.61488
     2015.27994        -4.57006         5.63394
     2015.28268        -8.70884         5.67407
     2015.28542       -12.27162         5.86668
     2015.28815       -15.20241         5.91182
     2015.29089       -15.53019         5.74930
     2015.29363       -11.08597         5.72523
     2015.29637       -10.09775         5.66604
     2015.29911        -5.10553         5.67808
     2015.30184        -6.84331         5.71520
     2015.30458       -12.29809         5.67005
     2015.30732        -8.36887         5.49851
     2015.31006        -8.36065         5.49650
     2015.31279       -10.19143         5.62491
     2015.31553       -12.68021         5.55569
     2015.31827       -13.94500         5.65801
     2015.32101       -14.88478         5.73827
     2015.32375       -13.94656         5.69212
     2015.32648        -3.38934         5.74429
     2015.32922        -9.74412         5.65601
     2015.33196        -8.39990         5.58077
     2015.33470        -9.02668         5.63695
     2015.33744        -9.35346         5.49650
     2015.34017       -14.04424         5.57876
     2015.34291       -14.20402         5.54867
     2015.34565       -12.67080         5.63795
     2015.34839       -16.61359         5.44132
     2015.35112       -13.85037         5.51556
     2015.35386        -7.85815         5.60886
     2015.35660       -11.76693         5.59883
     2015.35934        -8.51271         5.61688
     2015.36208        -4.42449         5.74730
     2015.36481        -6.45427         5.59180
     2015.36755        -5.50705         5.48747
     2015.37029       -10.30583         5.81150
     2015.37303       -13.79961         5.60685
     2015.37577       -13.32239         5.52158
     2015.37850       -17.29418         5.83558
     2015.38124       -12.50596         5.60384
     2015.38398        -9.85974         5.47945
     2015.38672        -3.86252         5.50051
     2015.38945        -8.12330         5.68510
     2015.39219       -10.57708         5.70717
     2015.39493        -5.77286         5.66102
     2015.39767        -7.80664         5.50754
     2015.40041       -12.34142         5.54967
     2015.40314        -9.18020         5.76235
     2015.40588       -13.13699         5.67106
     2015.40862       -11.72377         5.51857
     2015.41136        -4.39555         5.53663
     2015.41410        -7.25733         5.62591
     2015.41683        -7.25711         5.57475
     2015.41957        -5.96489         5.48747
     2015.42231         0.05233         5.67005
     2015.42505       -13.61145         5.92988
     2015.42778        -7.66823         5.56873
     2015.43052        -2.04601         5.61488
     2015.43326        -6.16479         5.95195
     2015.43600        -9.08658         5.89677
     2015.43874        -1.37636         5.66002
     2015.44147        -1.42114         5.78743
     2015.44421        -6.61092         5.51255
     2015.44695        -4.00470         5.59080
     2015.44969        -8.83948         5.62290
     2015.45243         0.75674         5.75833
     2015.45516         3.68696         5.75231
     2015.45790        -2.70682         5.83859
     2015.46064        -3.05760         5.73426
     2015.46338         4.95062         5.87470
     2015.46611        -8.44217         5.60886
     2015.46885        -7.38495         5.50453
     2015.47159        -4.16673         5.66504
     2015.47433        -2.29051         6.00111
     2015.47707        -8.89329         5.72824
     2015.47980        -1.08507         6.14055
     2015.48254        -5.07485         5.66002
     2015.48528         0.73237         5.78843
     2015.48802        -6.45741         5.59582
     2015.49076        -2.40019         5.78642
     2015.49349        -1.83497         6.00111
     2015.49623         0.98024         5.94493
     2015.49897        -7.66654         6.07033
     2015.50171        -1.83332         5.78743
     2015.50444        -2.40510         5.60685
     2015.50718        -3.34488         5.56070
     2015.50992        -0.00966         5.54566
     2015.51266         1.49456         5.57676
     2015.51540        -0.96722         5.66504
     2015.51813         1.40700         5.67808
     2015.52087        11.03322         5.71620
     2015.52361        -0.44457         5.73325
     2015.52635        -0.93635         5.53061
     2015.52908         1.10887         5.80047
     2015.53182        10.00909         5.56572
     2015.53456         4.89731         5.61889
     2015.53730         3.12553         5.69814
     2015.54004         8.90775         5.67908
     2015.54277        -0.25803         5.60886
     2015.54551        -1.11481         5.70215
     2015.54825         8.38541         5.73526
     2015.55099         5.32063         5.81351
     2015.55373         1.95384         5.73024
     2015.55646         6.65806         5.75833
     2015.55920         7.20628         5.75532
     2015.56194        10.42550         5.74329
     2015.56468         1.17972         5.72122
     2015.56741         4.09194         5.74730
     2015.57015         8.77416         5.84962
     2015.57289        -7.40962         5.79345
     2015.57563        -1.22040         5.76837
     2015.57837        -1.11418         5.79244
     2015.58110         3.50604         5.93991
     2015.58384         6.25525         5.86768
     2015.58658        -4.52053         5.76034
     2015.58932         1.00669         5.66002
     2015.59206         2.90891         5.66002
     2015.59479         9.02313         5.85564
     2015.59753         5.18735         5.82454
     2015.60027         8.34357         5.87671
     2015.60301         6.97679         5.82655
     2015.60574         4.39301         5.70416
     2015.60848         7.56923         5.68610
     2015.61122         6.33445         5.64497
     2015.61396        -2.00834         5.83658
     2015.61670        -0.86212         5.66604
     2015.61943         6.99310         5.68209
     2015.62217         8.96232         5.72523
     2015.62491        12.29354         5.61086
     2015.62765         5.49576         5.70316
     2015.63039         0.61698         5.83056
     2015.63312         5.38120         5.79746
     2015.63586        10.24542         5.57575
     2015.63860         8.72364         5.81652
     2015.64134        -3.57514         5.69112
     2015.64407         4.09607         5.60284
     2015.64681         4.76229         5.76134
     2015.64955         5.89951         5.71720
     2015.65229         3.75673         5.95998
     2015.65503        14.56195         5.68911
     2015.65776        13.14317         5.65801
     2015.66050        14.81039         5.61688
     2015.66324        18.23461         5.61287
     2015.66598        19.95983         5.75633
     2015.66872        16.74905         5.74028
     2015.67145        11.20026         5.53763
     2015.67419         2.06548         5.76235
     2015.67693         5.53770         5.53462
     2015.67967         9.47992         5.68610
     2015.68240         5.10014         5.55268
     2015.68514         7.50836         5.82254
     2015.68788         3.87858         5.72523
     2015.69062        10.27280         5.67808
     2015.69336        -0.77198         6.01615
     2015.69609         7.49024         5.79746
     2015.69883        -2.48954         5.94091
     2015.70157         9.23367         5.60184
     2015.70431         9.88389         5.69714
     2015.70705         7.78711         5.67707
     2015.70978        14.90633         5.61387
     2015.71252         1.14655         5.70918
     2015.71526        13.50877         5.66704
     2015.71800        11.26399         5.68008
     2015.72073        12.63421         5.57074
     2015.72347         6.72243         5.57776
     2015.72621         6.80565         5.55469
     2015.72895         2.44187         5.57676
     2015.73169         4.17808         5.67206
     2015.73442         5.33030         5.60083
     2015.73716         5.92752         5.56371
     2015.73990        10.88774         5.81953
     2015.74264        12.90196         5.64999
     2015.74538        11.93718         5.81953
     2015.74811        -0.33960         5.90580
     2015.75085        -0.51638         5.74429
     2015.75359         0.40984         5.50152
     2015.75633         4.08906         5.55569
     2015.75906         6.68727         5.59080
     2015.76180         5.00849         5.62692
     2015.76454        10.01871         5.56271
     2015.76728        10.89193         5.69814
     2015.77002         7.41415         5.81953
     2015.77275        18.22237         5.60083
     2015.77549        13.13959         5.59281
     2015.77823        14.93381         5.62591
     2015.78097        14.14903         5.68209
     2015.78371         8.18325         5.58879
     2015.78644         7.90347         5.57274
     2015.78918        11.87268         5.59983
     2015.79192        11.16090         5.70316
     2015.79466         8.36312         5.61187
     2015.79739         6.74034         5.55569
     2015.80013         7.05956         5.55870
     2015.80287         8.66778         5.66604
     2015.80561         2.11400         5.71118
     2015.80835         6.26222         5.62892
     2015.81108         1.33344         5.64598
     2015.81382         7.29566         5.58478
     2015.81656         4.05088         5.69814
     2015.81930         1.09409         5.53863
     2015.82203        10.01531         5.64698
     2015.82477        11.44853         5.73626
     2015.82751         9.89375         5.65902
     2015.83025        13.29797         5.57776
     2015.83299        11.75319         5.64397
     2015.83572         7.26341         5.58578
     2015.83846         3.35363         5.72422
     2015.84120         1.26985         5.70215
     2015.84394         4.25007         5.74930
     2015.84668         1.26629         5.70215
     2015.84941         7.06250         5.76235
     2015.85215        10.17572         5.71018
     2015.85489         6.34494         5.75833
     2015.85763         8.12216         5.75633
     2015.86036         4.92838         5.72222
     2015.86310         5.03560         5.68911
     2015.86584         8.43482         5.84661
     2015.86858         3.44004         5.73325
     2015.87132         5.76526         5.79044
     2015.87405         1.60348         5.82354
     2015.87679        -1.94930         5.74630
     2015.87953         7.27091         5.63594
     2015.88227         8.58413         5.83558
     2015.88501        -4.69565         5.73626
     2015.88774         2.97257         5.81050
     2015.89048         6.39279         5.75031
     2015.89322         8.29701         5.64999
     2015.89596        14.70723         5.76536
     2015.89869         0.70245         5.71118
     2015.90143        -4.77733         5.76435
     2015.90417        -6.12211         5.71921
     2015.90691         0.67110         5.70416
     2015.90965        -0.31868         5.63996
     2015.91238         1.83854         5.81451
     2015.91512         3.01876         5.71720
     2015.91786         2.64798         5.76335
     2015.92060         3.27020         5.69212
     2015.92334        -0.43858         5.70416
     2015.92607        -0.54736         5.76837
     2015.92881        -5.49714         5.68410
     2015.93155         2.88308         5.84060
     2015.93429         7.11730         5.79345
     2015.93702         4.55251         5.76235
     2015.93976        11.18773         5.81150
     2015.94250         6.18395         5.82153
     2015.94524         8.65917         5.74429
     2015.94798        10.04539         5.74128
     2015.95071        10.17261         5.74529
     2015.95345        -1.03417         5.63996
     2015.95619         1.50705         5.57174
     2015.95893         5.33127         5.73727
     2015.96167         8.58149         5.69915
     2015.96440         5.75071         5.58378
     2015.96714         5.71892         5.69012
     2015.96988        -5.21086         5.67206
     2015.97262         8.24536         5.66203
     2015.97535         7.95258         5.65500
     2015.97809         4.88380         5.64497
     2015.98083         2.67102         5.66303
     2015.98357        -6.61676         5.64397
     2015.98631        -9.38654         5.60585
     2015.98904        -4.44632         5.70215
     2015.99178        -6.34810         5.67908
     2015.99452        -6.18788         5.68209
     2015.99726        -3.29567         5.69112
     2016.00000        -1.60445         5.81451
     2016.00273        -7.46523         5.68811
     2016.00547        -3.85201         5.68711
     2016.00821        -0.89179         5.81652
     2016.01095        -0.00457         5.68610
     2016.01368        -2.77135         5.67106
     2016.01642        -2.52113         5.76736
     2016.01916        -3.01591         5.94994
     2016.02190         1.19231         5.79345
     2016.02464        -0.86848         5.64598
     2016.02737        -5.20826         5.71419
     2016.03011         2.55596         5.67607
     2016.03285         1.06318         5.70416
     2016.03559         0.20340         5.72623
     2016.03833        -2.46138         5.80950
     2016.04106         6.35684         5.67306
     2016.04380         3.83606         5.75131
     2016.04654         3.32028         5.75031
     2016.04928         0.47750         5.72322
     2016.05201        -7.07928         5.81853
     2016.05475         0.43493         5.69112
     2016.05749        -0.44185         5.63795
     2016.06023         1.64937         5.74730
     2016.06297        -1.33041         5.61287
     2016.06570         0.31581         5.87972
     2016.06844        -0.62097         5.88273
     2016.07118        -3.06375         5.79545
     2016.07392         2.71047         5.75432
     2016.07666         6.58969         5.94091
     2016.07939        13.36291         5.81150
     2016.08213         4.91713         5.93991
     2016.08487        -5.27966         5.79645
     2016.08761        -3.82544         5.80950
     2016.09034        -1.98122         5.73927
     2016.09308         1.34600         5.82856
     2016.09582        -1.03078         5.78743
     2016.09856       -16.20456         5.85865
     2016.10130       -16.53134         5.76536
     2016.10403        -6.40712         5.76837
     2016.10677        -4.78790         5.72723
     2016.10951       -10.33768         5.83056
     2016.11225        -5.48446         5.91483
     2016.11498        -8.81425         5.76837
     2016.11772        -8.85203         5.69915
     2016.12046        -9.09981         5.71018
     2016.12320        -5.57359         5.79144
     2016.12594        -3.58537         5.77840
     2016.12867        -0.83815         5.86868
     2016.13141         4.15107         5.79144
     2016.13415         1.02529         5.77639
     2016.13689        -0.53849         5.71219
     2016.13963        -3.53727         5.66403
     2016.14236       -14.93406         5.73225
     2016.14510       -10.35484         5.66303
     2016.14784        -8.77262         5.67808
     2016.15058        -4.31440         5.70115
     2016.15331        -1.88318         5.79144
     2016.15605        -0.91196         5.77940
     2016.15879        -3.51074         5.77840
     2016.16153        -3.03752         5.77639
     2016.16427         0.87670         5.77138
     2016.16700        -1.37808         5.69714
     2016.16974        -2.47086         5.78843
     2016.17248        -0.12065         5.80749
     2016.17522        -4.18843         5.74730
     2016.17796        -0.22221         5.93289
     2016.18069        -9.53499         5.86868
     2016.18343        -7.72877         5.98104
     2016.18617        -1.72655         5.87771
     2016.18891         5.98267         5.68811
     2016.19164        -1.09811         5.87771
     2016.19438         5.11511         5.72422
     2016.19712        -1.21067         5.81451
     2016.19986        -3.83845         5.76034
     2016.20260       -10.23924         5.74228
     2016.20533        -6.23302         6.17366
     2016.20807        -9.11280         6.02117
     2016.21081       -10.41058         5.84260
     2016.21355        -1.97536         5.70617
     2016.21629        -7.10314         5.59682
     2016.21902        -5.56192         5.61187
     2016.22176        -1.93670         5.69513
     2016.22450        -7.75648         5.56472
     2016.22724        -9.15326         5.74930
     2016.22997        -6.71104         5.72924
     2016.23271        -2.99183         5.67808
     2016.23545        -9.95461         5.68309
     2016.23819        -6.65939         5.65099
     2016.24093        -3.24117         6.02017
     2016.24366       -14.21195         5.74429
     2016.24640        -9.54373         5.63193
     2016.24914        -8.95251         5.60986
     2016.25188        -6.96029         5.75934
     2016.25462        -5.74307         5.59180
     2016.25735        -6.02685         5.73626
     2016.26009       -12.30164         5.61187
     2016.26283        -8.90942         5.73626
     2016.26557        -8.08520         5.65801
     2016.26830        -7.56798         5.86267
     2016.27104        -9.69876         5.66403
     2016.27378        -7.55454         5.64096
     2016.27652        -4.32032         5.79746
     2016.27926        -6.20710         5.64196
     2016.28199        -7.93588         5.69915
     2016.28473       -10.04866         5.82956
     2016.28747       -15.52444         5.79144
     2016.29021       -13.70523         5.66704
     2016.29295       -10.35401         5.62792
     2016.29568       -21.34579         5.74128
     2016.29842        -9.86657         5.99810
     2016.30116       -10.16035         5.90279
     2016.30390       -12.40513         5.81251
     2016.30663        -8.64191         5.90380
     2016.30937        -7.46669         5.63695
     2016.31211       -10.03347         5.63795
     2016.31485       -10.29125         5.73225
     2016.31759        -3.25703         5.87270
     2016.32032        -9.96182         5.70617
     2016.32306       -13.32160         5.62491
     2016.32580       -18.99638         5.69012
     2016.32854       -10.85016         5.88072
     2016.33128        -8.01294         5.68309
     2016.33401        -5.51472         5.78341
     2016.33675        -8.42350         5.72723
     2016.33949        -6.64328         5.74429
     2016.34223       -11.24506         5.75432
     2016.34496       -10.74184         5.93590
     2016.34770        -8.04162         5.84461
     2016.35044        -5.38741         5.92988
     2016.35318       -13.08919         5.82454
     2016.35592       -12.68197         5.72222
     2016.35865        -9.30675         5.87571
     2016.36139        -7.76553         5.68209
     2016.36413        -0.04131         5.57977
     2016.36687        -2.81109         5.71720
     2016.36961         8.34913         5.70918
     2016.37234         7.40035         5.75733
     2016.37508        -3.66243         5.70215
     2016.37782       -16.50022         5.66102
     2016.38056        -4.90000         5.68911
     2016.38329         5.77822         5.59381
     2016.38603        -5.00156         5.72122
     2016.38877        10.11266         5.81552
     2016.39151        -0.73412         5.61387
     2016.39425        -4.05390         5.64698
     2016.39698         4.09432         5.68510
     2016.39972         1.16554         5.92085
     2016.40246        -3.28624         5.70918
     2016.40520        -8.77002         5.67808
     2016.40794       -10.56181         5.66905
     2016.41067        -7.73759         5.76937
     2016.41341        -4.58037         5.67707
     2016.41615         6.36285         5.82956
     2016.41889        -6.49393         5.63695
     2016.42162         1.24529         5.76235
     2016.42436       -13.55149         5.84461
     2016.42710       -11.49727         5.67106
     2016.42984        -5.32905         5.77840
     2016.43258         1.91417         5.68911
     2016.43531        -0.85761         5.74429
     2016.43805         1.02860         5.69513
     2016.44079        -1.55118         5.67407
     2016.44353        -3.58196         5.66002
     2016.44626        -6.79374         5.66504
     2016.44900        -7.56052         5.77940
     2016.45174         2.70870         5.60986
     2016.45448         2.69592         5.64397
     2016.45722         2.97514         5.62190
     2016.45995         3.59736         5.62190
     2016.46269        -0.29042         5.62992
     2016.46543        -5.80520         5.57977
     2016.46817        -2.45899         5.63695
     2016.47091         2.00923         5.76636
     2016.47364         1.78545         5.71921
     2016.47638         6.27867         5.68711
     2016.47912         3.60489         6.01114
     2016.48186        -1.49389         5.64798
     2016.48459        -5.00367         5.70316
     2016.48733        -3.85245         5.72122
     2016.49007        -4.21823         5.70817
     2016.49281        -4.00201         5.61187
     2016.49555        -1.81180         5.90781
     2016.49828        -7.05458         5.83157
     2016.50102        -9.16836         5.75432
     2016.50376         5.12986         5.82655
     2016.50650         0.18108         5.76034
     2016.50924        -1.21770         5.59080
     2016.51197         0.12452         5.67507
     2016.51471         1.62674         5.72523
     2016.51745         4.20096         5.88875
     2016.52019        -0.89982         5.88373
     2016.52292         1.30640         5.57475
     2016.52566         1.88661         5.84060
     2016.52840         1.98583         5.66504
     2016.53114        -1.85795         5.74930
     2016.53388        -2.01073         5.70918
     2016.53661        -0.88051         5.61387
     2016.53935         2.82871         5.90279
     2016.54209         1.56493         5.73526
     2016.54483         0.87415         5.86467
     2016.54757         4.59537         5.73727
     2016.55030         3.19759         5.68911
     2016.55304         5.69981         5.66704
     2016.55578         3.10802         5.87470
     2016.55852        -1.42576         5.92687
     2016.56125         9.95646         5.75131
     2016.56399        -1.31932         5.78843
     2016.56673         0.66990         5.82354
     2016.56947         2.84512         6.01214
     2016.57221        -5.21366         5.84060
     2016.57494        13.43156         6.27799
     2016.57768         0.55778         5.74228
     2016.58042         2.13100         5.58478
     2016.58316        -2.84978         5.66403
     2016.58590         7.55143         5.70416
     2016.58863         3.57565         5.88574
     2016.59137        -0.18413         5.73626
     2016.59411        10.34309         5.67607
     2016.59685        15.53431         5.87571
     2016.59958         6.80453         5.78040
     2016.60232         9.20775         5.84160
     2016.60506         4.59697         5.75833
     2016.60780         5.10319         5.58980
     2016.61054         2.10741         5.72222
     2016.61327        -2.08538         5.75633
     2016.61601         1.46084         5.74730
     2016.61875        -9.37294         5.69212
     2016.62149         2.30228         5.62892
     2016.62423        -2.44750         5.91584
     2016.62696         2.62172         5.69614
     2016.62970        -2.27406         5.84461
     2016.63244        -5.14884         5.92687
     2016.63518         5.74138         5.69915
     2016.63791        22.71760         5.75833
     2016.64065         7.88382         5.85865
     2016.64339         4.62603         5.62792
     2016.64613         3.00925         5.81351
     2016.64887         1.85347         5.65500
     2016.65160         4.29669         5.79946
     2016.65434         0.78091         6.20175
     2016.65708        -1.95287         5.68209
     2016.65982         3.31035         5.75332
     2016.66256         4.45157         5.84762
     2016.66529         4.01179         5.70516
     2016.66803         8.34501         5.64899
     2016.67077         1.88223         5.66403
     2016.67351         6.40344         5.72723
     2016.67624         2.64766         5.81351
     2016.67898         9.29188         5.65801
     2016.68172        13.74610         5.59080
     2016.68446        15.11232         5.91383
     2016.68720         5.58054         6.01716
     2016.68993         8.23776         5.69112
     2016.69267        12.48098         5.93389
     2016.69541         6.79620         5.67005
     2016.69815         3.33642         5.72322
     2016.70089         4.53064         5.64899
     2016.70362         4.46985         5.86267
     2016.70636         2.70407         6.30608
     2016.70910         5.58129         5.91684
     2016.71184        13.43051         5.64899
     2016.71457        21.48973         5.68711
     2016.71731        15.63695         5.54766
     2016.72005         8.36717         5.56672
     2016.72279         6.01239         5.57977
     2016.72553         7.59261         5.71319
     2016.72826        -0.98317         5.95998
     2016.73100        13.14604         5.51656
     2016.73374        11.12426         5.79445
     2016.73648        15.76948         5.77438
     2016.73921        10.02270         5.64196
     2016.74195        -0.57508         5.78141
     2016.74469         0.85814         5.60585
     2016.74743         1.87136         5.53964
     2016.75017         9.55058         5.57274
     2016.75290         8.47680         5.50854
     2016.75564        11.33902         5.56672
     2016.75838         7.63224         5.68510
     2016.76112         9.92345         5.57274
     2016.76386         5.42067         5.58177
     2016.76659         9.42489         5.54666
     2016.76933        13.77011         5.55970
     2016.77207         9.32133         5.55268
     2016.77481         6.86955         5.56672
     2016.77754         8.06677         5.52158
     2016.78028         6.95099         5.66905
     2016.78302        10.11121         5.68008
     2016.78576        12.47543         5.57174
     2016.78850        14.96965         5.62591
     2016.79123        12.51686         5.54666
     2016.79397        13.85008         5.55368
     2016.79671        10.59330         5.61287
     2016.79945         6.27452         5.61789
     2016.80219         3.63274         5.60585
     2016.80492        -1.09804         5.64297
     2016.80766         4.88418         5.61086
     2016.81040         4.82940         5.54766
     2016.81314         3.30162         5.67808
     2016.81587        -0.87216         5.62892
     2016.81861         3.68606         5.53863
     2016.82135         9.43327         5.58077
     2016.82409         5.68949         5.69012
     2016.82683         0.53471         5.54365
     2016.82956         8.51593         5.54164
     2016.83230         3.19215         5.54064
     2016.83504        10.33537         5.55368
     2016.83778        11.52959         5.63293
     2016.84052        -4.52919         5.62290
     2016.84325        -4.45397         5.69814
     2016.84599         1.38025         5.62090
     2016.84873         3.93747         5.56873
     2016.85147         5.42568         5.57174
     2016.85420         2.30890         5.55970
     2016.85694         5.69712         5.58478
     2016.85968         4.48734         5.82254
     2016.86242         2.32956         5.55168
     2016.86516        11.25278         5.55067
     2016.86789         5.49700         5.62992
     2016.87063         5.16122         5.53663
     2016.87337         8.22744         5.54465
     2016.87611        10.16666         5.53462
     2016.87885         4.69687         5.58378
     2016.88158        -0.29291         5.74630
     2016.88432         7.20031         5.66805
     2016.88706         8.38553         5.65199
     2016.88980         9.28175         5.65400
     2016.89253         6.81097         5.62090
     2016.89527         8.51819         5.63795
     2016.89801         7.32741         5.72322
     2016.90075         3.29863         5.63093
     2016.90349         8.46685         5.73225
     2016.90622         8.15007         5.70918
     2016.90896        -7.11972         5.64397
     2016.91170         4.03550         5.63494
     2016.91444         6.26072         5.61889
     2016.91718         4.63894         5.75332
     2016.91991        -3.71984         5.71520
     2016.92265         1.99438         5.60284
     2016.92539         2.55860         5.54365
     2016.92813        -2.44018         5.61187
     2016.93086        -0.96996         5.67808
     2016.93360         1.40626         5.71118
     2016.93634         0.53348         5.59983
     2016.93908         1.78069         5.75733
     2016.94182         7.44191         5.76937
     2016.94455         4.39913         5.69513
     2016.94729         2.78435         5.59080
     2016.95003         2.32557         5.54867
     2016.95277         1.28979         5.57676
     2016.95551        -0.85299         5.55769
     2016.95824         6.00923         5.62491
     2016.96098        10.69645         5.62992
     2016.96372        -0.46633         5.55669
     2016.96646         2.08189         5.61989
     2016.96919         2.27910         5.57676
     2016.97193        -1.88568         5.57676
     2016.97467        12.57754         5.59983
     2016.97741        10.14276         5.64297
     2016.98015         6.78298         5.55268
     2016.98288         1.61920         5.60284
     2016.98562         6.36142         5.60685
     2016.98836         5.93864         5.59281
     2016.99110        -3.29114         5.68711
     2016.99384        -2.05292         5.61688
     2016.99657         2.54029         5.64798
     2016.99931         0.34751         5.56472
     2017.00205        -8.77627         5.58779
     2017.00479       -12.18505         5.59782
     2017.00752       -12.45183         5.85765
     2017.01026        -1.81561         5.58478
     2017.01300         1.20461         5.58478
     2017.01574         1.95383         5.63093
     2017.01848         0.44005         5.59481
     2017.02121        -2.47473         5.70817
     2017.02395         1.72049         5.60184
     2017.02669        -3.77530         5.62692
     2017.02943         5.05392         5.74429
     2017.03216         1.54214         5.54265
     2017.03490        -4.09064         5.56572
     2017.03764        -5.18142         5.64698
     2017.04038        -4.69220         5.67507
     2017.04312         3.71002         5.62391
     2017.04585         3.49524         5.82755
     2017.04859        12.42146         5.83859
     2017.05133        10.88468         5.62591
     2017.05407        10.23190         5.59582
     2017.05681        10.43611         5.83658
     2017.05954        -4.61367         5.78040
     2017.06228         1.19455         5.54867
     2017.06502        -0.36223         5.58779
     2017.06776        -1.03901         5.69714
     2017.07049        -5.34779         5.61086
     2017.07323         3.36243         5.58378
     2017.07597        -0.84635         5.61588
     2017.07871       -22.71713         5.57575
     2017.08145        -5.06991         5.58980
     2017.08418        -7.59569         5.75131
     2017.08692       -13.03948         5.59281
     2017.08966       -12.53326         5.57977
     2017.09240        -8.83704         5.60284
     2017.09514         2.56718         5.55870
     2017.09787        -2.06860         5.63193
     2017.10061         1.38962         5.59883
     2017.10335        -6.00216         5.59481
     2017.10609        -6.09594         5.69012
     2017.10882         5.67628         5.55870
     2017.11156        -9.49950         5.56472
     2017.11430        -4.82829         5.54064
     2017.11704        -4.59807         5.61989
     2017.11978        -6.68185         5.64497
     2017.12251        -4.54963         5.69313
     2017.12525        -4.26341         5.64798
     2017.12799         5.18081         5.86367
     2017.13073         1.85803         5.59381
     2017.13347         2.47025         5.59682
     2017.13620         1.56547         5.65500
     2017.13894        -1.34431         5.69212
     2017.14168        -4.81109         5.60986
     2017.14442        -3.62888         5.59381
     2017.14715        -5.18166         5.69313
     2017.14989        -0.01944         5.81953
     2017.15263        -0.52622         5.69814
     2017.15537         9.25100         5.73526
     2017.15811         2.89122         5.72623
     2017.16084         2.45444         5.66102
     2017.16358        -4.98134         5.58578
     2017.16632         3.87388         5.65601
     2017.16906        -1.65890         5.68811
     2017.17180         0.28832         5.61989
     2017.17453        -0.01147         5.59481
     2017.17727        -0.00025         5.68410
     2017.18001        -1.06303         5.58378
     2017.18275        -1.15281         5.64297
     2017.18548        -5.10859         5.59481
     2017.18822        -6.88537         5.55368
     2017.19096        -2.19815         5.55870
     2017.19370        -5.33993         5.59983
     2017.19644        -3.49471         5.69915
     2017.19917        -1.69249         5.66805
     2017.20191        -2.38527         5.67106
     2017.20465        -5.74106         5.74028
     2017.20739        -5.55784         5.54566
     2017.21013        -7.43462         5.56472
     2017.21286       -11.14940         5.67407
     2017.21560        -6.29618         5.76937
     2017.21834        -2.40396         5.73626
     2017.22108         5.03926         5.55469
     2017.22381        -3.11052         5.68911
     2017.22655        -2.02630         5.83257
     2017.22929        -8.76708         5.66203
     2017.23203        -8.30987         5.65701
     2017.23477        -4.89365         5.82354
     2017.23750        -7.35843         5.58077
     2017.24024        -6.77521         5.66303
     2017.24298       -12.55599         5.80247
     2017.24572        -9.77777         5.75432
     2017.24846       -14.59155         5.75432
     2017.25119       -15.48933         5.71620
     2017.25393       -12.97111         5.55870
     2017.25667       -12.89689         5.71319
     2017.25941       -22.10067         5.84160
     2017.26214        -8.20946         5.68309
     2017.26488        -1.15124         5.61588
     2017.26762        -4.15902         5.72322
     2017.27036        -9.07280         5.54465
     2017.27310       -13.19558         5.69814
     2017.27583       -15.21636         5.63695
     2017.27857       -14.90714         5.61889
     2017.28131       -11.35592         5.69814
     2017.28405       -16.29170         5.65701
     2017.28679       -15.12148         5.72122
     2017.28952       -15.01526         5.73024
     2017.29226       -13.56805         5.65500
     2017.29500       -12.51083         5.75432
     2017.29774       -13.89861         5.69112
     2017.30047       -13.92139         5.73125
     2017.30321       -13.01417         5.65801
     2017.30595        -9.16695         5.66203
     2017.30869       -13.30673         5.67707
     2017.31143       -11.49551         5.93690
     2017.31416       -10.62429         5.89978
     2017.31690        -6.63907         5.71219
     2017.31964       -13.47285         5.80548
     2017.32238       -18.45864         5.74329
     2017.32512       -16.12042         5.62190
     2017.32785       -11.19220         5.62391
     2017.33059       -16.72198         5.69614
     2017.33333       -12.86076         5.63494
     2017.33607        -7.59254         5.68911
     2017.33880       -15.83132         5.63093
     2017.34154        -5.10510         5.78843
     2017.34428       -15.34788         5.58779
     2017.34702       -11.63266         5.64297
     2017.34976       -11.18145         5.56773
     2017.35249       -15.50523         5.72523
     2017.35523       -16.34301         5.62792
     2017.35797        -9.17979         5.98104
     2017.36071       -12.31957         5.63093
     2017.36344        -7.32535         5.63093
     2017.36618       -10.42413         5.65500
     2017.36892        -6.22891         5.70918
     2017.37166        -0.72769         5.77438
     2017.37440       -12.90247         5.64899
     2017.37713        -8.46325         5.70516
     2017.37987       -15.85704         5.72523
     2017.38261       -12.19582         5.72222
     2017.38535       -11.54560         5.73626
     2017.38809       -12.79938         5.73024
     2017.39082        -4.76016         5.75532
     2017.39356        -6.73794         5.67206
     2017.39630        -2.08372         5.67407
     2017.39904        -8.46650         5.83257
     2017.40177        -7.74828         5.65701
     2017.40451        -5.64406         5.95396
     2017.40725        -3.65184         5.75633
     2017.40999        -3.26963         5.83157
     2017.41273        -5.56141         5.64598
     2017.41546        -7.27519         5.62290
     2017.41820        -6.91397         5.83458
     2017.42094        -1.38975         5.65601
     2017.42368       -13.37653         5.61688
     2017.42642        -7.81131         5.64397
     2017.42915        -6.99809         5.68309
     2017.43189        -0.62287         5.67908
     2017.43463        -4.15465         5.64999
     2017.43737        -6.99943         5.70817
     2017.44010        -2.67222         5.66704
     2017.44284         0.79000         5.61889
     2017.44558         1.76822         5.80348
     2017.44832        -5.49556         5.69513
     2017.45106        -1.79534         5.79044
     2017.45379         5.53688         5.74329
     2017.45653        -6.99090         5.77840
     2017.45927       -10.51368         5.71319
     2017.46201        -0.34146         5.60284
     2017.46475        -3.00624         5.60785
     2017.46748        -1.42103         5.90781
     2017.47022        -4.09381         5.71821
     2017.47296        -6.32959         5.74930
     2017.47570       -11.82337         5.75131
     2017.47843        -8.58715         5.66604
     2017.48117        -5.46893         5.81451
     2017.48391       -18.61471         5.73325
     2017.48665         1.61651         5.80749
     2017.48939        -2.38527         5.81752
     2017.49212         1.83395         5.78743
     2017.49486        -4.41983         5.75833
     2017.49760         1.46738         5.96800
     2017.50034         1.99460         5.75934
     2017.50308        -9.51518         5.76536
     2017.50581        -5.07596         5.74830
     2017.50855        -3.63974         5.71520
     2017.51129        -4.20652         5.91784
     2017.51403         0.95170         5.70918
     2017.51676       -13.09008         5.83859
     2017.51950         2.30114         5.92988
     2017.52224         0.90636         5.96198
     2017.52498        -4.50242         5.98506
     2017.52772         4.46779         6.23987
     2017.53045        -2.80099         5.99910
     2017.53319        -0.46677         6.19874
     2017.53593        10.35945         6.05729
     2017.53867        -2.53433         6.02819
     2017.54141         6.78989         5.90982
     2017.54414         1.87911         6.06330
     2017.54688        -2.71167         6.20576
     2017.54962        -1.52645         5.97101
     2017.55236         4.49177         6.00813
     2017.55509         2.40399         6.08537
     2017.55783        -9.96280         5.89778
     2017.56057        -9.60258         5.94192
     2017.56331       -12.59936         6.36226
     2017.56605         5.07686         6.16463
     2017.56878        -9.19892         6.27598
     2017.57152        -1.35670         6.14256
     2017.57426        -1.79148         5.95998
     2017.57700       -21.95426         6.05628
     2017.57974        -5.60704         5.78743
     2017.58247        -2.48882         6.16663
     2017.58521       -11.41261         6.13453
     2017.58795        -9.15539         5.92888
     2017.59069        -1.36217         5.99308
     2017.59342        -3.45395         5.76636
     2017.59616       -12.47873         5.73024
     2017.59890        -0.49351         6.03221
     2017.60164        -4.73829         5.80849
     2017.60438        -6.85007         5.85865
     2017.60711        -3.64485         5.86367
     2017.60985         2.93937         6.05026
     2017.61259         1.07059         6.06631
     2017.61533         0.37780         6.02619
     2017.61807         1.76402         5.96198
     2017.62080         8.36724         5.89878
     2017.62354        -3.71754         5.87671
     2017.62628         6.35168         6.00111
     2017.62902         1.95190         6.03822
     2017.63175        -0.04688         5.87470
     2017.63449         1.30634         5.86467
     2017.63723         7.59556         5.74730
     2017.63997         4.52278         5.89076
     2017.64271         5.77600         5.91483
     2017.64544         3.62621         5.73927
     2017.64818         4.46443         5.88474
     2017.65092         3.91065         5.72723
     2017.65366         2.59687         5.65801
     2017.65639        -5.12191         5.77940
     2017.65913        -5.86069         5.77138
     2017.66187         1.27053         5.87771
     2017.66461        -0.80425         5.85765
     2017.66735         4.33097         5.76837
     2017.67008         7.18619         5.82254
     2017.67282         0.24841         6.09340
     2017.67556         1.87362         5.69112
     2017.67830        -3.49016         5.73225
     2017.68104         2.85406         5.71921
     2017.68377        17.80428         5.99910
     2017.68652         7.29447         6.22081
     2017.68925        10.95672         5.88373
     2017.69199         6.82994         5.85966
     2017.69472        11.70316         5.82555
     2017.69746        -1.47162         5.75733
     2017.70020         6.22860         5.69513
     2017.70294         8.15281         5.91684
     2017.70568        -0.83197         5.70717
     2017.70841         9.43525         5.73526
     2017.71115        10.13547         5.79946
     2017.71389        10.01169         5.72723
     2017.71663         6.09391         5.74128
     2017.71937        13.58613         5.74830
     2017.72210        11.83535         5.66002
     2017.72484         3.29257         5.76235
     2017.72758        12.17379         5.75833
     2017.73032         6.43201         5.68711
     2017.73305        10.49822         5.75131
     2017.73579        10.12344         5.76937
     2017.73853         6.11866         5.69614
     2017.74127        -4.45512         5.77238
     2017.74401         1.94110         5.96700
     2017.74674         3.36132         5.85966
     2017.74948         3.91754         5.70516
     2017.75222         4.11276         5.74930
     2017.75496        -0.32802         5.72723
     2017.75770        -2.99880         6.02619
     2017.76043         0.76542         5.91283
     2017.76317        10.77563         5.83859
     2017.76591         9.25285         5.66203
     2017.76865        10.95807         5.65902
     2017.77138         3.03929         5.66403
     2017.77412         5.51351         5.66704
     2017.77686         4.25573         5.81652
     2017.77960         3.55095         5.62090
     2017.78234         4.89917         5.64698
     2017.78507         3.38839         5.90781
     2017.78781        10.16561         5.87270
     2017.79055         7.31383         5.65099
     2017.79329         9.27204         5.85564
     2017.79603        10.53626         5.61989
     2017.79876        16.82648         5.90480
     2017.80150         6.40970         5.81251
     2017.80424        14.97292         5.65400
     2017.80698        10.55614         5.66905
     2017.80971         9.61336         5.73526
     2017.81245         4.13158         5.76335
     2017.81519         0.42380         5.95897
     2017.81793        -4.79898         5.83157
     2017.82067        -4.73377         5.85464
     2017.82340        -3.13855         5.79445
     2017.82614         0.19267         5.68008
     2017.82888         3.99589         5.67507
     2017.83162         6.36011         5.88674
     2017.83436         4.69733         5.65801
     2017.83709        13.12455         5.81050
     2017.83983         0.55977         5.74429
     2017.84257         4.36799         5.64397
     2017.84531         3.23521         5.65099
     2017.84804        -0.04357         5.69814
     2017.85078         5.77064         5.69413
     2017.85352         9.37986         5.66704
     2017.85626         9.38208         5.82053
     2017.85900         8.92030         5.94593
     2017.86173        15.41252         5.69814
     2017.86447         5.53074         5.61889
     2017.86721        12.15596         5.61789
     2017.86995        10.61718         5.75934
     2017.87269        10.32340         5.73827
     2017.87542        10.18462         5.60886
     2017.87816         5.40484         5.63996
     2017.88090        11.08605         5.59180
     2017.88364        -5.71873         5.64096
     2017.88637        12.55849         5.68911
     2017.88911        13.81571         5.66504
     2017.89185         0.13893         5.74930
     2017.89459        14.39315         5.66403
     2017.89733        13.26937         5.61287
     2017.90280         7.59281         5.73827
     2017.90554        12.86503         5.69614
     2017.90828        13.33325         5.67908
     2017.91102        13.87146         5.73426
     2017.91375         4.50868         5.86066
     2017.91649         3.37990         5.63795
     2017.91923         8.20212         5.79645
     2017.92197         4.59834         5.63293
     2017.92470        -3.25244         5.65400
     2017.92744        -5.82222         5.62591
     2017.93018        -1.85600         5.84862
     2017.93292        -1.57978         5.66805
     2017.93566        -1.06056         5.82655
     2017.93839         5.07966         5.73325
     2017.94113        -2.67613         5.69313
     2017.94387         0.12209         5.72422
     2017.94661        -2.54169         5.78542
     2017.94935         0.81153         5.88373
     2017.95208        -4.45025         5.89577
     2017.95482        -7.80003         5.75031
     2017.95756        -3.53281         5.62190
     2017.96030        -0.97959         5.66002
     2017.96303        -1.70037         5.69112
     2017.96577         5.23285         5.74329
     2017.96851         8.41106         5.78341
     2017.97125         0.53428         5.66805
     2017.97399        -5.05250         5.62992
     2017.97672         1.84672         5.62892
     2017.97946         0.04394         5.62290
     2017.98220         0.76416         5.58980
     2017.98494        -0.32662         5.60886
     2017.98767        -5.65240         5.63795
     2017.99041        -2.81718         5.62090
     2017.99315        -0.06596         5.64698
     2017.99589        -0.24274         5.63293
     2017.99863        -1.17853         5.84962
     2018.00136        -6.56731         5.70015
     2018.00410        -8.06309         5.68510
     2018.00684        -3.95187         5.70115
     2018.00958         4.55535         5.78341
     2018.01232        -0.78043         5.63394
     2018.01505        -1.49821         5.62491
     2018.01779         2.80701         5.60585
     2018.02053         1.07023         5.65400
     2018.02327         3.93745         5.61187
     2018.02600         0.31167         5.68811
     2018.02874         0.09288         5.68008
     2018.03148        -5.59490         5.70416
     2018.03422        -9.75668         5.63494
     2018.03696       -12.45946         5.80047
     2018.03969        -5.05424         5.64096
     2018.04243        -5.57102         5.63494
     2018.04517        -2.42480         5.60585
     2018.04791         1.34442         5.76937
     2018.05065         1.62164         5.73626
     2018.05338         3.03886         5.62290
     2018.05612        -8.16592         5.61488
     2018.05886        -4.52471         5.62692
     2018.06160        -1.45649         5.55168
     2018.06433        -4.80127         5.71720
     2018.06707         3.15095         5.72422
     2018.06981        -2.14383         5.71018
     2018.07255        -5.26761         5.76837
     2018.07529        -8.53439         5.64598
     2018.07802       -13.06317         5.71118
     2018.08076       -17.32195         5.68410
     2018.08350        -2.26873         5.75031
     2018.08624        -5.73152         5.77539
     2018.08898        -5.38830         5.79946
     2018.09171       -10.85008         5.68410
     2018.09445        -6.44986         5.74429
     2018.09719        -5.32664         5.91283
     2018.09993        -6.10542         5.77739
     2018.10266       -14.46820         5.75633
     2018.10540       -11.71298         5.90982
     2018.10814        -8.55776         5.93791
     2018.11088       -10.94954         5.80147
     2018.11362        -8.93432         5.77037
     2018.11635       -11.67011         5.74329
     2018.11909        -7.18089         5.88875
     2018.12183        -3.54767         5.79144
     2018.12457        -5.01945         5.73626
     2018.12731       -15.28223         5.77338
     2018.13004        -1.07201         5.85966
     2018.13278         1.86121         5.67306
     2018.13552        -1.98457         5.64297
     2018.13826        -7.04935         5.80749
     2018.14099        -5.16213         5.74128
     2018.14373       -11.76691         5.79645
     2018.14647        -3.27870         6.06130
     2018.14921        -9.20448         5.73325
     2018.15195        -2.24126         5.67206
     2018.15468        -4.21304         5.77238
     2018.15742        -1.87682         5.75532
     2018.16016        -0.88060         5.74529
     2018.16290        -4.72338         5.74028
     2018.16564        -7.65016         5.84260
     2018.16837       -11.77294         5.89076
     2018.17111        -3.89372         5.84160
     2018.17385       -10.43450         5.80950
     2018.17659        -9.36229         5.82755
     2018.17932        -6.10607         5.64698
     2018.18206         0.43215         5.69012
     2018.18480        -6.81563         5.77338
     2018.18754        -6.34441         5.74128
     2018.19028        -9.75419         5.75532
     2018.19301        -7.27797         5.66805
     2018.19575         1.46125         5.88373
     2018.19849        -0.72653         5.66704
     2018.20123        -2.39331         5.83859
     2018.20397        -1.58210         5.72222
     2018.20670        -3.48388         5.66805
     2018.20944        -6.48166         5.65400
     2018.21218        -4.84744         5.72623
     2018.21492       -19.70422         5.90279
     2018.21765        -4.02200         5.99509
     2018.22039       -10.82678         5.63494
     2018.22313        -3.70956         5.57174
     2018.22587       -10.66334         5.76335
     2018.22861       -14.39112         5.64196
     2018.23134       -11.35890         5.60083
     2018.23408       -17.53269         5.76736
     2018.23682       -19.63747         5.70115
     2018.23956        -9.34125         5.57977
     2018.24230       -12.26703         5.72422
     2018.24503        -9.82481         5.83859
     2018.24777       -11.33959         5.63394
     2018.25051        -9.84637         5.77138
     2018.25325       -12.00715         5.66303
     2018.25598        -8.20693         5.73024
     2018.25872        -7.10471         5.75733
     2018.26146        -8.17449         5.80849
     2018.26420       -11.45928         5.68109
     2018.26694       -11.36806         5.66102
     2018.26967        -8.61584         5.54766
     2018.27241       -12.16862         5.63093
     2018.27515        -5.07040         5.57274
     2018.27789        -1.11318         5.76435
     2018.28062        -5.89396         5.81752
     2018.28336        -9.67574         5.53362
     2018.28610       -10.19052         5.50653
     2018.28884       -10.84630         5.57274
     2018.29158        -7.84708         5.75733
     2018.29431       -13.21887         5.69313
     2018.29705       -14.01865         5.70015
     2018.29979       -11.76743         5.56171
     2018.30253       -10.21821         5.62892
     2018.30527       -11.61499         5.56973
     2018.30800       -11.74677         5.66504
     2018.31074       -13.44055         5.60585
     2018.31348       -13.90233         5.66203
     2018.31622       -12.84911         5.56371
     2018.31895        -9.72289         5.73426
     2018.32169        -4.44168         5.73827
     2018.32443        -8.49046         5.60986
     2018.32717       -12.58524         5.63193
     2018.32991        -8.63902         5.72523
     2018.33264        -9.30980         5.61187
     2018.33538       -13.83158         5.86367
     2018.33812        -6.26136         5.99810
     2018.34086        -9.46014         5.57575
     2018.34360       -11.15392         5.62491
     2018.34633        -6.73470         5.54766
     2018.34907        -8.53248         5.61588
     2018.35181        -2.94427         5.59180
     2018.35455        -0.34605         5.58378
     2018.35728        -6.10083         5.57876
     2018.36002        -6.89561         5.65902
     2018.36276        -5.20939         5.76837
     2018.36550        -5.64117         5.55970
     2018.36824       -12.10495         5.62591
     2018.37097       -11.79973         5.65500
     2018.37371        -3.79451         5.73325
     2018.37645       -11.45329         5.67707
     2018.37919         1.88993         5.63594
     2018.38193        -0.79186         5.54265
     2018.38466         0.87836         5.56672
     2018.38740         1.61658         5.65701
     2018.39014        -2.72520         5.63494
     2018.39288        -4.90698         5.71821
     2018.39561        -7.85476         5.67306
     2018.39835        -1.62654         5.56572
     2018.40109         2.23868         5.58478
     2018.40383         1.82290         5.65902
     2018.40657        -5.45188         5.66805
     2018.40930         7.58534         5.78642
     2018.41204         2.08955         5.59883
     2018.41478        -7.42123         5.56773
     2018.41752        -5.00001         5.58478
     2018.42026        -2.60379         5.57475
     2018.42299        -2.56857         5.55469
     2018.42573         5.77465         5.55569
     2018.42847         3.20887         5.70015
     2018.43121         1.42209         5.58378
     2018.43394        -2.93469         5.57977
     2018.43668         3.66353         5.61889
     2018.43942        -6.00926         5.76435
     2018.44216        -0.87404         5.65801
     2018.44490        -3.67382         5.66704
     2018.44763        -2.55560         5.62391
     2018.45037        -8.54738         5.63996
     2018.45311        -4.50216         5.62992
     2018.45585        -8.72194         5.62391
     2018.45859        -1.99272         5.64899
     2018.46132        -9.84550         5.73426
     2018.46406        -0.50428         5.69614
     2018.46680         4.44594         5.78843
     2018.46954         6.31515         5.75934
     2018.47227         6.98337         5.93490
     2018.47501         1.81059         5.67607
     2018.47775        -2.65019         5.76636
     2018.48049         1.46803         5.66102
     2018.48323       -18.01175         5.68811
     2018.48596        -1.21453         5.82354
     2018.48870        -1.52731         5.65199
     2018.49144         3.75391         5.53663
     2018.49418         4.80613         5.79244
     2018.49692         1.78635         5.69012
     2018.49965         2.16956         5.67707
     2018.50239        -2.07822         5.60886
     2018.50513        -7.77700         5.81552
     2018.50787         0.87022         5.73927
     2018.51060         8.39144         5.79645
     2018.51334         3.73166         5.82755
     2018.51608        -4.44012         5.61989
     2018.51882        -4.83390         5.75733
     2018.52156        -7.16368         5.75231
     2018.52429         4.12254         5.72623
     2018.52703         1.72576         5.75031
     2018.52977        -2.05503         5.83257
     2018.53251        -3.42581         5.76736
     2018.53525         6.34841         5.94091
     2018.53798         1.27763         6.03421
     2018.54072         7.33585         5.99107
     2018.54346       -10.95693         6.01014
     2018.54620        -2.84171         5.88373
     2018.54893         4.11351         5.73626
     2018.55167         4.91073         5.54566
     2018.55441        -2.55105         5.64899
     2018.55715        -4.10984         5.68309
     2018.55989        -6.15662         5.83658
     2018.56262        -2.37240         5.66203
     2018.56536        -4.15918         5.70918
     2018.56810        -0.05696         5.71018
     2018.57084        -1.43374         5.73325
     2018.57357         1.29848         5.75934
     2018.57631        -0.14430         5.99007
     2018.57905         5.76292         5.87470
     2018.58179         5.68314         5.89176
     2018.58453        12.11636         5.82655
     2018.58726        14.68157         5.74228
     2018.59000         8.22079         5.58277
     2018.59274         1.36601         5.61789
     2018.59548         5.52423         5.76435
     2018.59822        13.59845         5.74630
     2018.60095         4.66367         5.67507
     2018.60369        -0.91411         5.67106
     2018.60643         3.92411         5.73225
     2018.60917         6.26533         5.61989
     2018.61190         6.16455         5.66002
     2018.61464         8.00977         5.76536
     2018.61738         4.41998         5.74228
     2018.62012        14.51020         5.72523
     2018.62286        -5.74458         6.17667
     2018.62559         2.44764         6.13052
     2018.62833        11.54686         5.76134
     2018.63107         6.23908         5.58378
     2018.63381        11.16330         5.71921
     2018.63655         6.56452         5.54265
     2018.63928         7.80774         6.01716
     2018.64202         1.74396         6.09340
     2018.64476         7.54618         5.62190
     2018.64750         9.41939         5.60886
     2018.65023        14.23161         6.61305
     2018.65297         9.37583         5.72623
     2018.65571         5.13205         5.70316
     2018.65845         9.48227         5.76134
     2018.66119         9.89049         5.62591
     2018.66392         5.85471         5.89978
     2018.66666         3.32093         5.73426
     2018.66940         2.73715         5.56472
     2018.67214         4.58237         5.63193
     2018.67489         0.59351         5.94894
     2018.67761         4.85480         5.72623
     2018.68035         0.47402         5.68209
     2018.68309        -1.03376         5.94693
     2018.68583         5.15046         5.60886
     2018.68856        14.86968         5.64297
     2018.69130        10.80990         5.70617
     2018.69404         9.63412         5.73626
     2018.69678         4.55534         5.93991
     2018.69952         7.81056         5.64899
     2018.70225         1.75578         5.83658
     2018.70499         3.29999         5.60083
     2018.70773         1.64721         5.65801
     2018.71047         1.54343         5.84060
     2018.71321        -0.41435         5.61488
     2018.71594         4.53987         5.68209
     2018.71868        -2.24291         5.69513
     2018.72142         2.79131         5.58578
     2018.72416         7.02853         5.61488
     2018.72689         4.58575         5.81150
     2018.72963         8.14897         5.64297
     2018.73237        -4.54881         5.90179
     2018.73511         7.64940         5.70918
     2018.73785         7.66562         5.63394
     2018.74058        -2.02616         5.77739
     2018.74332         7.61106         5.66303
     2018.74606         3.23228         5.73827
     2018.74880         9.45350         5.64497
     2018.75154         7.25272         5.60785
     2018.75427         7.57194         5.74028
     2018.75701         7.76116         5.75633
     2018.75975         6.31038         5.62992
     2018.76249         6.80760         5.73727
     2018.76522         8.29281         5.78141
     2018.76796         8.84903         5.54867
     2018.77070         7.46025         5.62992
     2018.77344         3.27547         5.66002
     2018.77618         4.36869         5.82454
     2018.77891         3.06591         5.74630
     2018.78165        -3.03687         5.72824
     2018.78439         4.94135         5.71118
     2018.78713         2.13357         5.52359
     2018.78987        -3.24021         5.88273
     2018.79260        -6.56200         5.73426
     2018.79534        17.48122         5.72824
     2018.79808        -0.34256         5.57676
     2018.80082         3.72066         5.61889
     2018.80355         4.64088         5.57876
     2018.80629         9.75410         5.76435
     2018.80903         3.38132         5.72222
     2018.81177        11.44654         6.02017
     2018.81451        12.90276         5.60886
     2018.81724        11.93198         5.69413
     2018.81998        13.03820         5.57174
     2018.82272        11.87541         5.71821
     2018.82546         8.52863         5.65300
     2018.82820         6.29085         5.57475
     2018.83093        14.51807         5.58980
     2018.83367         9.54629         5.51054
     2018.83641        20.82351         5.55469
     2018.83915        17.13673         5.54766
     2018.84188        13.27795         5.59883
     2018.84462        12.97517         5.56271
     2018.84736         8.81139         5.69112
     2018.85010         4.82061         5.57876
     2018.85284         6.07482         5.63093
     2018.85557         0.10504         5.60785
     2018.85831         4.41026         5.63996
     2018.86105        -2.66352         5.61789
     2018.86379        -0.71130         5.69413
     2018.86653         5.89692         5.69915
     2018.86926         1.60714         5.54566
     2018.87200        10.79636         5.59381
     2018.87474         8.22358         5.63695
     2018.87748         1.95080         5.74429
     2018.88021         5.53002         5.75532
     2018.88295         7.56523         5.76235
     2018.88569         8.70145         5.81050
     2018.88843        10.94367         5.77037
     2018.89117         6.40289         5.68811
     2018.89390         9.10111         5.64899
     2018.89664         3.27933         5.82555
     2018.89938         7.53355         5.71821
     2018.90212         8.22077         5.65801
     2018.90485        15.24099         5.78843
     2018.90759         9.62121         5.67106
     2018.91033         8.54942         5.77338
     2018.91307        10.03964         5.73927
     2018.91581        11.22486         5.65400
     2018.91854        12.18908         5.57575
     2018.92128         5.36130         5.78642
     2018.92402         8.43052         5.66303
     2018.92676         8.49374         5.79645
     2018.92950        13.39896         5.78943
     2018.93223         8.11018         5.77840
     2018.93497         7.72240         5.70918
     2018.93771         7.59562         5.74529
     2018.94045        13.31583         5.57475
     2018.94318        13.39105         5.58578
     2018.94592        16.61227         5.55168
     2018.94866        11.77049         5.59481
     2018.95140        -0.58029         5.71118
     2018.95414        15.27093         5.62290
     2018.95687         9.71815         5.55368
     2018.95961        12.74837         5.62591
     2018.96235        14.64859         5.73225
     2018.96509         6.17481         5.61488
     2018.96783        -4.95097         5.65902
     2018.97056         7.07624         5.70617
     2018.97330         4.32246         5.78241
     2018.97604         6.70268         5.73125
     2018.97878         6.93490         5.74028
     2018.98151        -6.80188         5.61387
     2018.98425         8.44434         5.85364
     2018.98699         2.63856         5.73927
     2018.98973         2.92378         5.64598
     2018.99247         8.39700         5.65601
     2018.99520         3.67822         5.67106
     2019.00068       -16.09935         5.69313
     2019.00342         1.31487         5.67908
     2019.00616        -6.81591         5.67106
     2019.01163         4.37453         5.74329
     2019.01437         7.28175         5.67507
     2019.01711         3.60497         5.64497
     2019.01984        -3.13581         5.60986
     2019.02258         4.88941         5.63394
     2019.02532         0.95363         5.78843
     2019.02806         1.90684         5.86367
     2019.03080        -4.81494         5.69313
     2019.03353        -9.40672         5.73325
     2019.03627       -12.58050         5.63293
     2019.03901         0.07872         5.57375
     2019.04175        -1.71906         5.56572
     2019.04449         0.60616         5.56572
     2019.04722        -1.37262         5.65801
     2019.04996        -3.68840         5.68510
     2019.05270        -3.87218         5.86568
     2019.05544        -0.89096         5.82555
     2019.05817         1.24725         6.05929
     2019.06091         0.00147         5.70817
     2019.06365         2.41969         5.73125
     2019.06639        -1.34609         5.88173
     2019.06913        -7.89987         5.88373
     2019.07186        -8.40865         5.74028
     2019.07460        -6.59643         5.93088
     2019.07734         1.85079         5.65099
     2019.08008         2.57701         5.63293
     2019.08282        -2.60277         5.81050
     2019.08555         1.90345         5.54666
     2019.08829        -5.21234         5.68811
     2019.09103         2.59888         5.61889
     2019.09650         6.58732         5.58980
     2019.09924         0.36954         5.59983
     2019.10198        -7.01924         5.57676
     2019.10472         6.69098         5.62391
     2019.10746       -17.61880         5.67507
     2019.11019         0.99042         5.60484
     2019.11293         2.53264         5.66604
     2019.11567         5.47586         5.96800
     2019.11841        13.09407         5.70115
     2019.12115        13.91229         5.70717
     2019.12388         8.60051         5.76335
     2019.12662         7.79273         5.53863
     2019.12936         1.13795         5.57475
     2019.13210         2.01017         5.67707
     2019.13483        -6.94561         5.64899
     2019.13757        -3.88239         5.67707
     2019.14031        -0.74917         5.59481
     2019.14305        -0.91795         5.65902
     2019.14579        -1.63173         5.81451
     2019.14852        -0.29552         5.63996
     2019.15126        -3.13130         5.66303
     2019.15400       -11.48008         5.61688
     2019.15674         8.13714         5.62290
     2019.15948         1.03136         5.63996
     2019.16221        -7.92142         5.78141
     2019.16495        -4.00020         5.68410
     2019.16769        -9.35598         5.75934
     2019.17043        -8.77176         5.74830
     2019.17316        -3.01854         5.64497
     2019.17590        -1.78733         5.68510
     2019.17864        -0.66111         5.70717
     2019.18138         0.64211         5.69513
     2019.18412       -10.65667         5.65801
     2019.18685        -4.37645         5.55769
     2019.18959        -7.66723         5.59080
     2019.19233        -2.32601         5.64497
     2019.19507        -4.80279         5.62591
     2019.19780        -7.11857         5.63895
     2019.20054        -7.98035         5.75131
     2019.20328        -9.99613         5.69112
     2019.20602       -13.68192         5.57977
     2019.20876       -15.40770         5.71018
     2019.21149       -14.56148         5.62190
     2019.21423        -8.51526         5.64297
     2019.21697        -8.50604         5.53161
     2019.21971        -5.25582         5.75532
     2019.22245        -5.75760         5.66805
     2019.22518        -7.88338         5.68711
     2019.22792        -7.14316         5.61688
     2019.23066        -7.59994         5.56773
     2019.23340       -11.66072         5.69814
     2019.23613        -5.82751         5.68209
     2019.23887        -6.32829         5.82555
     2019.24161       -10.08007         5.98405
     2019.24435        -8.85885         5.76435
     2019.24709        -7.91163         5.73225
     2019.24982        -2.49341         5.54365
     2019.25256        -0.67719         5.66002
     2019.25530        -4.42497         5.59782
     2019.25804         0.06125         5.55569
     2019.26078         1.84547         5.69313
     2019.26351        -2.33432         5.64698
     2019.26625        -8.23010         5.64297
     2019.26899        -7.06388         5.67707
     2019.27173        -1.11166         5.76435
     2019.27446        -5.89344         5.63193
     2019.27720        -2.21922         5.76034
     2019.27994         7.73900         5.58578
     2019.28268         0.68322         5.55970
     2019.28542         2.93144         5.54967
     2019.29089         3.87888         5.69714
     2019.29363        -0.30291         5.58378
     2019.29637        -4.34369         5.65701
     2019.29911         0.86953         5.64297
     2019.30184       -10.80425         5.68911
     2019.30458        -5.64303         5.59582
     2019.30732       -13.63881         5.59782
     2019.31006        -3.34059         5.80548
     2019.31279        -5.47837         5.73727
     2019.31553        -0.99415         5.69012
     2019.31827        -2.59093         5.64798
     2019.32101        -4.82771         5.60083
     2019.32375       -12.68350         5.64497
     2019.32648        -5.39528         5.58478
     2019.32922        -7.97906         5.58879
     2019.33196         3.82916         5.91684
     2019.33470        -4.43662         5.67206
     2019.33744        -0.91340         5.63293
     2019.34017        -9.46018         5.64497
     2019.34291        -4.20096         5.90982
     2019.34565        -5.72974         5.80649
     2019.34839        -5.79252         5.74228
     2019.35112       -10.76430         5.60184
     2019.35386        -7.30609         5.57575
     2019.35660         1.84313         5.69915
     2019.35934         3.36935         5.69012
     2019.36208        -7.29343         5.64798
     2019.36481        -0.39821         5.59983
     2019.36755        -6.42399         5.71319
     2019.37029        -2.94477         5.61789
     2019.37303         3.72245         5.79345
     2019.37577        -2.30733         5.69814
     2019.37850        -7.93411         5.67306
     2019.38124         1.98511         5.81552
     2019.38398         1.10132         5.59080
     2019.38672        -4.29546         5.61889
     2019.38945        -7.89024         5.80950
     2019.39219         3.95098         5.61688
     2019.39493        -5.60680         5.63996
     2019.39767         1.02842         5.61287
     2019.40041         0.06364         5.68711
     2019.40314         0.81686         5.63193
     2019.40588        -5.74892         5.60585
     2019.40862         1.66430         5.62391
     2019.41136        -3.91149         5.66704
     2019.41410        -9.65127         5.76536
     2019.41683         3.66295         5.65801
     2019.41957        -2.10983         5.63695
     2019.42231        -5.46661         5.57074
     2019.42505         0.50761         5.67808
     2019.42778        11.53283         5.86467
     2019.43052         5.48405         5.68410
     2019.43326        -2.55773         5.67206
     2019.43600        -5.06451         5.67306
     2019.43874        -2.45529         5.72623
     2019.44147        -8.72108         5.86868
     2019.44421        -2.51486         5.79645
     2019.44695        -4.85664         5.72723
     2019.44969        -5.31342         5.74228
     2019.45243        -2.49220         5.75332
     2019.45516        -7.29298         5.74128
     2019.45790        -5.86076         5.77539
     2019.46064        -2.15654         5.71620
     2019.46338         6.37468         5.93891
     2019.46611         8.88790         5.90580
     2019.46885         2.12412         5.88674
     2019.47159         5.06833         5.81451
     2019.47433        -1.71145         5.79846
     2019.47707         7.13877         5.70516
     2019.47980        -4.51101         5.76736
     2019.48254        -0.71979         5.76235
     2019.48528         0.80843         5.79545
     2019.48802         3.10865         5.71921
     2019.49076         1.87887         5.69313
     2019.49349         3.30609         5.65099
     2019.49623        -2.35069         5.68410
     2019.49897        -7.24047         5.77338
     2019.50171        -0.06126         5.63895
     2019.50444        -1.54504         5.69513
     2019.50718        -6.84282         5.70817
     2019.50992         0.22640         5.66805
     2019.51266         5.96962         5.76134
     2019.51540         4.84184         5.62491
     2019.51813        -1.89494         5.73024
     2019.52087         7.73528         5.69814
     2019.52361        -1.68750         6.03722
     2019.52635        -0.54728         6.05628
     2019.52908         7.18993         6.06330
     2019.53182        -2.39585         6.29906
     2019.53456        -0.61363         6.28601
     2019.53730         5.73659         6.10042
     2019.54004         8.98781         5.95797
     2019.54277        10.78203         5.84060
     2019.54551         3.75925         5.92988
     2019.54825         1.50247         5.79244
     2019.55099         5.61969         5.80749
     2019.55373         9.03991         5.88574
     2019.55646         7.60913         6.09340
     2019.55920         0.24634         5.85865
     2019.56194         3.72856         5.68911
     2019.56468        -4.41622         5.92185
     2019.56741        -4.62400         6.83777
     2019.57015         3.33922         5.97502
     2019.57289         2.07844         5.74930
     2019.57563         4.58166         5.84461
     2019.57837        -2.87912         5.77438
     2019.58110         5.62210         5.72122
     2019.58384         6.56932         5.78241
     2019.58658         1.28954         5.82454
     2019.58932         0.83775         5.66604
     2019.59206         1.51897         5.80047
     2019.59479         3.02819         5.85063
     2019.59753         2.93941         5.95797
     2019.60027         5.78963         5.82755
     2019.60301         6.32485         5.83759
     2019.60574         2.68007         5.92486
     2019.60848         4.34029         5.88373
     2019.61122         1.10951         5.76636
     2019.61396        10.69973         5.84160
     2019.61670         2.47595         5.76235
     2019.61943         2.52616         5.73827
     2019.62217         1.71638         5.91182
     2019.62491         3.83260         5.71821
     2019.62765         9.28282         5.69413
     2019.63039         1.50904         5.85163
     2019.63312         0.10626         5.77438
     2019.63860         9.67770         5.80448
     2019.64134         2.73292         5.77338
     2019.64407         0.80214         5.58679
     2019.64681        -3.20965         5.64798
     2019.64955         2.34157         5.96900
     2019.65229        12.66279         5.65500
     2019.65503        -3.16299         5.93590
     2019.65776        -0.48077         5.64598
     2019.66050        -0.27255         5.88775
     2019.66324         4.01367         5.75733
     2019.66598         3.98089         5.81652
     2019.66872         3.04911         5.67407
     2019.67145        -4.00567         5.71620
     2019.67419        -3.31945         5.66704
     2019.67693        -3.19824         5.91082
     2019.67967         1.79098         5.82454
     2019.68240        -1.50080         5.84862
     2019.68514         3.53342         5.61287
     2019.68788         6.15764         5.82153
     2019.69062         2.67586         5.63996
     2019.69336         5.46508         5.61387
     2019.69609         9.24630         5.70015
     2019.69883         4.66452         5.67306
     2019.70157        -1.06726         5.71821
     2019.70431         8.47296         5.55970
     2019.70705         5.69517         5.61187
     2019.70978         9.70339         5.64297
     2019.71252         0.90361         5.61588
     2019.71526         4.69683         5.74329
     2019.71800         2.05305         5.86768
     2019.72073        10.52127         5.84862
     2019.72347         3.01949         5.80749
     2019.72621        10.27771         5.70416
     2019.72895         8.00393         5.78141
     2019.73169        10.02415         5.65701
     2019.73442        12.10937         5.63494
     2019.73716        14.69358         5.79144
     2019.73990        11.68180         5.93189
     2019.74264        17.48002         5.79044
     2019.74538         3.34924         5.63494
     2019.74811         7.44946         5.74630
     2019.75085        11.89268         5.78241
     2019.75359        11.65490         5.81150
     2019.75633        10.67612         5.70316
     2019.75906         8.45034         5.59180
     2019.76180         8.62456         5.61086
     2019.76454         8.03477         5.74630
     2019.76728        13.32899         5.56773
     2019.77002         6.19321         5.61989
     2019.77275        10.31043         5.86568
     2019.77549        12.25365         5.74930
     2019.77823        10.31587         5.62391
     2019.78097         6.71809         5.56973
     2019.78371         8.35231         5.58879
     2019.78644        11.11953         5.57475
     2019.78918        10.70575         5.68109
     2019.79192        20.33097         5.65601
     2019.79466        21.89518         5.54365
     2019.79739         9.83140         5.54265
     2019.80013        14.44662         5.59180
     2019.80287        11.16484         5.60685
     2019.80561        12.79106         5.63293
     2019.80835         4.97828         5.58779
     2019.81108        12.86050         5.57174
     2019.81382         5.85372         5.67106
     2019.81656        13.08294         5.63093
     2019.81930         4.35816         5.71620
     2019.82203        13.08838         5.75532
     2019.82477         7.64959         5.72422
     2019.82751         6.78881         5.65701
     2019.83025         9.37503         5.77037
     2019.83299        10.86125         6.08838
     2019.83572        13.56847         5.60585
     2019.83846        18.82169         5.70617
     2019.84120        19.85291         5.71018
     2019.84394        10.03313         5.87069
     2019.84668        -0.24465         5.76134
     2019.84941        10.62957         5.72723
     2019.85215        15.53479         5.72422
     2019.85489        12.90300         5.65601
     2019.85763         5.82822         5.65199
     2019.86036         4.82544         5.76937
     2019.86310        10.40466         5.73125
     2019.86584        14.13188         6.01816
     2019.86858        11.37210         5.68109
     2019.87132        11.72032         5.84561
     2019.87405        14.24354         5.64096
     2019.87679         9.71976         5.96499
     2019.87953        19.01598         5.76937
     2019.88227        17.32019         5.66303
     2019.88501        16.17841         5.78843
     2019.88774         8.43463         5.80849
     2019.89048        15.57085         5.68109
     2019.89322        18.55407         5.71720
     2019.89596        13.28129         5.72222
     2019.89869         4.92851         5.62692
     2019.90143        15.78373         5.67206
     2019.90417        10.77095         5.90179
     2019.90691        12.20017         5.69714
     2019.90965        11.12939         5.78542
     2019.91238        12.25760         5.63895
     2019.91512        16.13682         5.84661
     2019.91786        19.65404         5.61889
     2019.92060        14.66626         5.69413
     2019.92607        11.70570         5.74730
     2019.92881         3.34692         5.64598
     2019.93155         2.39514         5.76335
     2019.93429         8.42136         5.68510
     2019.93702         6.83358         5.69313
     2019.93976         5.01380         5.76134
     2019.94250         3.15301         5.79746
     2019.94524        -0.09677         5.66203
     2019.94798         4.39645         5.70015
     2019.95071         9.38467         5.84661
     2019.95345        10.03389         5.66604
     2019.95619         8.66311         5.75633
     2019.95893        15.97933         5.73827
     2019.96167         3.26355         5.70617
     2019.96440         5.01877         5.86768
     2020.06418         1.90811        16.86369
     2020.06570         0.82187         5.70918
     2020.06844         6.05509         5.60886
     2020.07118         1.37631         5.60384
     2020.07392         5.23453         5.68109
     2020.07666         2.97175         5.67407
     2020.07939         3.07197         5.65400
     2020.08213        -0.86781         5.59582
     2020.08487        -2.34159         5.58679
     2020.08761         2.93763         5.61488
     2020.09034        -2.51516         5.64297
     2020.09308        -5.44694         5.59883
     2020.09582        -3.15272         5.65300
     2020.09856        -2.93750         5.61287
     2020.10130        -3.08628         5.62792
     2020.10403        -3.08506         5.68008
     2020.10677        -8.66584         5.66002
     2020.10951        -3.40862         5.62892
     2020.11225         1.77760         5.61789
     2020.11498        -2.32218         5.61187
     2020.11772        -0.50997         5.74128
     2020.12046         2.35125         5.81552
     2020.12320         1.23247         5.59381
     2020.12594         1.45769         5.58177
     2020.12867        -4.32809         5.57876
     2020.13141        -6.17587         5.55870
     2020.13415        -5.07365         5.61488
     2020.13689        -7.11143         5.76335
     2020.13963        -1.48421         5.69112
     2020.14236        -1.56599         5.62190
     2020.14510         3.99923         5.64798
     2020.14784        -5.09856         5.59381
     2020.15058        -5.24934         5.62792
     2020.15331        -5.83112         5.62491
     2020.15605        -7.53490         5.75131
     2020.15879        -2.83768         5.59180
     2020.16153        -6.38146         5.65601
     2020.16427        -4.02124         5.71720
     2020.16700         1.69598         5.63494
     2020.16974        -1.12280         5.59582
     2020.17248         1.47842         5.56171
     2020.17522       -10.75936         5.59782
     2020.17796        -3.28015         5.55168
     2020.18069        -5.68593         5.68309
     2020.18343        -3.12671         5.67908
     2020.18617        -1.32749         5.57676
     2020.18891        -6.91227         5.55168
     2020.19164        -2.42905         5.57876
     2020.19438        -6.66783         5.74028
     2020.19712        -5.22761         5.61387
     2020.19986       -19.53739         5.65400
     2020.20260        -3.79017         5.59481
     2020.20533        -8.28495         5.68109
     2020.20807        -6.34274         5.57475
     2020.21081       -10.38152         5.70215
     2020.21355        -8.37630         6.24388
     2020.21629        -4.32308         5.88173
     2020.21902        -7.56086         5.65099
     2020.22176        -7.94364         5.60685
     2020.22450        -5.29542         5.66102
     2020.22724        -6.42920         5.79345
     2020.22997        -2.62098         5.77739
     2020.23271        -3.43476         5.64899
     2020.23545        -2.75154         5.66704
     2020.23819        -4.14233         5.68008
     2020.24093        -6.31911         5.71520
     2020.24366        -2.07689         5.71720
     2020.24640        -3.01267         5.69513
     2020.24914       -10.61845         5.74228
     2020.25188        -4.46823         5.65801
     2020.25462        -7.37101         5.75031
     2020.25735        -4.15179         5.73024
     2020.26009         2.42143         5.70215
     2020.26283        -2.15235         5.66403
     2020.26557        -7.57614         5.72422
     2020.26830        -7.06492         5.77438
     2020.27104        -8.32670         5.68209
     2020.27378        -6.71948         5.70316
     2020.27652        -6.06726         5.69112
     2020.27926        -5.94804         5.85564
     2020.28199        -2.78382         5.86166
     2020.28473        -7.64260         5.74529
     2020.28747       -14.63138         5.77138
     2020.29021        -3.18516         5.75131
     2020.29295        -1.27394         5.70717
     2020.29568        -8.63273         5.67808
     2020.29842        -4.16451         5.71219
     2020.30116        -1.22029         5.68811
     2020.30390        -5.41907         5.76736
     2020.30663       -11.31885         5.69513
     2020.30937        -7.06663         5.80247
     2020.31211       -11.56541         5.80047
     2020.31485        -5.07619         5.67808
     2020.31759        -3.26397         5.56873
     2020.32032        -0.47475         5.59883
     2020.32306       -10.53753         5.61789
     2020.32580        -5.81132         5.64096
     2020.32854        -5.92710         5.58679
     2020.33128        -7.51588         5.68309
     2020.33401        -3.04866         5.58277
     2020.33675        -1.51344         5.61488
     2020.33949        -3.84522         5.69313
     2020.34223       -11.53400         5.76235
     2020.34496       -12.12878         5.59883
     2020.34770       -14.18956         5.67106
     2020.35044        -9.34234         5.73626
     2020.35318        -8.66112         5.72723
     2020.35592        -5.78591         5.75131
     2020.35865        -5.09369         5.66303
     2020.36139        -7.34747         5.68410
     2020.36413        -2.03625         5.68008
     2020.36687        -6.17203         5.72924
     2020.36961        -4.23681         5.76736
     2020.37234        -3.13359         5.60184
     2020.37508        -1.68137         5.61889
     2020.37782        -4.32815         5.62892
     2020.38056        -7.47893         5.67106
     2020.38329        -7.24872         5.80448
     2020.38603        -7.72850         5.63093
     2020.38877        -5.90728         5.83558
     2020.39151        -3.97306         5.66102
     2020.39425        -7.98584         5.70416
     2020.39698        -9.57562         5.69212
     2020.39972        -7.85640         5.70215
     2020.40246        -9.51418         5.59481
     2020.40520        -5.43596         5.82956
     2020.40794        -9.10174         5.67407
     2020.41067        -1.12452         5.64899
     2020.41341       -15.44031         5.65500
     2020.41615        -9.44709         5.60083
     2020.41889        -5.45787         5.54967
     2020.42162        -8.70665         5.59782
     2020.42436        -2.74143         5.80548
     2020.42710        -3.12121         5.78743
     2020.42984        -6.93499         5.61387
     2020.43258        -5.05977         5.63293
     2020.43531       -12.72455         5.57676
     2020.43805        -5.46133         5.63394
     2020.44079        -6.58511         5.66604
     2020.44353        -0.21090         5.73225
     2020.44626        -7.41768         5.59782
     2020.44900        -7.42246         5.64598
     2020.45174        -2.26524         5.62692
     2020.45448        -4.33502         5.62792
     2020.45722        -0.09580         5.70215
     2020.45995        -1.24658         5.64698
     2020.46269       -10.59136         5.64999
     2020.46543         2.93686         5.59883
     2020.46817         0.78008         5.58679
     2020.47091        -1.50170         5.71720
     2020.47364        -2.00249         5.61688
     2020.47638         6.93173         5.65902
     2020.47912        -5.77305         5.72924
     2020.48186        -6.59583         5.68711
     2020.48459        -2.42761         5.71520
     2020.48733        -6.70939         5.71520
     2020.49007         3.32783         5.78642
     2020.49281         2.26705         5.81451
     2020.49555        -2.81473         5.76134
     2020.49828        -0.11551         5.64598
     2020.50102        -6.65430         5.64297
     2020.50376        -3.80608         5.68711
     2020.50650        -6.06086         5.60384
     2020.50924        -4.34264         5.62992
     2020.51197        -3.29542         5.60484
     2020.51471        -7.81320         5.72924
     2020.51745        -1.78698         5.61688
     2020.52019         4.68924         5.85464
     2020.52292         0.29946         5.63394
     2020.52566        -1.10932         5.67407
     2020.52840        -1.51210         5.59983
     2020.53114         1.30911         5.72824
     2020.53388         0.53233         5.72623
     2020.53661        -0.68445         5.76335
     2020.53935        -0.92223         5.78743
     2020.54209        -3.38801         5.62190
     2020.54483        -1.20879         5.57575
     2020.54757        -2.25757         5.59782
     2020.55030        -2.66535         5.68309
     2020.55304        -0.74413         5.70416
     2020.55578         0.38209         5.70015
     2020.55852         6.89831         5.64598
     2020.56125         3.06952         5.64798
     2020.56399         5.37674         5.65701
     2020.56673         1.08196         5.63394
     2020.56947         0.33318         5.96399
     2020.57221        12.97140         6.17265
     2020.57494         1.27062         5.70617
     2020.57768         4.76084         5.76235
     2020.58042        12.00006         5.96198
     2020.58316        -5.06272         5.87771
     2020.58590         4.86250         5.72222
     2020.58863        -5.92228         5.96499
     2020.59137        -1.77007         5.77539
     2020.59411         7.58815         5.72322
     2020.59685         6.28237         5.91884
     2020.59958        -0.25941         5.91483
     2020.60232        -4.83919         5.77539
     2020.60506         0.13103         5.78141
     2020.60780         0.80225         6.09240
     2020.61054         6.17347         5.73927
     2020.61327         2.59069         5.84762
     2020.61601         9.44791         5.88273
     2020.61875        -2.38388         5.78141
     2020.62149        -1.80666         5.91985
     2020.62423        -2.51544         5.81853
     2020.62696        -2.26822         5.91283
     2020.62970         5.99200         6.11848
     2020.63244         1.97922         5.78843
     2020.63518        13.27144         5.77037
     2020.63791         8.00466         5.87069
     2020.64065        -1.56712         5.75633
     2020.64339         0.59010         5.80548
     2020.64613         7.06332         5.79144
     2020.64887         1.78553         5.70316
     2020.65160         1.86975         5.72924
     2020.65434         2.73497         5.71620
     2020.65708         8.73419         5.88875
     2020.65982         9.86441         5.77037
     2020.66256         6.03463         5.73827
     2020.66529        21.13885         5.75231
     2020.66803        -0.48493         5.73125
     2020.67077         1.77129         5.94894
     2020.67351         6.58551         5.80749
     2020.67624         6.38273         5.82254
     2020.67898        -6.65306         5.82454
     2020.68172         4.69916         5.76837
     2020.68446         0.86538         5.97703
     2020.68720         0.11660         5.81953
     2020.68993         1.36582         5.83658
     2020.69267         4.11004         6.06631
     2020.69541         2.81926         6.12249
     2020.69815         4.21648         5.87470
     2020.70089         5.65370         5.77840
     2020.70362         8.84292         5.76536
     2020.70636         1.78714         5.97302
     2020.70910        -3.28165         6.11045
     2020.71184         1.88857         5.88072
     2020.71457         7.37079         5.84260
     2020.71731         4.86001         5.80950
     2020.72005        -0.24277         6.05929
     2020.72279        10.00845         5.74529
     2020.72553         9.79567         5.85163
     2020.72826        23.59489         5.88072
     2020.73100        16.82111         5.77338
     2020.73374        16.41033         5.72222
     2020.73648        13.30854         5.74228
     2020.73921        10.37576         5.77940
     2020.74195        18.75898         5.76736
     2020.74469         9.38420         5.84361
     2020.74743         0.40442         5.79044
     2020.75017        11.22764         5.75934
     2020.75290         4.51186         5.77338
     2020.75564         4.36808         5.71018
     2020.75838        11.50530         5.88072
     2020.76112         6.38452         5.69915
     2020.76386         8.34774         5.76335
     2020.76659        12.09795         5.80247
     2020.76933        14.71717         5.77639
     2020.77207         5.48639         5.70918
     2020.77481        22.62261         5.67407
     2020.77754        18.49583         5.66805
     2020.78028        21.15105         5.62491
     2020.78302        14.55127         5.66403
     2020.78576         7.57149         5.69313
     2020.78850         6.85571         5.63996
     2020.79123         6.23893         5.76937
     2020.79397        10.65115         5.68109
     2020.79671         8.45636         5.64297
     2020.79945         9.17158         5.69915
     2020.80219         6.39380         5.89677
     2020.80492        12.30502         5.67407
     2020.80766         9.26224         5.71419
     2020.81040         7.76646         5.70316
     2020.81314        12.33568         5.84561
     2020.81587        10.05290         5.68109
     2020.81861        20.40912         5.73225
     2020.82135         8.69634         5.75131
     2020.82409        16.79156         5.68610
     2020.82683        14.89677         5.75633
     2020.82956         4.72499         5.77438
     2020.83230         5.15121         5.76536
     2020.83504        18.43843         5.86668
     2020.83778        10.35765         5.82555
     2020.84052        21.25187         5.72523
     2020.84325        14.62509         5.86969
     2020.84599        15.99131         5.90580
     2020.84873        11.90253         5.66905
     2020.85147         9.11875         5.62591
     2020.85420        21.60996         5.71018
     2020.85694        20.34618         5.76636
     2020.85968        17.30340         5.61387
     2020.86242        19.54762         5.69614
     2020.86516        13.29184         5.83759
     2020.86789        16.76906         5.80649
     2020.87063        25.84228         5.64397
     2020.87337        18.42450         5.64798
     2020.87611        22.54672         5.74730
     2020.87885        21.48194         5.87370
     2020.88158        20.53416         5.81652
     2020.88432        18.63537         5.76435
     2020.88706        10.14559         5.95095
     2020.88980        11.23981         5.78141
     2020.89253        13.78103         5.76134
     2020.89527        14.28925         5.91283
     2020.89801        13.08247         5.91784
     2020.90075        12.87369         5.70215
     2020.90349        13.77391         5.68711
     2020.90622         9.48913         5.75633
     2020.90896         7.86335         5.88975
     2020.91170        10.12757         6.01214
     2020.91444         5.33678         5.86768
     2020.91718         3.55300         5.79746
     2020.91991        -1.07378         5.68811
     2020.92265         6.54844         5.85464
     2020.92539        -1.35734         5.84661
     2020.92813        -0.16212         5.77037
     2020.93086         5.99110         5.85464
     2020.93360         3.22332         5.78341
     2020.93634         3.95254         5.76837
     2020.93908         3.42776         5.73827
     2020.94182         3.75298         5.70717
     2020.94455         2.74319         5.78141
     2020.94729        -0.68059         5.79946
     2020.95003        -2.86637         5.70015
     2020.95277        -5.26915         5.76837
     2020.95551         3.13307         5.73827
     2020.95824         8.14629         5.70817
     2020.96098         2.30951         5.72422
     2020.96372         1.65573         5.68410
     2020.96646         1.48295         5.80849
     2020.96919         2.25317         5.84160
     2020.97193         0.77338         5.69112
     2020.97467         2.70660         5.82454
     2020.97741        -3.88618         5.77739
     2020.98015         5.43604         6.07334
     2020.98288         2.80026         5.86267
     2020.98562         7.57248         5.68109
     2020.98836        11.64870         5.69513
     2020.99110         4.60792         5.71520
     2020.99384         6.50514         5.64798
     2020.99657         9.80636         5.69012
     2020.99931         6.34358         5.70015
     2021.00205         3.25179         5.66704
     2021.00479        15.69401         5.68410
     2021.00752         9.38623         5.64397
     2021.01026         8.74445         5.66002
     2021.01300         7.90367         5.61889
     2021.01574         5.64989         5.68209
     2021.01848        -0.31689         5.70015
     2021.02121        -2.22567         5.65300
     2021.02395        -3.44445         5.75332
     2021.02669        -4.26723         5.67808
     2021.02943        -4.80701         5.66403
     2021.03216         7.91120         5.65601
     2021.03490         8.61942         5.66002
     2021.03764        -7.76336         5.64698
     2021.04038        -3.57714         5.73626
     2021.04312         0.40108         5.65601
     2021.04585        -0.19470         5.65902
     2021.04859         0.12152         5.65300
     2021.05133        -5.29826         5.74529
     2021.05407         1.75896         5.98606
     2021.05681         1.20018         5.78341
     2021.05954        -6.76060         5.67707
     2021.06228        -2.72539         5.75934
     2021.06502        -3.31717         5.65300
     2021.06776         2.46705         5.76636
     2021.07049        -0.98673         5.69915
     2021.07323         1.02449         5.65902
     2021.07597        -3.58329         5.69012
     2021.07871         1.56793         5.68911
     2021.08145         0.68315         5.63293
     2021.08418        -4.90563         5.64096
     2021.08692        -4.02241         5.64798
     2021.08966        -7.96620         5.66504
     2021.09240        -9.96998         5.72824
     2021.09514        -8.90076         5.80548
     2021.09787        -2.81754         5.77238
     2021.10061        -2.69132         5.63795
     2021.10335        -5.58310         5.63394
     2021.10609        -6.89088         5.64497
     2021.10882        -4.16466         5.65701
     2021.11156       -12.75044         5.63795
     2021.11430       -12.81622         5.69212
     2021.11704        -2.95000         5.67507
     2021.11978        -4.81179         5.67707
     2021.12251        -2.61257         5.67106
     2021.12525        -4.78335         5.66203
     2021.12799       -10.47813         5.73225
     2021.13073        -5.21491         5.81853
     2021.13347        -3.00169         5.76937
     2021.13620        -0.55147         5.71821
     2021.13894        -3.74325         5.67106
     2021.14168        -6.09003         5.62792
     2021.14442        -6.83581         5.66002
     2021.14715        -8.53659         5.65701
     2021.14989        -9.03638         5.65500
     2021.15263        -4.03816         5.79244
     2021.15537        -2.53394         5.72623
     2021.15811        -1.46572         5.84762
     2021.16084        -3.59450         5.76736
     2021.16358        -2.97528         5.78040
     2021.16632         3.55894         5.82354
     2021.16906        -2.29684         5.61989
     2021.17180        -4.68362         5.59180
     2021.17453        -8.43040         5.81953
     2021.17727        -6.81018         5.80649
     2021.18001        -5.22097         5.76937
     2021.18275       -13.20075         5.89477
     2021.18548       -13.35853         5.63795
     2021.18822       -12.67831         5.63895
     2021.19096        -8.10609         5.61588
     2021.19370        -2.57587         5.70617
     2021.19644       -10.54965         5.66704
     2021.19917       -19.24343         5.64899
     2021.20191       -12.93921         5.65601
     2021.20465        -7.29699         5.66805
     2021.20739        -6.83978         5.67206
     2021.21013         0.79744         5.78141
     2021.21286        -8.26834         5.75934
     2021.21560        -2.19612         5.67306
     2021.21834        -8.25890         5.61989
     2021.22108       -11.00368         5.62892
     2021.22381       -14.37946         5.66805
     2021.22655        -4.96624         5.60284
     2021.22929        -5.71402         5.61387
     2021.23203        -3.22180         5.64698
     2021.23477        -9.47258         5.65300
     2021.23750        -9.17237         5.66905
     2021.24024       -14.22415         5.70817
     2021.24298        -9.10793         5.61789
     2021.24572       -12.83171         5.63093
     2021.24846        -8.18949         5.86568
     2021.25119       -11.69627         5.65300
     2021.25393        -5.99505         5.61287
     2021.25667       -11.89583         5.63996
     2021.25941        -9.99961         5.68109
     2021.26214       -15.44839         5.60384
     2021.26488        -9.43117         5.64497
     2021.26762       -10.64996         5.71620
     2021.27036        -4.65774         5.73426
     2021.27248        -4.62118         7.55505
     2021.29050       -21.58949        10.95688
     2021.29226       -13.16698         5.69112
     2021.29500       -13.45076         5.64798
     2021.29774       -16.19955         5.91684
     2021.30047       -12.77833         5.67106
     2021.30321       -10.44211         5.63996
     2021.30595        -8.75689         5.85564
     2021.30869         2.03333         5.89076
     2021.31143        -7.61645         5.65500
     2021.31416        -4.85923         5.71319
     2021.31690        -3.61001         5.62692
     2021.31964       -11.43679         5.80047
     2021.32238       -11.10957         5.82856
     2021.32512        -7.85436         5.65601
     2021.32785        -8.25914         5.74930
     2021.33059        -7.88292         5.70817
     2021.33333        -7.43170         5.68209
     2021.33607       -10.77748         5.68711
     2021.33880       -17.10326         5.64999
     2021.34154       -15.72004         5.70516
     2021.34428       -19.73382         5.82956
     2021.34702       -19.45060         5.63093
     2021.34976        -8.38838         5.81050
     2021.35249       -11.84616         5.66002
     2021.35523       -14.46395         5.71821
     2021.35797       -17.24673         5.82655
     2021.36071       -11.99751         5.66604
     2021.36344       -18.15329         5.89076
     2021.36618       -17.04407         5.66303
     2021.36892       -12.38785         5.74329
     2021.37166       -15.83063         5.68911
     2021.37440       -14.64041         5.70516
     2021.37713       -13.26019         5.65400
     2021.37987       -11.19097         5.75532
     2021.38261       -12.67575         6.01615
     2021.38535       -19.04754         5.88373
     2021.38809       -17.56632         5.79445
     2021.39082        -7.00010         5.82354
     2021.39356        -9.49688         5.64798
     2021.39630       -10.17566         5.65801
     2021.39904       -19.40544         5.70316
     2021.40177        -2.13122         5.67206
     2021.40451        -9.79700         5.81150
     2021.40725       -13.72278         5.72623
     2021.40999        -6.31656         5.66403
     2021.41273        -4.41734         5.82956
     2021.41546        -9.80513         5.75633
     2021.41820       -18.36091         5.71219
     2021.42094       -16.45069         5.73426
     2021.42368       -13.50047         5.73024
     2021.42642        -7.12925         5.80047
     2021.42915        -4.21003         5.76536
     2021.43189        -3.63581         5.64397
     2021.43463       -10.38659         5.66002
     2021.43737       -12.93237         5.63293
     2021.44010        -7.48915         5.75532
     2021.44284       -12.11793         5.81552
     2021.44558        -4.40572         5.75633
     2021.44832         0.60950         5.83157
     2021.45106        -6.81728         5.75532
     2021.45379        -0.40006         5.86868
     2021.45653        -6.10384         5.77840
     2021.45927        -4.09162         5.67607
     2021.46201        -6.66440         5.67607
     2021.46475        -4.37218         5.61789
     2021.46748         0.55904         5.81853
     2021.47022        -8.32874         5.91884
     2021.47296        -3.76053         5.77338
     2021.47570        -0.35531         5.74228
     2021.47843        -3.98109         5.70717
     2021.48117        -9.55987         5.68309
     2021.48391        -7.74765         5.69915
     2021.48665       -10.35943         5.72422
     2021.48939        -4.86921         5.68911
     2021.49212        -8.67199         5.85263
     2021.49486         3.85623         5.90179
     2021.49760        -1.15755         6.15259
     2021.50034       -13.37833         5.88173
     2021.50308        -6.51012         5.64497
     2021.50581       -21.94690         5.76235
     2021.50855        -1.23368         5.73626
     2021.51129        -6.60246         5.74830
     2021.51403        -2.08324         5.82053
     2021.51676         0.38698         5.74128
     2021.51950        -1.78780         5.99408
     2021.52224        -3.94758         5.64798
     2021.52498        -0.66936         5.70316
     2021.52772         1.38686         5.68510
     2021.53045        -4.37392         5.77238
     2021.53319         2.00529         5.71821
     2021.53593        -2.35649         5.75532
     2021.53867         6.03173         5.98205
     2021.54141        10.99095         5.75432
     2021.54414        -1.44183         5.72824
     2021.54688         0.65439         5.67206
     2021.54962         3.62361         5.85665
     2021.55236        -0.87617         5.70918
     2021.55509         0.36305         5.76536
     2021.55783        -2.95573         5.75031
     2021.56057        -2.58451         5.72523
     2021.56331        -1.13930         5.84361
     2021.56605        -8.48308         5.76034
     2021.56878       -10.27486         5.87771
     2021.57152        -1.51464         5.76034
     2021.57426       -11.35642         5.83157
     2021.57700         4.11480         5.97502
     2021.57974        -1.48898         5.90781
     2021.58247        -7.30976         5.78040
     2021.58521         2.54946         5.80950
     2021.58795        -0.11732         6.08638
     2021.59069        -2.35811         5.84561
     2021.59342       -16.08189         6.12751
     2021.59616       -13.50067         5.95195
     2021.59890        -2.49445         5.83056
     2021.60164         2.99177         5.74228
     2021.60438         3.42899         5.84461
     2021.60711        -3.77379         6.11346
     2021.60985         1.43743         5.92085
     2021.61259         3.57865         5.82655
     2021.61533        -4.54413         5.80548
     2021.61807        10.18909         5.79345
     2021.62080         5.11130         6.07735
     2021.62354         3.38652         5.79846
     2021.62628         3.16574         5.98907
     2021.62902         0.02796         5.85765
     2021.63175         2.68618         5.91082
     2021.63449        -1.14260         5.84060
     2021.63723         7.30662         6.04725
     2021.63997         6.20484         5.89878
     2021.64271         4.99006         5.85364
     2021.64544         0.58228         5.70416
     2021.64818         1.06850         5.84762
     2021.65092         7.50771         5.81752
     2021.65366         2.39593         5.70316
     2021.65639         5.76615         5.89778
     2021.65913        -4.79363         5.82655
     2021.66187        13.50459         5.71620
     2021.66461         4.51081         5.87470
     2021.66735         8.70403         5.88173
     2021.67008         0.12825         5.85765
     2021.67282         6.49647         6.24288
     2021.67556        18.20569         6.14657
     2021.67830        10.01591         5.87972
     2021.68104         5.57012         5.78141
     2021.68377        15.81534         5.99509
     2021.68651         5.73756         5.77940
     2021.68925        10.70278         5.78542
     2021.69199         9.68500         6.09039
     2021.69472        -5.94278         5.79846
     2021.69746        11.59544         5.86367
     2021.70020         4.89766         5.78843
     2021.70294         7.95688         5.87470
     2021.70568         2.66010         5.73827
     2021.70841         9.20131         5.73626
     2021.71115        17.70053         5.73626
     2021.71389        15.79275         5.74630
     2021.71663         6.58697         5.71219
     2021.71937         6.73419         5.73727
     2021.72210        11.92341         5.70516
     2021.72484        11.01163         5.86768
     2021.72758         0.41585         5.88574
     2021.73032        -1.62293         6.27097
     2021.73305         9.28929         5.75934
     2021.73579        23.06051         5.77037
     2021.73853        18.28872         5.82555
     2021.74127        10.69494         5.89076
     2021.74401        13.57016         6.06230
     2021.74674        16.03538         5.90982
     2021.74948         6.40760         5.80849
     2021.75222         9.06782         5.89276
     2021.75496         5.51304         5.85966
     2021.75770         6.12926         5.77138
     2021.76043         8.75048         5.69915
     2021.76317        10.59470         5.73827
     2021.76591        10.54392         5.78040
     2021.76865        10.70413         5.79645
     2021.77138        11.50935         5.89778
     2021.77412        17.04557         5.75332
     2021.77686        17.05179         5.73927
     2021.77960        11.65301         5.83658
     2021.78234         8.98423         5.70717
     2021.78507        11.52545         5.75934
     2021.78781        11.98467         5.79244
     2021.79055        14.77289         5.76435
     2021.79329        14.45811         5.72723
     2021.79603        10.61633         5.71720
     2021.79876         9.01554         5.80348
     2021.80150        19.04176         5.94493
     2021.80424        11.97698         6.03321
     2021.80698         2.29520         5.85263
     2021.80971        11.66742         5.77037
     2021.81245        15.72164         5.91884
     2021.81519        21.28686         5.72021
     2021.81793        17.82908         5.73526
     2021.82067        13.00530         5.86066
     2021.82340        13.85652         5.80348
     2021.82614         4.53573         5.72021
     2021.82888        14.25695         5.69212
     2021.83162        16.61117         5.69413
     2021.83436        17.58539         5.74329
     2021.83709        12.12361         5.83558
     2021.83983         6.71683         5.75231
     2021.84257        13.96105         5.84762
     2021.84531         8.54127         5.73727
     2021.84804        11.30449         5.72322
     2021.85078        16.71771         5.70416
     2021.85352        11.63493         5.70416
     2021.85626        14.17814         5.75231
     2021.85900        12.11836         5.71720
     2021.86173         5.99258         5.78040
     2021.86447         5.59380         6.00512
     2021.86721         8.28702         5.90179
     2021.86995        13.08224         5.96499
     2021.87269         5.22046         5.88474
     2021.87546         8.01750         5.99910
     2021.87816         6.70790         5.70918
     2021.88090         8.97512         5.73225
     2021.88364         5.37234         5.75332
     2021.88637         5.01055         5.73727
     2021.88911         2.89277         5.77138
     2021.89185        -0.24501         5.84060
     2021.89459         2.21221         5.72924
     2021.89733         4.79943         5.74429
     2021.90006         5.98065         5.76636
     2021.90280         3.84787         5.73927
     2021.90554        -0.99691         5.70115
     2021.90828         8.76731         5.71419
     2021.91102         8.58553         5.70918
     2021.91375         7.96175         5.70817
     2021.91649         4.42296         5.77138
     2021.91923         5.05618         5.73526
     2021.92197        -0.16560         6.01114
     2021.92470        -5.91538         5.69513
     2021.92744        -3.45716         5.72924
     2021.93018        -8.26294         5.74930
     2021.93292        -2.68472         5.87972
     2021.93566        17.93450         5.88072
     2021.93839         7.53572         5.84661
     2021.94113        12.55894         5.94192
     2021.94387        16.82115         5.79645
     2021.94661        -4.48363         5.76736
     2021.94935        10.31859         5.79746
     2021.95208         7.46681         5.84160
     2021.95482         5.62603         5.78040
     2021.95756         5.65125         6.00512
     2021.96030        -0.03253         5.75231
     2021.96303        -1.94231         5.78442
     2021.96577         4.42991         5.77739
     2021.96851         3.92513         5.72422
     2021.97125         3.84135         5.87069
     2021.97399         1.84656         5.73426
     2021.97672        -7.02522         5.80649
     2021.97946        -7.87600         5.71520
     2021.98220        -7.74778         5.70416
     2021.98494        20.27044         5.70416
     2021.98767        12.30666         5.73426
     2021.99041         8.04388         5.78843
     2021.99315         8.25310         5.75432
     2021.99589        11.19032         5.71520
     2021.99863         2.82854         5.80247
     2022.00136         9.29476         5.67106
     2022.00410         9.24497         5.77138
     2022.00684         2.10619         5.72924
     2022.00958         1.61741         5.80649
     2022.01232       -13.93137         5.75131
     2022.01505         6.55885         5.69814
     2022.01779        11.04607         5.75031
     2022.02053         5.67129         5.75131
     2022.02600        -8.64627         5.81853
     2022.02874         1.12895         5.89477
     2022.03148        -7.34683         5.76937
     2022.03422        -1.97862         5.76235
     2022.03696        -7.43040         5.82856
     2022.03969        -7.95618         5.72623
     2022.04243        -3.78396         5.86166
     2022.04517         5.75326         5.74028
     2022.04791         2.42848         5.91584
     2022.05065        -3.27830         5.83558
     2022.05338        -1.54708         5.89778
     2022.05612       -13.85786         5.89376
     2022.05886        -7.77564         5.94192
     2022.06160        -6.15043         5.85865
     2022.06433        -3.34021         5.88975
     2022.06707        -7.90399         5.85263
     2022.06981        -1.34577         5.75934
     2022.07255       -11.89555         5.90179
     2022.07529        -2.96533         5.75031
     2022.07802         3.44889         5.68711
     2022.08076        -2.71189         5.90079
     2022.08350        -3.50167         5.81853
     2022.08624        -3.59045         5.83859
     2022.08898        -2.40523         5.80047
     2022.09171       -17.32102         5.76034
     2022.09445        -5.70680         5.73426
     2022.09719        -1.09158         5.80448
     2022.09993        -4.82436         6.00512
     2022.10266        -2.26314         5.93791
     2022.10540        -1.25792         5.87470
     2022.10814        -2.88470         5.79946
     2022.11088        -1.18748         5.89076
     2022.11362        -2.50626         5.84260
     2022.11635        -3.39404         5.83658
     2022.11909        -1.78782         5.72824
     2022.12183        -1.78961         5.71419
     2022.12457        -6.81639         5.87069
     2022.12731         0.10883         5.79445
     2022.13004         7.12605         5.82153
     2022.13278       -10.00573         5.70918
     2022.13552         0.73649         5.68109
     2022.13826         3.11971         5.77037
     2022.14099        -0.39507         5.76636
     2022.14373         6.88315         5.82053
     2022.14647         3.19437         5.73024
     2022.14921       -10.50841         6.17767
     2022.15195        -4.77320         5.97803
     2022.15468        -0.80198         5.72222
     2022.15742        -2.89176         5.75231
     2022.16016         3.22846         5.80849
     2022.16290         2.63668         5.79946
     2022.16564        -2.18410         5.72021
     2022.16837        -0.01588         5.68811
     2022.17111        -1.90666         5.81251
     2022.17385        -1.53644         5.84461
     2022.17659         1.73078         5.73526
     2022.17932        -9.21601         5.73526
     2022.18206        -9.19779         5.78141
     2022.18480       -10.65257         5.77840
     2022.18754        -1.55035         5.75332
     2022.19028        -8.83013         5.78542
     2022.19301        -2.96791         5.82655
     2022.19575         4.00931         5.81853
     2022.19849        -1.55247         5.72422
     2022.20123         0.83075         5.79144
     2022.20397        -2.60503         5.71921
     2022.20670        -4.13181         5.90079
     2022.20944        -1.61460         5.92888
     2022.21218         1.41362         5.72322
     2022.21492        -8.41316         5.76536
     2022.21765       -10.13794         5.72322
     2022.22039        -3.95772         5.81853
     2022.22313       -10.37150         5.72322
     2022.22587       -15.58528         5.89176
     2022.22861        -4.63106         5.90982
     2022.23134        -5.80284         5.79946
     2022.23408        -4.99062         5.67407
     2022.23682        -7.29740         5.86969
     2022.23956       -11.80419         5.74429
     2022.24230       -10.79897         5.76736
     2022.24503        -7.31075         5.80749
     2022.24777        -4.33853         5.73426
     2022.25051       -14.79631         5.77238
     2022.25325        -6.47109         5.72222
     2022.25598         0.08513         5.75231
     2022.25872        -5.63065         5.73426
     2022.26146        -8.40243         5.74329
     2022.26420        -7.78121         5.70416
     2022.26694       -21.90599         5.82655
     2022.26967       -14.99278         5.85364
     2022.27241         1.52444         5.83056
     2022.27515        -1.98934         5.83558
     2022.27789        -3.90912         5.74630
     2022.28062       -11.28590         5.74429
     2022.28336        -6.81868         5.86868
     2022.28610        -8.40246         5.97904
     2022.28884       -10.38124         5.99810
     2022.29158       -11.60402         5.78743
     2022.29431        -6.33080         5.81251
     2022.29705        -3.70259         5.83558
     2022.29979        -1.77537         5.83558
     2022.30253        -5.01715         5.85564
     2022.30527        -7.52193         5.84260
     2022.30800       -11.56171         5.84060
     2022.31074        -9.39949         5.72222
     2022.31348       -12.31327         5.81251
     2022.31622       -10.85105         5.72021
     2022.31895       -23.34883         5.91584
     2022.32169        -7.88061         5.91684
     2022.32443       -12.48439         5.67808
     2022.32717       -15.15618         5.75332
     2022.32991        -8.50496         5.70717
     2022.33264       -20.80174         5.88775
     2022.33538       -18.54352         5.95998
     2022.33812       -13.72130         5.88875
     2022.34086       -10.79708         5.67507
     2022.34360       -10.91186         5.72122
     2022.34633        -7.40564         5.71018
     2022.34907        -9.56542         5.70316
     2022.35181        -5.59620         5.76636
     2022.35455       -13.86098         5.78040
     2022.35728       -18.48077         5.70316
     2022.36002        -8.34455         5.71620
     2022.36276       -11.41433         5.72623
     2022.36550        -9.34311         5.72021
     2022.36824        -9.13689         5.68811
     2022.37097       -17.11967         5.73225
     2022.37371       -18.12545         5.67808
     2022.37645       -11.83423         5.71921
     2022.37919       -10.23501         6.06631
     2022.38193       -22.04279         5.96800
     2022.38466       -18.12657         5.69513
     2022.38740       -26.37736         5.74930
     2022.39014       -14.25114         5.75532
     2022.39288        -9.44092         5.80147
     2022.39561       -11.73670         5.76134
     2022.39835       -13.99348         5.83357
     2022.40109       -10.11326         5.86467
     2022.40383        -9.35304         5.80047
     2022.40657        -8.35982         5.79144
     2022.40930       -26.10260         5.88474
     2022.41204        -9.71638         5.91884
     2022.41478        -9.45717         5.74128
     2022.41752       -12.09795         5.84461
     2022.42026       -20.68973         5.84260
     2022.42299        -7.29151         5.75031
     2022.42573       -15.23229         5.73927
     2022.42847        -5.61607         5.73426
     2022.43121        -7.23085         5.86066
     2022.43394         5.31937         5.94091
     2022.43668       -18.25041         5.78843
     2022.43942       -17.68219         5.77639
     2022.44216       -10.10497         5.73426
     2022.44490        -1.81176         5.89276
     2022.44763        -4.35454         5.74028
     2022.45037       -12.51532         5.80649
     2022.45311       -15.64010         5.69714
     2022.45585        -6.46288         5.69313
     2022.45859       -27.39566         5.76235
     2022.46132       -15.32844         5.69513
     2022.46406       -14.59722         5.72122
     2022.46680       -12.34800         5.75733
     2022.46954       -15.06878         5.78642
     2022.47501        -4.79035         5.73225
     2022.47775       -19.89513         5.91684
     2022.48049       -11.63991         5.70015
     2022.48323         0.12931         5.70516
     2022.48596         5.76453         5.74329
     2022.48870        -7.11025         5.87571
     2022.49144        -8.35203         6.13252
     2022.49418        -6.18381         6.14958
     2022.49692        -0.56859         5.95095
     2022.49965       -12.68837         5.88072
     2022.50239       -22.68515         5.81251
     2022.50513        -3.90394         6.18870
     2022.50787         9.48928         6.05829
     2022.51060        -6.00750         5.89276
     2022.51334       -14.76528         5.75332
     2022.51608       -11.33706         5.73626
     2022.51882       -14.26084         5.69915
     2022.52156        -5.88962         5.69012
     2022.52429        -2.55940         5.78943
     2022.52703       -17.19118         5.85966
     2022.52977         2.51704         5.85063
     2022.53251        -5.08074         5.75031
     2022.53525         0.19447         5.84060
     2022.53798        -9.19231         5.71419
     2022.54072       -11.10009         5.72824
     2022.54346         0.53813         5.82856
     2022.54620       -11.43665         5.91182
     2022.54893        -0.78443         5.89076
     2022.55167        -7.07921         5.80749
     2022.55441         1.18001         5.87972
     2022.55715         5.94023         5.81652
     2022.55989        -8.29455         5.76435
     2022.56262        -9.74134         5.80448
     2022.56536       -21.64912         5.73827
     2022.56810        -4.60690         6.07936
     2022.57084        -8.32068         5.89376
     2022.57357         0.27954         6.17165
     2022.57631         0.88776         6.19272
     2022.57905       -10.36702         5.88875
     2022.58179       -15.71080         6.28401
     2022.58453         2.22642         6.19673
     2022.58726       -12.42836         5.75934
     2022.59000         0.36486         5.73426
     2022.59274        -7.84593         5.89978
     2022.59548        -0.50071         5.95897
     2022.59822       -17.68949         5.82856
     2022.60095       -16.43427         6.02318
     2022.60369       -12.78705         5.75131
     2022.60643        -3.20083         5.75532
     2022.60917         3.82439         5.93991
     2022.61190        -1.92039         6.05528
     2022.61464         5.92383         5.78040
     2022.61738        14.22605         5.66303
     2022.62012        -1.51673         5.75231
     2022.62286         6.16748         5.69413
     2022.62559         1.76670         5.75934
     2022.62833        -0.99408         5.69614
     2022.63107        10.05214         5.80348
     2022.63381         6.21436         5.90681
     2022.63655         4.92458         5.78241
     2022.63928        13.18880         5.94493
     2022.64202         3.85602         6.12350
     2022.64476        11.65024         5.90279
     2022.64750        11.12146         5.64899
     2022.65023       -11.38432         5.92386
     2022.65297         6.06589         5.80849
     2022.65571        13.14011         5.69513
     2022.65845        16.01433         5.78642
     2022.66119        24.42855         5.76937
     2022.66392        10.19877         5.65300
     2022.66666        14.88699         5.85765
     2022.66940        12.76021         5.71921
     2022.67214        17.60543         5.87470
     2022.67488        15.75065         5.73125
     2022.67761        15.71587         5.72623
     2022.68035        11.73908         5.66002
     2022.68309        26.29430         5.74730
     2022.68583         9.99152         5.87470
     2022.68856         6.70274         5.84762
     2022.69130        10.41996         5.88273
     2022.69404         4.72418         5.73125
     2022.69678         9.52540         5.85564
     2022.69952         5.08262         6.00211
     2022.70225        12.75084         5.97101
     2022.70499         9.57906         6.10444
     2022.70773         6.36028         5.83357
     2022.71047         5.71549         5.69614
     2022.71321        17.09171         5.65400
     2022.71594        11.37293         5.63895
     2022.71869         7.45510         5.70316
     2022.72142        13.61837         5.76435
     2022.72416         8.40259         5.74329
     2022.72689        12.15181         5.79746
     2022.72963        14.21003         5.84260
     2022.73237        16.59325         5.85665
     2022.73511         3.77547         5.69212
     2022.73785         4.30469         5.62692
     2022.74058        16.08890         5.93389
     2022.74332        15.83012         6.06631
     2022.74606        18.02234         5.96098
     2022.74880        10.94856         5.62090
