# ================= DQRFIT RESULTS ================
# INPUT FILE: series/BPEB.rad
# OUTPUT: LDETRENDED
# FILTER FUNCTION: f(t)
# f(t)=+line(t)+annual(t)
# line(t)=+P 1+P 2*t
# annual(t)=+P 3*sin(2*pi*t+P 4)
# heav(t)=(t<0?0:1)
# TOTAL OBSERVATIONS MTOT= 1274
# INITIAL TIME INTERVAL= 2022.7488 - 2019.0007 =  3.7481
# TOTAL OBSERVATIONS AFTER PREFILTER M= 1259
# TIME-SPAN= 2022.7488 - 2019.0007 =  3.7481
# OBSERVATIONS: USED M=  1259 REJECTED MTOT-M=    15 %USED=   98.8226
# N=  4 PARAMETERS
# MAXSIG= 175.00000
# MAXRES=  18.38221
# SCALE FACTOR FOR LENGTHS: SCL=  10.00000
# SCALE FACTOR FOR SIGMAS: SCLSIG=   1.00000
# CHI^2=   1579.158 DOF=  1255 CHI^2/DOF=   1.25829
# RMS=      6.086 SDEV=      6.088 MEAN=    0.00389
#  P #       PARAMETER +-    SIGMA %error PARAMETER NAME
# P 1 =     -8916.56895 +-  313.656   3.52 YZERO                              
# P 2 =         4.42656 +-    0.155   3.51 SLOPE                              
# P 3 =         1.85478 +-    0.241  12.97 ANNUAL AMPLITUDE                   
# P 4 =         2.85940 +-    0.176   6.14 ANNUAL PHASE                       
#       T            LDETRENDED       SIG_OBS
     2019.00068        -4.27340         6.14375
     2019.00342        -3.31952         6.18750
     2019.00616         4.94736         6.03831
     2019.00889        11.33625         6.03494
     2019.01163        -7.70987         6.02036
     2019.02258         7.03865         6.04504
     2019.02532         4.49653         6.12580
     2019.02806         1.80741         6.08093
     2019.03080        -1.52771         6.18974
     2019.03353        -2.16083         6.06299
     2019.03627        -7.28395         5.95979
     2019.03901         4.90793         5.96091
     2019.04175        -0.48119         5.97773
     2019.04449        -0.67231         6.02933
     2019.04722         6.50058         6.17740
     2019.04996         0.61846         6.23012
     2019.05270        -9.47666         6.27499
     2019.05544         2.63522         6.09215
     2019.05817         3.00910         6.24583
     2019.06091         9.13798         6.09103
     2019.06365         8.17186         6.11010
     2019.06639         5.97674         6.13814
     2019.06913         8.55462         6.15833
     2019.07186        10.26650         6.19872
     2019.07460        -2.44362         6.02597
     2019.07734         2.00226         6.00241
     2019.08008         1.96614         6.03606
     2019.08282         2.36003         6.37483
     2019.08555         5.76291         5.97661
     2019.08829        -2.37321         5.99680
     2019.09103         1.65767         5.98110
     2019.09377         3.33655         5.98559
     2019.09650         5.82343         5.97549
     2019.09924         5.10431         5.97773
     2019.10198        -1.22981         6.00914
     2019.10472         3.52507         6.00241
     2019.10746        -3.55505         5.98559
     2019.11019        -0.67317         5.98446
     2019.11293        -0.11229         6.07196
     2019.11567         4.18159         6.26153
     2019.11841        10.94148         5.95193
     2019.12115         9.62736         6.14824
     2019.12388         0.17124         6.12132
     2019.13210         0.33788         5.97998
     2019.13483       -27.33524         6.09776
     2019.13757       -12.37836         6.03606
     2019.14031        -0.70048         5.97661
     2019.14305       -16.39860         6.01363
     2019.14579       -15.55372         6.00802
     2019.14852       -10.40984         6.07757
     2019.15126        -4.82996         6.02036
     2019.15400        -8.43708         5.99793
     2019.15674        -9.32019         5.94745
     2019.15948        -7.46931         6.02597
     2019.16221       -11.91043         6.13926
     2019.16495        -7.78255         6.02597
     2019.16769        -9.32267         6.01699
     2019.17043       -10.22579         5.99120
     2019.17316        -7.43491         5.94969
     2019.17590        -5.84703         6.00578
     2019.17864        -6.38715         6.02485
     2019.18138        -8.01427         6.06411
     2019.18412       -16.47239         6.01026
     2019.18685       -10.00551         5.89473
     2019.18959        -5.00363         6.06074
     2019.19233        -9.69874         6.04279
     2019.19507        -8.80086         6.08430
     2019.19780        -9.27898         6.07533
     2019.20054        -5.16610         6.12580
     2019.20328        -8.51422         6.02709
     2019.20602        -7.47734         6.02260
     2019.20876       -10.67546         6.00353
     2019.21149        -7.28358         6.00466
     2019.21423        -5.34570         5.97549
     2019.21697        -9.10582         5.93960
     2019.21971        -5.98094         6.22564
     2019.22245        -5.53106         6.01699
     2019.22518        -7.52318         5.98895
     2019.22792       -10.75330         5.95193
     2019.23066        -9.80341         5.94184
     2019.23340        -5.95153         5.88800
     2019.23613       -12.32365         5.99680
     2019.23887        -5.22677         5.96540
     2019.24161       -10.84889         6.18077
     2019.24435        -5.70901         6.07308
     2019.24709        -7.12713         6.01475
     2019.24982        -4.20025         5.99680
     2019.25256        -0.03537         6.10337
     2019.25530        -5.39049         5.91380
     2019.25804        -2.63361         6.10225
     2019.26078         2.56727         6.00802
     2019.26351         0.40315         6.07869
     2019.26625        -6.59196         5.95979
     2019.26899        -0.25208         6.00466
     2019.27173       -17.19320         6.25368
     2019.27446        -1.64432         5.93062
     2019.27720         2.47456         6.07084
     2019.27994        -2.06856         5.99232
     2019.28268         0.07632         5.97549
     2019.28542        -1.43380         6.00353
     2019.29089         4.41596         5.96876
     2019.29363         1.42484         5.99456
     2019.29637         5.82672         6.04279
     2019.29911         1.44960         5.94408
     2019.30184        -2.34652         6.03158
     2019.30458        -5.15563         6.04167
     2019.30732         1.15425         5.93062
     2019.31006         5.12413         6.01139
     2019.31279        -0.14999         6.03046
     2019.31553         7.11789         5.96652
     2019.31827         1.74077         5.98895
     2019.32101        -0.10435         5.94408
     2019.32375       -12.27247         5.96540
     2019.32648        -2.22359         5.88912
     2019.32922        -2.69871         5.95754
     2019.33196         2.07617         6.14375
     2019.33470         7.75505         6.04616
     2019.33744         4.83593         6.00802
     2019.34017         5.25882         5.96652
     2019.34291        -3.93730         5.95081
     2019.34565        -5.17542         6.07533
     2019.34839         1.67046         6.07308
     2019.35112        -7.70366         5.95081
     2019.35386        -3.40178         5.93960
     2019.35660        -1.69490         5.96764
     2019.35934        -0.60402         6.00129
     2019.36208         1.10986         5.94745
     2019.36481         1.45874         5.97773
     2019.36755         0.32162         5.94520
     2019.37029        -2.31150         5.95866
     2019.37303         5.40538         5.96203
     2019.37577         1.73126         6.12244
     2019.37850        -3.15285         5.97325
     2019.38124        -0.53997         5.96091
     2019.38398        -0.98309         5.96315
     2019.38672        -3.64821         5.92726
     2019.38945        -3.57333         6.02597
     2019.39219         4.92955         6.08766
     2019.39493        -4.14157         6.02933
     2019.39767        -3.33669         5.96652
     2019.40041        -4.58281         5.94633
     2019.40314         1.53807         5.94520
     2019.40588         1.52595         5.93960
     2019.40862        -0.28317         5.94633
     2019.41136        -2.55329         5.98110
     2019.41410         0.75860         6.03382
     2019.41683         2.49648         6.01363
     2019.41957         5.18636         5.96876
     2019.42231         3.32124         5.97100
     2019.42505        -2.38988         6.06074
     2019.42778         2.45900         6.22227
     2019.43052         6.22088         5.98446
     2019.43326        -1.44924         5.94857
     2019.43600        -1.32436         6.01924
     2019.43874        -0.63948         6.11346
     2019.44147        -8.25460         6.04728
     2019.44421        -6.62072         6.09888
     2019.44695        -8.33984         6.06972
     2019.44969        -2.48695         6.09215
     2019.45243        -2.00107         6.10000
     2019.45516         1.24981         6.04953
     2019.45790        -4.26431         6.09888
     2019.46064        -2.23343         6.10898
     2019.46338        -2.92055         6.34903
     2019.46611         6.76233         6.38717
     2019.46885         0.17021         6.23686
     2019.47159        -0.11191         6.06747
     2019.47433         3.67997         6.06299
     2019.47707         4.65685         6.05401
     2019.47980        -0.77027         6.09215
     2019.48254        -4.52939         6.10673
     2019.48528        -6.22751         6.07981
     2019.48802        -6.83462         6.07869
     2019.49076        -2.96074         5.99007
     2019.49349        -2.40886         5.99905
     2019.49623        -3.48098         5.99232
     2019.49897        -3.30510         5.95530
     2019.50171        -0.83322         5.94633
     2019.50444        -0.32234         5.98783
     2019.50718        -0.54346         5.99344
     2019.50992        -1.00658         5.98110
     2019.51266        -0.35470         6.01699
     2019.51540         2.49118         5.96876
     2019.51813       -10.45594         6.00241
     2019.52087        -2.32306         6.05289
     2019.52361        -3.18317         5.97886
     2019.52635        -9.07629         5.97661
     2019.52908         2.63359         6.25705
     2019.53182        -3.93053         6.10000
     2019.53456        -8.50765         6.07420
     2019.53730         3.47223         6.12917
     2019.54004        -1.03689         6.21779
     2019.54277         6.27099         6.16619
     2019.54551         1.74487         6.32772
     2019.54825         0.51375         5.95081
     2019.55099        -3.62237         6.00353
     2019.55373        -3.46949         6.17067
     2019.55646         2.81739         6.08766
     2019.55920        -5.38173         6.24695
     2019.56194       -10.19784         6.12132
     2019.56468        -4.95496         6.19759
     2019.56741        -1.61908         5.96876
     2019.57015         0.33980         5.97213
     2019.57289         1.05068         6.07757
     2019.57563        -1.42944         6.02485
     2019.57837         0.32944         6.12693
     2019.58110         1.51932         5.92950
     2019.58384        -3.10080         6.13366
     2019.58658        -2.41292         5.92950
     2019.58932         0.10096         5.94408
     2019.59206         1.44384         6.05177
     2019.59479        -0.76128         5.93847
     2019.59753         0.69561         6.17404
     2019.60027        -0.45051         6.18750
     2019.60301        -3.56163         5.93062
     2019.60574         0.88625         6.21666
     2019.60848        -2.99287         6.25480
     2019.61122        -0.01699         6.07308
     2019.61396         4.83589         6.06747
     2019.61670         2.70777         6.05177
     2019.61943        -2.81735         5.97100
     2019.62217        -0.58247         6.24919
     2019.62491         0.67241         6.06635
     2019.62765         6.09029         5.99007
     2019.63039         6.89317         6.01587
     2019.63312        -2.49295         6.07533
     2019.63586         8.05694         6.17292
     2019.63860         2.52382         6.01363
     2019.64134         0.15070         6.31426
     2019.64407        -1.28742         6.04392
     2019.64681         1.81746         6.02260
     2019.64955        -4.17566         6.00129
     2019.65229         0.21522         6.00802
     2019.65503         0.53610         6.18638
     2019.65776        -5.03202         6.09103
     2019.66050        -5.44614         6.20208
     2019.66324        -0.89026         6.26490
     2019.66598        -2.02838         6.03494
     2019.66872        -0.20750         5.97100
     2019.67145        -7.10761         5.98783
     2019.67419        -4.45273         6.01363
     2019.67693        -2.76685         6.19423
     2019.67967        -1.02097         6.15721
     2019.68240        -8.98109         6.07308
     2019.68514         0.76679         6.01139
     2019.68788        -0.47833         6.08879
     2019.69062        -1.57545         6.03831
     2019.69336        -2.94557         5.99905
     2019.69609         1.49431         6.28172
     2019.69883         1.84719         6.04953
     2019.70157        -7.71693         6.25032
     2019.70431         1.45895         5.98783
     2019.70705        -6.78017         5.95306
     2019.70978         2.59272         6.03606
     2019.71252        -6.40240         5.93960
     2019.71526        -4.06752         6.02036
     2019.71800        -3.25664         6.24022
     2019.72073        -8.94076         6.27836
     2019.72347        -1.72188         6.29967
     2019.72621         5.33800         6.13141
     2019.72895         4.14488         6.03270
     2019.73169         8.99076         6.02036
     2019.73442         5.41864         6.13926
     2019.73716         3.81852         6.01587
     2019.73990        -0.66060         6.18189
     2019.74264        -2.84672         6.05513
     2019.74538        -3.66683         5.95642
     2019.74811        -1.55495         6.12805
     2019.75085        -2.41207         6.18638
     2019.75359         5.92681         6.18974
     2019.75633         3.59169         6.06299
     2019.75906         4.46557         5.93511
     2019.76180         2.43245         6.08093
     2019.76454         7.32733         6.11907
     2019.76728         3.80621         5.97325
     2019.77002        -1.33591         5.94969
     2019.77275        -0.43703         6.20657
     2019.77549        -3.29815         6.15048
     2019.77823         1.19273         6.03270
     2019.78097         1.11162         5.97549
     2019.78371        -0.50050         5.92950
     2019.78644        -2.86162         6.13366
     2019.78918         2.68526         6.05850
     2019.79192         5.17114         6.16170
     2019.79466         7.48702         6.02597
     2019.79739         4.42990         5.97661
     2019.80013         9.68878         6.02709
     2019.80287         5.50966         6.06635
     2019.80561        10.97954         6.09103
     2019.80835         1.54642         6.05850
     2019.81108         3.93330         6.23910
     2019.81382        12.62618         6.16619
     2019.81656         3.94606         5.96315
     2019.81930         0.40895         5.96988
     2019.82203         0.96083         6.02036
     2019.82477        -5.02629         6.02597
     2019.82751        -2.84141         5.96203
     2019.83025         3.94847         6.07645
     2019.83299         1.17235         6.12244
     2019.83572         2.07323         6.10898
     2019.83846         7.27711         6.07196
     2019.84120         4.90199         5.96876
     2019.84394         4.00487         6.09552
     2019.84668        -4.20125         5.97437
     2019.84941         5.88763         6.04167
     2019.85215         3.40951         6.08430
     2019.85489        -0.15160         5.95642
     2019.85763         2.73228         5.91155
     2019.86036        -2.80884         6.01026
     2019.86310         3.11604         6.06635
     2019.86584         6.19092         6.16619
     2019.86858        -0.94420         6.41521
     2019.87132         3.73468         6.07196
     2019.87405         3.90656         6.03719
     2019.87679         2.45944         6.24919
     2019.87953         9.80232         6.02709
     2019.88227        19.96420         5.99905
     2019.88501         9.75508         6.06635
     2019.88774         9.21296         6.27163
     2019.89048        10.84584         5.97325
     2019.89322        13.99773         6.01587
     2019.89596         7.48861         6.14375
     2019.89869        -1.62451         6.04504
     2019.90143         4.56637         5.94745
     2019.90417        -2.51975         6.04279
     2019.90691        -0.92487         6.03382
     2019.90965         0.86701         5.94969
     2019.91238         4.42789         5.96091
     2019.91512         9.10577         5.97549
     2019.91786         8.72865         6.05065
     2019.92060        10.69753         6.02709
     2019.92334         6.10641         6.08206
     2019.92607         3.96529         6.08991
     2019.92881         1.86218         6.04279
     2019.93155         3.87206         6.06859
     2019.93429         7.83094         6.03382
     2019.93702         2.43982         6.02036
     2019.93976         2.80670         6.15385
     2019.94250         1.53058         6.06747
     2019.94524        -2.10154         6.10000
     2019.94798         1.23034         6.04504
     2019.95071         4.37122         6.27836
     2019.95345         3.11310         6.02821
     2019.95619         5.45898         6.09552
     2019.95893         3.48286         6.06411
     2019.96167         6.67074         6.15048
     2019.96440         8.36962         6.21891
     2019.96714        -0.08049         6.21330
     2019.96988        -6.66461         6.10449
     2019.97262       -10.72273         6.03158
     2019.97535        -1.12585         6.03719
     2019.97809       -12.10897         6.09327
     2019.98083        -3.36309         6.00017
     2019.98357        -2.86821         6.06972
     2019.98631         0.96767         6.02036
     2019.98904         4.89855         6.04840
     2019.99178         4.63643         6.02933
     2019.99452         5.69831         5.99680
     2020.00000        14.50307         5.92613
     2020.00273         5.04396         5.99120
     2020.00547         7.69184         6.11122
     2020.00821         1.06172         6.13590
     2020.01095         6.08260         6.10225
     2020.01368         4.61148         6.12019
     2020.01642         6.94836         6.12244
     2020.01916         5.26124         5.97437
     2020.02190        -5.98288         6.09664
     2020.02464       -16.40700         6.21891
     2020.02737         3.07088         5.99568
     2020.03011       -18.16924         5.95866
     2020.03285       -15.66036         5.94969
     2020.03559        -9.89848         5.91267
     2020.03833        -5.22060         5.85210
     2020.04106       -12.55571         6.03382
     2020.04380       -25.15883         6.02373
     2020.04654        -3.85895         5.99456
     2020.04928         2.28493         5.85883
     2020.05201         6.68481         5.90033
     2020.05475        -6.82231         5.91267
     2020.05749         3.66157         5.91940
     2020.06023         2.69145         5.91155
     2020.06297         2.14933         5.89248
     2020.06570         6.62021         5.96988
     2020.06844         6.67409         5.88687
     2020.07118        -2.85203         5.91155
     2020.07392         6.32585         5.91492
     2020.07666         2.27374         5.92726
     2020.07939         6.49862         5.88687
     2020.08761        -0.90474         5.85659
     2020.20260        -5.14775         5.95754
     2020.20533        -3.80087         5.96876
     2020.20807        -0.35199         5.94745
     2020.21081        -4.01311         5.93960
     2020.21355        -3.76123         6.46793
     2020.21629         3.10765         6.21666
     2020.21902        -1.51347         6.12244
     2020.22176         1.78541         6.04728
     2020.22450       -22.65570         5.89921
     2020.22724         1.13718         5.90033
     2020.22997         1.91806         5.90370
     2020.23271         1.32194         5.97100
     2020.23545         2.93282         6.11795
     2020.23819         1.76670         5.98334
     2020.24093        -0.78242         5.96315
     2020.24366        -7.20754         5.96091
     2020.24640         3.52834         5.95979
     2020.24914        -4.80278         5.93847
     2020.25188         1.23510         6.03494
     2020.25462         2.23698         6.05177
     2020.25735        -0.06314         5.93062
     2020.26009         5.11475         5.91940
     2020.26283         1.07963         5.95306
     2020.26557         0.62451         5.95866
     2020.26830        -1.56761         5.94745
     2020.27104        -3.25973         5.95418
     2020.27378         5.04315         5.94857
     2020.27652         0.20103         5.95530
     2020.27926         0.87591         6.04616
     2020.28199         2.13579         6.10786
     2020.28473        -3.50133         5.97886
     2020.28747         3.96455         6.05962
     2020.29021         4.22943         5.94969
     2020.29295        -2.34369         5.97437
     2020.29568         8.18519         5.93399
     2020.29842         2.99608         5.95418
     2020.30116         8.87796         5.92613
     2020.30390         1.05384         5.97886
     2020.30663        -2.14428         6.11122
     2020.30937         6.18960         6.06859
     2020.31211        -0.24952         6.12917
     2020.31485        -3.05264         6.10225
     2020.31759         6.76024         5.85659
     2020.32032        11.44312         5.97773
     2020.32306        -0.61800         6.09103
     2020.32580         5.36188         5.92726
     2020.32854         4.47376         5.92501
     2020.33128        -0.10936         6.08318
     2020.33401         6.73553         5.93960
     2020.33675         0.17841         5.93960
     2020.33949         3.01929         5.99344
     2020.34223        -0.11783         6.33332
     2020.34496        -5.99695         6.05513
     2020.34770        -4.32607         6.00129
     2020.35044        -0.83819         5.98334
     2020.35318        -2.44931         6.02485
     2020.35592         0.63357         6.01924
     2020.35865         0.99345         5.96315
     2020.36139         1.84433         6.05513
     2020.36413         9.55021         5.90931
     2020.36687         6.68309         6.02597
     2020.36961        -0.20703         6.09103
     2020.37234        -2.14614         5.92838
     2020.37508         3.84874         5.96652
     2020.37782         4.44562         5.95193
     2020.38056         0.09350         5.92277
     2020.38329         0.79938         5.95418
     2020.38603         0.14626         5.89248
     2020.38877        -0.08386         6.05513
     2020.39151        -0.32998         5.98222
     2020.39425       -10.79310         6.05401
     2020.39698         3.26978         5.94184
     2020.39972         1.36466         5.86107
     2020.40246         3.98054         5.90594
     2020.40520        -3.01458         6.15497
     2020.40794         1.34131         5.91380
     2020.41067         0.51219         5.88239
     2020.41341         1.41107         5.86107
     2020.41615         1.53295         5.88687
     2020.41889        -6.57317         6.00017
     2020.42162        -1.10229         5.95754
     2020.42436         0.73259         6.14599
     2020.42710         2.31647         6.07757
     2020.42984         1.26535         5.91604
     2020.43258        -1.20077         5.93174
     2020.43531        -1.56089         5.95193
     2020.43805        -4.97401         6.05065
     2020.44079        -2.25813         5.98559
     2020.44353        -1.15825         6.02148
     2020.44626        -2.56136         6.05626
     2020.44900         0.17952         6.03158
     2020.45174        -1.75860         6.04167
     2020.45448         6.04528         6.07981
     2020.45722         2.12016         5.94633
     2020.45995         4.10304         5.97549
     2020.46269        -4.60608         5.98783
     2020.46543        -2.80420         5.99007
     2020.46817        -2.99732         6.04728
     2020.47091         7.35456         5.95866
     2020.47364         0.70444         5.97213
     2020.47638         7.06132         6.10898
     2020.47912         2.42920         6.06186
     2020.48186         0.78409         6.03046
     2020.48459         5.02097         6.38380
     2020.48733         0.94485         6.14824
     2020.49007        -3.75027         6.14487
     2020.49281         3.31961         6.23349
     2020.49555        -0.36651         6.13141
     2020.49828         2.12837         6.00578
     2020.50102         5.24425         6.06299
     2020.50376        -6.74687         6.04504
     2020.50650        -1.32999         5.98334
     2020.50924        -4.47011         5.96427
     2020.51197        -2.89223         5.96315
     2020.51471         1.76365         6.01699
     2020.51745         0.80454         6.07420
     2020.52019         6.67042         6.20545
     2020.52292         2.02730         5.99007
     2020.52566         1.23218         6.03046
     2020.52840         7.06706         5.95418
     2020.53114         3.59094         5.99793
     2020.53388         2.81582         6.00578
     2020.53661         3.95070         6.19199
     2020.53935         3.98758         6.12019
     2020.54209         6.55646         5.95642
     2020.54483         2.28234         5.98559
     2020.54757        -3.08978         6.02036
     2020.55030         2.82410         6.04840
     2020.55304         3.97698         6.13253
     2020.55578         2.41287         5.99232
     2020.55852         8.49175         5.98446
     2020.56125         1.33163         5.96988
     2020.56399         2.87651         6.02148
     2020.56673        -1.47061         5.96540
     2020.56947         3.31227         6.23237
     2020.57221         9.69315         6.44213
     2020.57494        -1.49197         6.14151
     2020.57768         2.12891         6.09103
     2020.58042         1.52079         6.13702
     2020.58316        -8.46133         6.16619
     2020.58590        -5.67845         6.21554
     2020.58863         9.83043         6.28172
     2020.59137         4.15032         6.05626
     2020.59411         5.15220         6.18189
     2020.59685         4.34108         6.35352
     2020.59958        -0.58504         6.39053
     2020.60232         1.78084         6.15946
     2020.60506         7.73772         6.13478
     2020.60780        -0.14440         6.26714
     2020.61054         7.69248         6.11571
     2020.61327         3.18636         6.11122
     2020.61601         0.93124         6.13478
     2020.61875         2.66812         6.22227
     2020.62149         1.19200         6.08766
     2020.62423         1.10288         6.12132
     2020.62696         0.22776         6.36473
     2020.62970         3.05465         6.22676
     2020.63244        -0.10447         6.27724
     2020.63518         3.84741         6.27612
     2020.63791        -7.30271         6.38941
     2020.64065        -0.87483         6.18862
     2020.64339        -2.81895         6.09888
     2020.64613         3.12293         6.08093
     2020.64887         1.76781         6.10786
     2020.65160         3.92569         6.06186
     2020.65434         5.52357         6.08991
     2020.65708        -3.24355         6.35464
     2020.65982        -0.04167         6.11234
     2020.66256         2.16521         6.14375
     2020.66529         7.27510         6.32659
     2020.66803         4.51698         6.11459
     2020.67077         4.93186         6.29294
     2020.67351         7.98574         6.08654
     2020.67624         1.92162         6.08654
     2020.67898         1.60350         6.12917
     2020.68172        -0.30262         6.36249
     2020.68446         5.57026         6.16506
     2020.68720        -1.71586         6.08542
     2020.68993        -0.69898         6.04840
     2020.69267         2.04390         6.18189
     2020.69541         2.05178         6.39726
     2020.69815         3.98766         6.20432
     2020.70089         1.17854         6.06972
     2020.70362        -4.61357         6.11346
     2020.70636       -10.53269         6.46681
     2020.70910        -1.47181         6.44774
     2020.71184         1.17407         6.47579
     2020.71457         1.16995         6.27724
     2020.71731        -0.29117         6.24583
     2020.72005        -0.96229         6.35576
     2020.72279        -2.73441         6.26602
     2020.72553         5.00347         6.24583
     2020.72826         9.62835         6.47242
     2020.73100         4.64023         6.26939
     2020.73374         5.80111         6.33445
     2020.73648        11.14499         6.21666
     2020.73921        -0.21412         6.13253
     2020.74195         5.30976         6.16731
     2020.74469         1.98864         6.08766
     2020.74743        -4.60648         6.17404
     2020.75017         0.18740         6.29070
     2020.75290        -3.59472         6.04728
     2020.75564        -1.17884         6.04504
     2020.75838         0.22804         6.12805
     2020.76112         4.79292         6.26153
     2020.76386         0.52480         6.10561
     2020.76659         3.85768         6.08879
     2020.76933         5.92356         6.14375
     2020.77207         0.95344         6.09664
     2020.77481        10.43432         6.14824
     2020.77754         6.94821         6.10898
     2020.78028         5.04609         6.04616
     2020.78302        -1.44003         6.14263
     2020.78576         8.56685         6.17179
     2020.78850         3.94373         6.11795
     2020.79123        19.91661         6.51056
     2020.79397         8.93449         6.08542
     2020.79671        10.64637         6.15609
     2020.79945         4.38125         6.08318
     2020.80219         5.10513         6.25256
     2020.80492         7.00901         6.11459
     2020.80766         3.94689         6.10449
     2020.81040         8.61277         6.15385
     2020.81314         3.74266         6.04953
     2020.81587        -0.48046         6.06186
     2020.81861         2.02842         6.11795
     2020.82135         3.93430         6.09552
     2020.82409         6.22418         6.10673
     2020.82683         5.31106         6.17292
     2020.82956         5.48394         6.33893
     2020.83230         7.45682         6.24471
     2020.83504         2.79170         6.21330
     2020.83778         7.86958         6.36361
     2020.84052         3.93046         6.23461
     2020.84325         6.98234         6.36698
     2020.84599         8.28122         6.35352
     2020.84873        13.32111         6.11346
     2020.85147         3.90299         6.07420
     2020.85420         9.99887         6.06299
     2020.85694        12.10375         6.27275
     2020.85968         8.24963         6.12132
     2020.86242        11.13451         6.05513
     2020.86516         9.27239         6.38829
     2020.86789         7.04627         6.32435
     2020.87063        18.79615         6.11795
     2020.87337        17.59503         6.15048
     2020.87611        12.71491         6.13926
     2020.87885        14.06679         6.21554
     2020.88158        10.14367         6.11683
     2020.88432         7.09555         6.13366
     2020.88706         4.16344         6.50383
     2020.88980         6.53232         6.12580
     2020.89253         5.15120         6.03719
     2020.89527         9.52208         6.31874
     2020.89801         4.19196         6.37146
     2020.90075         7.38084         6.08991
     2020.90349        17.17472         6.12693
     2020.90622        16.43160         6.06635
     2020.90896         7.74548         6.15721
     2020.91170         9.58436         6.35800
     2020.91444        12.54724         6.23686
     2020.91718         4.02212         6.09439
     2021.06068         8.91189        14.27522
     2021.06228        -1.94420         6.01363
     2021.06502       -11.69332         6.04504
     2021.06776       -21.40944         6.01251
     2021.07049       -12.01755         6.00017
     2021.07323        -8.47567         6.03719
     2021.07871        -4.64391         6.12693
     2021.08145         2.05397         6.35239
     2021.08418        -3.08215         6.03494
     2021.08692        -2.39727         6.02485
     2021.08966        -6.06439         6.02597
     2021.09240        -7.16951         5.91492
     2021.09514       -20.41063         6.31762
     2021.09787         2.98525         6.13029
     2021.10061        12.62713         6.01139
     2021.10335        -0.43299         5.96540
     2021.10609        -2.50911         5.93399
     2021.10882        -3.33122         5.94184
     2021.11156        -8.54134         5.95418
     2021.11430        -6.37146         5.92838
     2021.11704       -10.38358         5.95193
     2021.11978       -20.79470         5.93960
     2021.12525         0.48406         6.16506
     2021.12799        -6.80806         5.99905
     2021.13073        -6.15818         5.96988
     2021.13347        -1.92830         6.13814
     2021.13620         0.25158         6.08879
     2021.13894        -6.63154         6.02933
     2021.14168        -4.00966         6.04616
     2021.14442         2.95623         6.02597
     2021.14715         7.99211         6.00241
     2021.14989        -1.23601         5.98446
     2021.15263        -5.65613         6.15609
     2021.15537         6.61975         6.08766
     2021.15811        -0.55737         6.22676
     2021.16084        -0.45049         6.11683
     2021.16358         1.02539         6.08318
     2021.16632         2.63927         6.12356
     2021.16906         6.16715         5.99793
     2021.17180         2.31303         5.95754
     2021.17453        -1.11109         6.09439
     2021.17727         2.69379         6.11683
     2021.18001         4.06568         6.10000
     2021.18822       -10.07968         5.89585
     2021.19096        -1.95080         5.89024
     2021.19370         0.34208         6.04167
     2021.19644        -6.12304         5.95530
     2021.19917        -5.59316         5.93062
     2021.20191        -5.29128         5.92389
     2021.20465        -0.66040         5.92389
     2021.20739        -7.49852         5.96876
     2021.21013         0.55636         6.11234
     2021.21286        -1.69076         6.15273
     2021.21560         0.35512         5.89809
     2021.21834        -1.39199         5.91716
     2021.22108        -0.60311         5.91604
     2021.22381        -1.12623         5.96427
     2021.22655        -3.85535         5.94745
     2021.22929         3.75953         5.91604
     2021.23203        -2.83159         5.90370
     2021.23477        -0.39071         5.90033
     2021.23750        -4.38183         5.91380
     2021.24024         3.10105         5.91267
     2021.24298         2.00993         5.90931
     2021.24572        -6.62519         5.88575
     2021.24846        -7.78731         6.06635
     2021.25119         0.81857         5.92501
     2021.25393        -2.18954         5.94184
     2021.25667        -4.86466         5.95530
     2021.25941        -2.13678         5.94408
     2021.26214         1.32310         5.89473
     2021.26488       -20.39902         5.89585
     2021.26762       -13.60114         6.04728
     2021.27036        -2.31826         6.12805
     2021.27310        -4.11538         6.03831
     2021.27583        -6.04250         6.03943
     2021.27857        -3.58562         6.12693
     2021.28131        -5.76974         6.04840
     2021.28405        -4.98986         6.04953
     2021.28679        -0.72498         6.02709
     2021.28952         1.16090         6.00690
     2021.29226        -4.05921         5.99120
     2021.29500         3.10467         5.96652
     2021.29774         1.24855         6.21106
     2021.30047        -2.86757         6.05513
     2021.30321         2.29931         6.08093
     2021.30595         0.65619         6.21779
     2021.30869         8.09807         6.23686
     2021.31143         4.11195         6.04728
     2021.31416         4.17283         6.04840
     2021.31690         2.76471         6.08318
     2021.31964        -0.17841         6.18077
     2021.32238        -3.80053         6.18638
     2021.32512        -4.49465         6.07757
     2021.32785         1.14024         6.18750
     2021.33059         5.31212         6.03270
     2021.33333         3.78500         6.04504
     2021.33607         2.15488         6.03606
     2021.33880         0.22176         6.00017
     2021.34154        -0.36936         6.15385
     2021.34428        -1.19948         6.23461
     2021.34702        -2.30560         6.08093
     2021.34976         3.17928         6.05850
     2021.35249        -0.36784         6.04392
     2021.35523         0.79704         6.01924
     2021.35797        -2.13608         6.09103
     2021.36071         2.59680         6.02485
     2021.36344        -1.76332         6.06859
     2021.36618        -3.93543         6.01139
     2021.36892        -8.25555         6.05626
     2021.37166         0.07633         6.02821
     2021.37440        -4.79779         6.11234
     2021.37713       -22.51491         6.15160
     2021.37987         0.46397         6.11683
     2021.38261        -3.15015         6.37932
     2021.38535        -6.26127         6.27836
     2021.38809        -8.50139         6.18974
     2021.39082        -1.08451         6.09103
     2021.39356         2.65137         6.03382
     2021.39630         0.82725         5.99456
     2021.39904        -5.51187         6.00017
     2021.40177         1.47202         6.03270
     2021.40451         3.13690         6.13253
     2021.40725         0.50078         5.98110
     2021.40999        -1.76034         6.00578
     2021.41273        -0.05546         6.12917
     2021.41546        -3.48858         6.12132
     2021.41820        -9.47870         6.09776
     2021.42094         2.82918         5.99905
     2021.42368         5.92106         6.13478
     2021.42642         1.23694         6.03719
     2021.42915         2.06682         6.01475
     2021.43189         3.22670         6.06972
     2021.43463        -2.10242         6.04504
     2021.43737         2.10746         6.05065
     2021.44010        -4.50265         6.15385
     2021.44284        -6.36177         6.18189
     2021.44558         4.11811         6.17740
     2021.44832         5.22799         6.26490
     2021.45106         0.28187         6.21442
     2021.45379         4.39075         6.22564
     2021.45653         2.63263         6.16282
     2021.45927        -0.97549         6.05626
     2021.46201        -2.02861         6.07196
     2021.46475         2.17827         6.08654
     2021.46748         2.36115         6.00129
     2021.47022       -11.29497         6.40287
     2021.47296         4.49591         6.05065
     2021.47570        -1.92820         6.04953
     2021.47843         4.33768         6.10561
     2021.48117        -2.66644         6.00578
     2021.48391        -8.81056         6.02933
     2021.48665        -5.18268         5.98559
     2021.48939        -1.26280         6.02933
     2021.49212        -6.56092         6.07869
     2021.49486        -4.14104         6.26714
     2021.49760         2.48084         6.44886
     2021.50034        -6.22628         6.10561
     2021.50308        -5.65740         6.03494
     2021.50581       -15.27852         6.05177
     2021.50855        -5.90964         6.00017
     2021.51129        -4.32575         6.01363
     2021.51403        -3.97387         5.96876
     2021.51676        -3.28499         6.01026
     2021.51950        -3.71611         6.13478
     2021.52224         0.52977         6.04167
     2021.52498         0.40865         5.99007
     2021.52772         5.65053         6.01475
     2021.53045        -0.74959         6.03158
     2021.53319        -4.00571         6.02597
     2021.53593        -6.77383         6.14712
     2021.53867         2.50405         6.38717
     2021.54141         1.63093         6.15385
     2021.54414        -5.16219         6.12356
     2021.54688        -5.65631         6.02709
     2021.54962         1.78858         6.08991
     2021.55236         1.38946         6.07420
     2021.55509         3.53034         6.12356
     2021.55783        -5.95178         6.24583
     2021.56057         1.95910         6.10673
     2021.56331        -1.49102         6.02933
     2021.56605         0.76186         6.12917
     2021.56878        -3.33926         6.05177
     2021.57152        -6.18538         6.02597
     2021.57426        -4.30350         6.04728
     2021.57700        -5.29762         6.15385
     2021.57974        -6.10874         6.07645
     2021.58247       -12.43686         6.04840
     2021.58521        -7.75097         6.04840
     2021.58795       -10.15809         6.12244
     2021.59069        -4.17821         6.11234
     2021.59342       -12.09733         6.37483
     2021.59616       -10.93545         6.29855
     2021.59890         1.74743         6.16619
     2021.60164        -0.19769         6.05065
     2021.60438        -7.67481         6.05738
     2021.60711        -4.63293         6.16506
     2021.60985       -13.29605         6.06299
     2021.61259        -6.62417         6.01251
     2021.61533       -11.24129         6.01587
     2021.61807        -3.87941         6.07196
     2021.62080       -19.08653         6.22003
     2021.62354        -2.12264         6.12468
     2021.62628        -7.94076         6.01475
     2021.62902        -2.47988         6.09552
     2021.63175        -9.11300         6.21106
     2021.63449        -0.13512         6.16282
     2021.63723         1.56476         6.35239
     2021.63997        -5.09636         6.13926
     2021.64271        -4.90848         6.08879
     2021.64544        -6.10360         5.98895
     2021.64818        -2.33172         6.02933
     2021.65092        -8.65784         6.04167
     2021.65366        -5.15096         6.04504
     2021.65639        -4.91408         6.17179
     2021.65913        -1.28119         5.99232
     2021.66187         1.05169         6.00802
     2021.66461        -5.59043         6.00129
     2021.66735        -2.70855         6.02373
     2021.67008        -7.40367         6.12244
     2021.67282        -4.13379         6.28733
     2021.67556        -5.28691         6.56104
     2021.67830        -0.81203         6.14263
     2021.68104         2.42085         6.15273
     2021.68377        -9.25727         6.23798
     2021.68651        -5.03739         6.14936
     2021.68925        -4.52651         6.16394
     2021.69199         1.61237         6.06411
     2021.69472        -2.73875         6.20320
     2021.69746         0.54214         6.00802
     2021.70020         1.13802         6.12244
     2021.70294        -4.28710         6.09215
     2021.70568        -1.28822         6.01363
     2021.70841         3.82666         6.03831
     2021.71115        -0.50546         6.05401
     2021.71389         7.52442         6.18974
     2021.71663        -3.02870         6.04055
     2021.71937        -3.67282         6.04616
     2021.72210       -12.02494         6.05850
     2021.72484        -3.55906         6.08206
     2021.72758        -1.78918         6.07869
     2021.73032        -8.36630         6.34230
     2021.73305        -2.91041         6.09552
     2021.73579         3.78547         6.34566
     2021.73853         4.81935         6.26041
     2021.74127         3.83623         6.07757
     2021.74401        -3.06889         6.13590
     2021.74674         2.73899         6.33669
     2021.74948        -0.37813         6.10000
     2021.75222         2.19975         6.06186
     2021.75496         5.63863         6.04279
     2021.75770         1.52751         5.99680
     2021.76043         4.88939         6.02373
     2021.76317        -0.23673         6.04167
     2021.76591        -1.79985         6.00017
     2021.76865        -3.49797         6.04616
     2021.77138        -2.25708         6.23237
     2021.77412         3.54280         6.20208
     2021.77686         3.81868         6.13141
     2021.77960         9.40956         6.28172
     2021.78234         2.40944         6.00690
     2021.78507        15.29132         6.01251
     2021.78781         4.20220         6.06299
     2021.79055         1.84308         6.19199
     2021.79329         1.30396         6.04616
     2021.79603         3.22784         6.02373
     2021.79876         7.51772         6.08542
     2021.80150        11.38660         6.18526
     2021.80424         5.96148         6.17516
     2021.80698         5.42637         6.15721
     2021.80971         3.82925         6.12019
     2021.81245        12.48313         6.15497
     2021.81519        11.40701         6.06972
     2021.81793         7.32189         6.05626
     2021.82067         5.03577         6.17965
     2021.82340         8.61065         6.01812
     2021.82614         8.68453         6.00017
     2021.82888         7.19941         5.99120
     2021.83162         4.53929         6.00802
     2021.83436         3.05717         6.12019
     2021.83709         4.73505         6.15273
     2021.83983        -9.43107         6.10786
     2021.84257         1.47281         6.20320
     2021.84531        -6.24530         6.13702
     2021.84804         0.37058         6.04279
     2021.85078        -4.29354         6.16619
     2021.85352        -6.57766         6.00914
     2021.85626        -1.35778         6.06299
     2021.85900         0.54110         6.09664
     2021.86173        -0.62902         6.20545
     2021.86447         1.60586         6.28846
     2021.86721         1.67574         6.23573
     2021.86995        10.39762         6.33332
     2021.87269        11.80350         6.13814
     2021.87542         9.13638         6.18638
     2021.87816         2.31026         5.97886
     2021.88090        -1.08685         5.97773
     2021.88364        -1.94997         6.00017
     2021.88637         2.73791         6.04279
     2021.88911         1.50379         6.05850
     2021.89185        -1.22233         6.17067
     2021.89459        -2.38345         6.02709
     2021.89733        -2.78557         6.05401
     2021.90006        -6.28069         6.10000
     2021.90280        -4.64481         6.01251
     2021.90554        -3.15493         6.08430
     2021.90828         8.78695         6.07084
     2021.91102         5.45283         6.00017
     2021.91375         3.79471         6.05177
     2021.91649         4.20460         6.08542
     2021.91923         3.26148         6.06299
     2021.92197        -7.61664         6.27051
     2021.92470        -3.90576         5.99456
     2021.92744        -7.20388         6.12693
     2021.93018        -7.45700         6.07533
     2021.93292         6.23488         6.22564
     2021.93566        12.49076         6.23573
     2021.93839        -0.49936         6.10113
     2021.94387         8.03640         5.99344
     2021.94935        -9.13084         5.98895
     2021.95208        -1.21696         6.02260
     2021.95482        -0.89607         6.27051
     2021.95756        -2.34419         6.10561
     2021.96030        -2.75431         6.11683
     2021.96303       -15.52643         6.12693
     2021.96577       -10.87755         6.03719
     2021.96851        -7.21567         5.96988
     2021.97125        -3.65079         6.03494
     2021.97399        -6.19991         5.97886
     2021.97672         3.74797         6.05289
     2021.97946         2.62085         5.98783
     2021.98220         3.61473         6.01139
     2021.98494         7.46761         6.01812
     2021.98767         4.26549         5.97437
     2021.99041        -5.33862         6.02260
     2021.99315        -7.12474         6.00802
     2021.99589         4.63914         6.02148
     2021.99863        -6.46498         5.99905
     2022.00136       -23.76810         6.90990
     2022.00410        -0.89722         6.34566
     2022.00684        -6.34234         6.02260
     2022.00958        -5.84446         6.05850
     2022.01232       -18.50158         6.05850
     2022.01505        -6.99670         6.40624
     2022.01779         2.47818         6.02373
     2022.02053        -0.91994         6.06635
     2022.02327       -16.46506         6.50046
     2022.02600        -0.59318         6.08766
     2022.02874        -0.27529         6.12468
     2022.03148       -13.81341         6.13814
     2022.03422        -8.24653         6.01699
     2022.03696        -9.48365         6.23910
     2022.03969        -9.08377         6.15609
     2022.04243        -3.72889         6.38829
     2022.04517         5.43199         6.20769
     2022.04791         0.53287         6.09439
     2022.05065        -5.19325         6.09888
     2022.05338        -3.93337         6.23012
     2022.05612        -7.19049         6.17516
     2022.05886        -9.97061         6.12244
     2022.06160        -5.42973         6.17067
     2022.06433        -0.88684         6.08654
     2022.06707        -6.90796         6.09103
     2022.06981        -1.12308         6.03046
     2022.07255        -8.96920         6.05177
     2022.07529        -4.83032         6.05626
     2022.07802        -0.58444         6.05513
     2022.08076        -3.43856         6.03158
     2022.08350         1.53632         6.02597
     2022.08624        -5.06580         6.13253
     2022.08898       -15.01692         6.14599
     2022.09171        -3.82704         6.08093
     2022.09445        -6.90916         6.13478
     2022.09719        -5.85928         6.10113
     2022.09993         1.47860         6.39951
     2022.10266        -2.12951         6.30640
     2022.10540         3.09637         6.21779
     2022.10814        12.21525         6.17179
     2022.11088         7.71513         6.05962
     2022.11362         5.27001         5.99120
     2022.11635         2.23689         6.05065
     2022.11909         1.87077         6.05065
     2022.12183         2.76865         6.05065
     2022.12457        -4.65047         6.18077
     2022.12731        -2.58359         6.05177
     2022.13004        -5.39171         6.05738
     2022.13278        -1.90283         6.03382
     2022.13552        -3.62395         6.08318
     2022.14647       -19.72942         6.09215
     2022.14921       -14.81654         6.29631
     2022.15195        -4.08066         6.28172
     2022.15468        -3.18878         6.21218
     2022.15742         4.49810         6.07869
     2022.16016         3.77898         6.04504
     2022.16290         2.72984         6.12132
     2022.16564         7.86874         6.07308
     2022.16837         5.94962         6.30640
     2022.17111         5.08450         6.03943
     2022.17385         4.28638         6.02933
     2022.17659         8.98727         6.02485
     2022.17932         3.35015         6.07084
     2022.18206         0.17603         6.05850
     2022.18480        -0.62909         6.02485
     2022.18754         2.84079         6.06747
     2022.19028       -25.47933         6.25368
     2022.19301         3.64955         6.12132
     2022.19575         8.91943         6.06859
     2022.19849        -0.38569         6.07981
     2022.20123         7.55119         6.10337
     2022.20397         8.75507         6.06859
     2022.20670         8.75995         6.20096
     2022.20944         9.35183         6.25705
     2022.21218       -11.03628         6.10113
     2022.21492       -19.67540         6.03606
     2022.21765         0.22448         6.09327
     2022.22039         3.16036         6.17628
     2022.22313         6.24224         6.03831
     2022.22587        -1.55088         6.14263
     2022.22861         6.31100         6.18301
     2022.23134         3.48488         6.05401
     2022.23408         9.71276         6.02597
     2022.23682         4.90964         6.17740
     2022.23956         2.29052         6.09776
     2022.24230         1.82940         6.17404
     2022.24503         4.42328         6.10561
     2022.24777         6.56017         6.10673
     2022.25051       -20.07895         6.06411
     2022.25325         1.88393         6.06972
     2022.25598         8.13181         6.08542
     2022.25872       -13.86831         6.16506
     2022.26146         0.05357         6.05513
     2022.26420         1.04545         6.07645
     2022.26967        -0.11879         6.02709
     2022.27241         1.26409         6.06299
     2022.27515         6.80597         6.12132
     2022.27789         5.29485         5.96764
     2022.28062        -7.09427         5.96876
     2022.28336         6.02261         6.04279
     2022.28610         1.14850         6.26041
     2022.28884        -1.18262         6.15497
     2022.29158        -1.43374         5.99680
     2022.29431        -0.65886         6.10113
     2022.29705         6.13102         6.11122
     2022.29979         7.61290         6.08879
     2022.30253         4.56478         6.17292
     2022.30527         1.29866         6.04840
     2022.30800        -0.64946         6.04167
     2022.31074        -0.20858         6.01924
     2022.31348         0.78530         6.09888
     2022.31622        -3.46782         6.08206
     2022.31895       -11.53794         6.16843
     2022.32169        -0.72205         6.13702
     2022.32443        -2.86317         5.94857
     2022.32717        -3.88129         5.99905
     2022.32991        -1.97841         6.04953
     2022.33264        -4.24353         6.11571
     2022.33538        -0.22065         6.20096
     2022.33812         0.74123         6.17740
     2022.34086         1.28611         6.01363
     2022.34360         0.18399         6.02260
     2022.34633         1.25487         6.04279
     2022.34907         4.04375         6.01699
     2022.35181         3.36563         5.99120
     2022.35455         4.03151         5.94633
     2022.35728         0.59639         5.96315
     2022.36002         0.94228         6.02485
     2022.36276         1.10316         6.01587
     2022.36550        -0.89196         6.00578
     2022.36824         0.98492         5.94745
     2022.37097        -1.36420         6.00353
     2022.37371        -4.86132         6.00690
     2022.37645        -3.84644         6.01699
     2022.37919         6.71244         6.18974
     2022.38193        -3.81868         6.16170
     2022.38466        -2.75480         5.92501
     2022.38740       -14.56392         5.97549
     2022.39014         0.37496         6.04840
     2022.39288         0.04984         6.07645
     2022.39561        -7.05327         6.11122
     2022.39835        -0.04139         6.11010
     2022.40109        -0.53851         6.22676
     2022.40383         3.11737         6.00017
     2022.40657         8.14625         5.99120
     2022.40930        -0.78287         6.13478
     2022.41204         8.96101         6.12580
     2022.41478         0.61389         6.00690
     2022.41752         1.57377         6.10337
     2022.42026        -8.52235         6.16058
     2022.42299         4.04453         6.01924
     2022.42573         5.22241         6.18189
     2022.42847        -0.99971         6.10449
     2022.43121         3.54017         6.20769
     2022.43394         8.46506         6.24246
     2022.43668       -11.52506         6.13029
     2022.43942        -1.57618         6.13029
     2022.44216         2.63270         6.08430
     2022.44490        12.38758         6.14151
     2022.44763        14.98946         5.94184
     2022.45037         3.92634         5.97661
     2022.45311        -2.42578         5.98334
     2022.45585         2.43310         5.97437
     2022.45859       -13.80402         5.99680
     2022.46132        -3.28514         5.94745
     2022.46406         1.83974         6.00802
     2022.46680        -0.63638         6.04953
     2022.46954         3.56451         6.04279
     2022.47227       -12.30961         5.97325
     2022.47501        11.52727         5.93174
     2022.47775        -3.18885         6.08093
     2022.48049        -0.95497         5.96540
     2022.48323        12.86191         5.99007
     2022.48596        15.33179         5.96876
     2022.48870        -4.76433         6.09552
     2022.49144         1.46755         5.95081
     2022.49418         8.36543         6.08206
     2022.49692         5.20831         5.99456
     2022.49965        -0.43381         6.11459
     2022.50239       -16.70793         6.01812
     2022.50513         5.47195         6.26602
     2022.50787        15.99384         6.25144
     2022.51060        -0.76728         6.07196
     2022.51334        -3.90140         6.01363
     2022.51608        -5.73052         6.04504
     2022.51882        -8.88264         5.99232
     2022.52156        -4.50676         6.12019
     2022.52429         4.20312         6.01699
     2022.52703         2.97900         6.06972
     2022.52977        10.94788         6.05850
     2022.53251        -9.81624         6.13478
     2022.53525         1.60764         6.15385
     2022.53798        -1.23748         5.93847
     2022.54072        -5.74360         5.94633
     2022.54346        -8.82071         6.14151
     2022.54620        -5.23383         6.00690
     2022.54893         2.24005         6.00914
     2022.55167         1.57393         5.95193
     2022.55441        -0.77219         6.11010
     2022.55715         5.16069         5.99905
     2022.55989       -10.98743         6.11122
     2022.56262        -2.12855         6.07308
     2022.56536       -19.00267         5.92389
     2022.56810        -1.01279         5.94296
     2022.57084        -1.78691         5.98783
     2022.57357         6.82497         6.09552
     2022.57631        -7.60715         5.91267
     2022.57905       -14.15326         6.06411
     2022.58179         0.92362         6.06747
     2022.58453         7.92050         6.23237
     2022.58726        -5.73762         6.10673
     2022.59000         1.64426         6.07981
     2022.59274        -8.01686         5.93399
     2022.59548        -6.36598         5.97213
     2022.59822       -15.54510         6.03270
     2022.60095       -16.63822         6.00914
     2022.60369        -5.86034         5.95754
     2022.60643        -0.89346         6.03270
     2022.60917        -5.12458         6.20993
     2022.61190         2.39730         6.04167
     2022.61464         1.00818         5.91267
     2022.61738        -0.11793         6.00914
     2022.62012       -17.00405         6.27163
     2022.62286        -1.90217         5.97325
     2022.62559         0.13571         5.94520
     2022.62833        -4.98741         5.94745
     2022.63107         0.72847         6.00802
     2022.63381         4.84035         5.92277
     2022.63655         3.82823         5.89473
     2022.63928         2.59511         5.94745
     2022.64202         5.44299         6.36473
     2022.64476         2.64887         6.16619
     2022.64750         4.03275         5.92277
     2022.65023         5.21863         6.04055
     2022.65297         8.31252         5.88351
     2022.65571         5.64940         5.91492
     2022.65845        -1.46972         5.92053
     2022.66119         7.37116         5.92053
     2022.66392         5.34804         5.90482
     2022.66666         4.79392         5.87453
     2022.66940         5.96580         5.87790
     2022.67214         0.83268         6.17404
     2022.67488        12.16856         6.00017
     2022.67761         7.53944         5.97773
     2022.68035         2.81532         5.96315
     2022.68309        10.20520         5.93960
     2022.68583        17.73008         6.13478
     2022.68856         4.81796         5.96203
     2022.69130         2.90485         6.02485
     2022.69404         0.70873         6.07084
     2022.69678        -1.27739         6.00690
     2022.69952        -4.46851         5.99120
     2022.70225         5.79537         6.09888
     2022.70499         1.33925         6.11795
     2022.70773         0.80413         6.00578
     2022.71047         0.25001         5.84313
     2022.71321         7.06089         5.85322
     2022.71594         4.64877         5.92613
     2022.71868         2.92665         5.82518
     2022.72142         6.77153         5.91380
     2022.72416        -3.21659         6.00129
     2022.72689         3.78230         5.98110
     2022.72963         2.08018         5.90033
     2022.73237         5.43206         5.83079
     2022.73511        -2.45906         5.89360
     2022.73785         0.86982         5.90146
     2022.74058        -0.07330         6.20432
     2022.74332        10.98358         6.10673
     2022.74606         8.49246         5.92389
     2022.74880         4.89034         5.83527
