# ================= DQRFIT RESULTS ================
# INPUT FILE: series/BRNT.rad
# OUTPUT: LDETRENDED
# FILTER FUNCTION: f(t)
# f(t)=+line(t)+annual(t)
# line(t)=+P 1+P 2*t
# annual(t)=+P 3*sin(2*pi*t+P 4)
# heav(t)=(t<0?0:1)
# TOTAL OBSERVATIONS MTOT= 1516
# INITIAL TIME INTERVAL= 2022.7488 - 2018.5496 =  4.1992
# TOTAL OBSERVATIONS AFTER PREFILTER M= 1513
# TIME-SPAN= 2022.7488 - 2018.5496 =  4.1992
# OBSERVATIONS: USED M=  1513 REJECTED MTOT-M=     3 %USED=   99.8021
# N=  4 PARAMETERS
# MAXSIG= 175.00000
# MAXRES=  21.22548
# SCALE FACTOR FOR LENGTHS: SCL=  10.00000
# SCALE FACTOR FOR SIGMAS: SCLSIG=   1.00000
# CHI^2=   1818.505 DOF=  1509 CHI^2/DOF=   1.20511
# RMS=      6.144 SDEV=      6.146 MEAN=    0.04086
#  P #       PARAMETER +-    SIGMA %error PARAMETER NAME
# P 1 =      3634.78085 +-  264.136   7.27 YZERO                              
# P 2 =        -1.80366 +-    0.131   7.25 SLOPE                              
# P 3 =         4.79941 +-    0.221   4.60 ANNUAL AMPLITUDE                   
# P 4 =        -3.01032 +-    0.064   2.14 ANNUAL PHASE                       
#       T            LDETRENDED       SIG_OBS
     2018.54960         5.77480         9.69004
     2018.55797        -3.90611        10.62754
     2018.55989         1.17634         6.06959
     2018.56262         2.69628         5.95103
     2018.56536         6.43222         5.94664
     2018.56810         6.88015         5.89394
     2018.57084         1.81709         5.92578
     2018.57357         2.96503         6.05312
     2018.57631         0.82797         6.13436
     2018.57905         0.65991         6.22877
     2018.58179        13.14585         6.16290
     2018.58453        10.67678         6.02677
     2018.58726        13.89672         6.02787
     2018.59000         6.39766         5.90382
     2018.59274         3.30760         5.95981
     2018.59548         3.02854         5.85662
     2018.59822         5.09347         5.79624
     2018.60095         6.35541         5.80832
     2018.60369         6.05235         5.97847
     2018.60643         3.53129         5.90053
     2018.60917         3.81523         5.94664
     2018.61190         8.51117         5.97518
     2018.61464         7.79610         5.83247
     2018.61738         9.44404         5.89065
     2018.62012         9.81098         5.83027
     2018.62286        12.22492         6.02348
     2018.62559        12.47686         6.15631
     2018.62833         5.07079         5.87967
     2018.63107         6.11173         5.86430
     2018.63381         7.15067         6.11021
     2018.63655        10.16961         5.88955
     2018.63928         3.16455         6.20681
     2018.64202         8.26948         6.12997
     2018.64476        11.73642         5.94444
     2018.64750         1.64936         5.88187
     2018.65023        12.92030         6.09264
     2018.65297        11.69524         5.89614
     2018.65571         3.13218         5.82808
     2018.65845         7.69211         5.88955
     2018.66119         3.87705         5.82808
     2018.66392        16.08799         6.05093
     2018.66666         5.34993         5.89504
     2018.66940         4.55787         5.87967
     2018.67214         6.38480         5.85113
     2018.67488         8.04474         5.91590
     2018.67761         8.43168         5.89614
     2018.68035         5.19362         6.02787
     2018.68309        -1.34044         6.01909
     2018.68583         6.74250         5.93237
     2018.68856         8.28743         5.99713
     2018.69130        13.54437         5.87528
     2018.69404         7.44831         6.11899
     2018.69678         8.67625         5.93346
     2018.69952         3.31219         5.91810
     2018.70225         0.95812         6.04324
     2018.70499         8.71906         5.93017
     2018.70773         6.58000         5.97738
     2018.71047         0.42094         5.86760
     2018.71321         0.81688         5.84125
     2018.71594         7.34782         5.90053
     2018.71868        -1.51925         5.88736
     2018.72142        -1.67231         5.95542
     2018.72416         3.40863         6.03007
     2018.72689         0.93057         5.90712
     2018.72963         2.82551         5.95542
     2018.73237        -1.90156         5.89614
     2018.73511         2.24438         5.97408
     2018.73785         0.64332         5.97628
     2018.74058        -0.11774         5.84235
     2018.74332         4.73220         5.89065
     2018.74606         0.47013         5.90053
     2018.74880         3.21207         5.86870
     2018.75154         4.17601         5.99384
     2018.75427         7.34395         5.96201
     2018.75701         3.87189         6.07398
     2018.75975        -1.15017         5.80283
     2018.76249         1.89376         5.90053
     2018.76522         4.11370         6.03226
     2018.76796         3.81664         5.89943
     2018.77070        13.31958         6.01580
     2018.77344        -1.47148         5.85113
     2018.77618         6.97445         5.86760
     2018.77891         8.69439         6.05641
     2018.78165        13.72433         6.10801
     2018.78439         0.70127         5.84125
     2018.78713         0.25921         5.84674
     2018.78987        -5.52185         5.91590
     2018.79260         0.48408         5.97518
     2018.79534         5.66202         5.90602
     2018.79808         2.32396         5.92688
     2018.80082         2.34790         5.83247
     2018.80355         4.99184         5.82149
     2018.80629         7.85277         6.08276
     2018.80903         6.12271         6.08605
     2018.81177         9.69365         6.28695
     2018.81451         5.96059         5.89175
     2018.81724         4.90353         5.90492
     2018.81998         7.42046         5.91700
     2018.82272         6.37240         6.03665
     2018.82546         7.09834         6.01470
     2018.82820         0.35928         5.88516
     2018.83093         1.91622         5.84454
     2018.83367        12.35916         5.94005
     2018.83641         5.53409         6.15741
     2018.83915        10.04803         5.97628
     2018.84188         2.04097         6.05751
     2018.84462         5.69891         5.93017
     2018.84736         9.01585         5.91370
     2018.85010         0.12378         5.85662
     2018.85284         1.19172         5.91370
     2018.85557        -4.34334         5.93346
     2018.85831         3.38660         5.96420
     2018.86105        -1.41646         5.94115
     2018.86379         0.68848         6.05202
     2018.86653         2.40541         5.91590
     2018.86926        -6.40265         6.00153
     2018.87200        -3.07671         5.89614
     2018.87474         0.49723         5.93237
     2018.87748         4.13917         6.10142
     2018.88021         1.86310         5.99274
     2018.88295         4.21304         6.10691
     2018.88569         0.66598         6.02238
     2018.88843        14.67292         6.13545
     2018.89117         5.98886         6.15961
     2018.89390        10.90980         6.09923
     2018.89664         6.17373         6.30451
     2018.89938        -0.85533         6.06300
     2018.90212        -0.46739         6.00262
     2018.90485         2.78855         6.11460
     2018.90759        -9.27451         6.02348
     2018.91033         0.34742         6.01250
     2018.91307         8.30436         6.13875
     2018.91581         1.33630         6.00811
     2018.91854         1.29924         6.05641
     2018.92128        -3.70082         6.06300
     2018.92402        -5.72889         6.01470
     2018.92676        -1.74395         6.03665
     2018.92950        -1.59701         6.03226
     2018.93223        -5.84407         6.16400
     2018.93497        -3.42813         6.06081
     2018.93771        -3.65419         6.04983
     2018.94045         0.93474         6.03775
     2018.94318         4.58868         5.88736
     2018.94592         9.29562         6.12228
     2018.94866         4.73056         6.03775
     2018.95140        12.97950         6.10581
     2018.95414         7.71143         5.99384
     2018.95687         9.81737         5.97408
     2018.95961         9.28931         6.03885
     2018.96235         4.81625         6.04873
     2018.96509         7.25019         6.10801
     2018.96783         1.94013         6.01909
     2018.97056         8.28606         6.11130
     2018.97330        -0.37300         5.95432
     2018.97604        -0.55306         6.07069
     2018.97878        -9.41812         5.93456
     2018.98151       -14.05518         5.90822
     2018.98425        -1.27825         6.11899
     2018.98699       -11.59331         6.08715
     2018.98973        -8.59837         6.03995
     2018.99247       -10.29343         6.12448
     2018.99520       -11.40049         6.12887
     2018.99794        -6.09556         6.06849
     2019.00068        -9.27762         6.01580
     2019.00342        -3.15568         6.03007
     2019.00616        -3.51474         6.07727
     2019.00889        -2.24480         6.01031
     2019.01163         0.87614         5.97518
     2019.01437         8.09207         6.04105
     2019.01711        13.12401         5.99933
     2019.01984        -3.23205         5.99933
     2019.02258        -6.73211         6.09813
     2019.02532        -3.96517         6.05641
     2019.02806        -6.11124         6.04873
     2019.03080        -1.63630         6.03775
     2019.03353        -6.63836         5.88626
     2019.03627       -10.83642         5.96310
     2019.03901        -3.39848         5.95432
     2019.04175        -4.03854         5.97847
     2019.04449        -4.06061         5.98506
     2019.04722        -4.84267         5.99165
     2019.04996       -25.94173         6.08605
     2019.05270       -14.41079         6.20461
     2019.05544        -3.60485         6.03556
     2019.05817        -3.94192         6.16729
     2019.06091       -21.01598         6.07837
     2019.06365        -1.76704         6.01470
     2019.06639        -3.15310         6.08825
     2019.06913        -3.27316         6.08715
     2019.07186        -4.99922         6.01470
     2019.07460        -2.44329         5.89614
     2019.07734        -3.32835         5.85991
     2019.08008        -4.07241         5.87638
     2019.08282        -4.18347         6.05202
     2019.08555         1.45247         5.94883
     2019.08829        -3.52660         5.86760
     2019.09103        -7.80466         5.85113
     2019.09377        -4.13872         5.96091
     2019.09650         9.17322         5.99055
     2019.09924         2.57016         5.89614
     2019.10198        -2.69191         5.91919
     2019.10472        -3.89497         5.85333
     2019.10746        -2.43903         5.94005
     2019.11019         0.35291         5.91151
     2019.11293         5.13085         6.09045
     2019.11567         6.05879         6.21779
     2019.11841        12.92472         5.88955
     2019.12115        11.45066         6.08166
     2019.12388        16.01160         6.17937
     2019.12662         1.36054         6.01360
     2019.12936        -4.75452         6.00482
     2019.13210        -4.14059         5.95652
     2019.13483         1.28435         5.97189
     2019.13757         0.46129         6.00701
     2019.14031         2.83323         5.99823
     2019.14305        -1.29683         6.02677
     2019.14579        -7.93189         5.88955
     2019.14852       -11.89296         5.88955
     2019.15126        -2.49702         5.95322
     2019.15400        -8.64808         5.96201
     2019.15674       -12.47114         5.97189
     2019.15948        -4.94520         5.93237
     2019.16221        -7.88927         6.00482
     2019.16495        -5.23433         5.87967
     2019.16769       -11.94939         5.90163
     2019.17043        -8.10145         5.89394
     2019.17316        -8.32551         6.03556
     2019.17590       -11.64158         5.90602
     2019.17864        -1.30364         5.98396
     2019.18138        -0.73170         5.93237
     2019.18412       -10.37776         5.96201
     2019.18685        -6.49782         5.94334
     2019.18959        -8.85588         5.91261
     2019.19233        -4.62795         5.91480
     2019.19507       -10.04201         5.94664
     2019.19780       -12.30507         5.93346
     2019.20054       -11.26313         6.05861
     2019.20328       -19.42419         5.94444
     2019.20602       -14.62226         5.94664
     2019.20876       -14.76432         5.94115
     2019.21149       -10.27438         5.97079
     2019.21423        -4.88544         5.99165
     2019.21697        -7.43750         5.94774
     2019.21971       -10.45256         6.10472
     2019.22245        -9.54563         5.86321
     2019.22518       -25.62869         5.84894
     2019.22792       -10.76075         5.90822
     2019.23066        -5.72681         6.02019
     2019.23340        -4.63987         5.98067
     2019.23613       -13.83994         5.95322
     2019.23887       -12.51500         5.88077
     2019.24161       -12.49306         6.05861
     2019.24435       -12.07912         6.05312
     2019.24709        -8.50218         6.05532
     2019.24982        -6.38124         5.91480
     2019.25256        -6.96231         6.03775
     2019.25530       -15.68537         5.98725
     2019.25804        -1.18843         5.89724
     2019.26078         1.41351         5.97189
     2019.26351         0.53745         6.11021
     2019.26625        -3.80362         5.92798
     2019.26899        -6.63468         5.98177
     2019.27173        -2.27274         6.66678
     2019.27446        -6.56080         5.85552
     2019.27720        -6.40086         6.01360
     2019.27994        -3.08993         5.90382
     2019.28268        -5.54299         5.97298
     2019.28542         0.53195         5.94115
     2019.28815        -3.01711         5.91480
     2019.29089        -2.93817         5.90712
     2019.29363       -13.68123         5.92029
     2019.29637        -9.91530         6.16509
     2019.29911        -5.75636         6.02019
     2019.30184        -0.80142         6.00262
     2019.30458       -15.73348         5.92358
     2019.30732        -6.52354         5.93237
     2019.31006         0.81439         6.12997
     2019.31279       -13.74867         6.08605
     2019.31553         3.41227         5.97957
     2019.31827         0.50521         5.94554
     2019.32101        -5.67285         5.97298
     2019.32375       -15.69791         6.00482
     2019.32648        -9.27098         5.92139
     2019.32922        -9.13704         5.88406
     2019.33196        -5.72310         6.09484
     2019.33470        -4.95616         6.08605
     2019.33744        -7.90422         5.98835
     2019.34017        -7.43629         5.99384
     2019.34291        -4.50335         5.95981
     2019.34565         0.60059         6.11899
     2019.34839        -6.98047         6.09593
     2019.35112        -8.36953         6.03556
     2019.35386        -7.29860         5.97957
     2019.35660        -4.23166         5.91919
     2019.35934        -1.07072         5.95652
     2019.36208        -1.50478         6.02458
     2019.36481        -1.50284         6.11021
     2019.36755        -9.97090         5.96091
     2019.37029        -1.83397         5.96530
     2019.37303         2.87497         5.93895
     2019.37577        -0.63309         6.07069
     2019.37850        -3.22615         5.87638
     2019.38124         0.63079         5.89394
     2019.38398         0.46272         5.90712
     2019.38672        -4.67934         5.96640
     2019.38945        -7.58240         5.92358
     2019.39219        -0.53346         6.01360
     2019.39493        -1.48252         5.99933
     2019.39767        -5.85858         6.02787
     2019.40041        -1.72365         5.94993
     2019.40314        -0.48071         5.94115
     2019.40588         2.63223         6.00372
     2019.40862        -3.19883         5.93237
     2019.41136        -1.85789         6.06081
     2019.41410        -2.73496         6.04214
     2019.41683        -7.89702         6.02019
     2019.41957         4.07592         6.03117
     2019.42231         1.08286         5.97957
     2019.42505        -1.63120         5.91810
     2019.42778         6.02074         6.05641
     2019.43052         2.47367         6.00482
     2019.43326        -5.46839         6.00262
     2019.43600        -6.91145         6.09154
     2019.43874        -8.99851         6.07288
     2019.44147        -7.49557         6.04983
     2019.44421        -5.74364         6.07837
     2019.44695        -8.60370         6.26609
     2019.44969        -1.21776         6.15521
     2019.45243         2.22218         6.11679
     2019.45516        -2.90988         6.07178
     2019.45790         1.22905         6.07069
     2019.46064         4.86199         6.13985
     2019.46338         8.27793         6.42527
     2019.46611        16.15787         6.49004
     2019.46885         6.06881         6.19473
     2019.47159        -2.42325         6.03117
     2019.47433         4.76268         6.12667
     2019.47707         7.79362         6.03336
     2019.47980         6.76656         6.07178
     2019.48254        -0.69950         6.30341
     2019.48528         0.44044         6.17717
     2019.48802        -4.52663         6.08276
     2019.49076        -3.54669         5.96750
     2019.49349         0.92625         5.92578
     2019.49623         0.01919         6.00592
     2019.49897         3.02213         6.00482
     2019.50171         8.16907         5.92798
     2019.50444        -0.46600         5.85772
     2019.50718        -1.15706         5.92249
     2019.50992         4.06488         5.98945
     2019.51266         2.29482         6.00592
     2019.51540         5.55376         6.06300
     2019.51813         2.21969         5.88626
     2019.52087         0.58963         5.87858
     2019.52361         4.41157         5.92358
     2019.52635        -0.24349         6.08386
     2019.52908         0.49145         6.20571
     2019.53182        -6.44662         6.12997
     2019.53456         3.74632         6.03775
     2019.53730         0.31026         6.05312
     2019.54004        -2.68680         6.13106
     2019.54277        10.87614         6.17058
     2019.54551        12.33708         6.44942
     2019.54825         2.13001         5.88406
     2019.55099        -1.94705         5.91370
     2019.55373         4.37589         6.15302
     2019.55646         3.33883         6.08496
     2019.55920        -7.02823         6.31110
     2019.56194        13.28670         9.33217
     2019.56468         1.08764         6.00153
     2019.56741        -0.45342         5.97628
     2019.57015         1.19252         5.94005
     2019.57289         5.26246         6.10581
     2019.57563        -1.90060         5.92798
     2019.57837         4.93233         6.02238
     2019.58110         2.08327         5.93127
     2019.58384         5.18321         6.14424
     2019.58658         6.07415         5.95981
     2019.58932         5.92509         6.05422
     2019.59206         8.32302         6.06849
     2019.59479         7.27296         6.04434
     2019.59753         5.11290         6.16509
     2019.60027        10.67384         6.20901
     2019.60301         1.55178         6.01470
     2019.60574         7.41672         6.26828
     2019.60848        -2.61435         6.22767
     2019.61122        -8.71741         5.91370
     2019.61396         1.11453         6.06081
     2019.61670         0.80047         5.94664
     2019.61943         7.63141         5.88626
     2019.62217        12.71134         6.14424
     2019.62491         2.86328         6.05751
     2019.62765         4.30022         5.90602
     2019.63039        10.97916         5.87089
     2019.63312        -0.47790         5.92798
     2019.63586         7.92303         5.98835
     2019.63860         6.42497         6.13985
     2019.64407         8.45685         5.94225
     2019.64681         3.85479         6.00592
     2019.64955         4.18773         5.90602
     2019.65229         6.56466         5.90931
     2019.65503         3.46760         6.03226
     2019.65776         2.66854         6.04105
     2019.66050         1.06248         6.37038
     2019.66324         3.46842         6.00372
     2019.66598        -0.54965         6.09045
     2019.66872         2.92629         5.97189
     2019.67145         0.17723         6.00372
     2019.67419         1.97317         5.90382
     2019.67693         4.84511         6.11899
     2019.67967         3.30105         6.29792
     2019.68240        -2.67002         5.97518
     2019.68514         4.62992         5.98177
     2019.68788         1.21586         6.10252
     2019.69062         4.00380         6.02787
     2019.69336         1.26374         6.02677
     2019.69609        -4.10133         5.94883
     2019.69883        -0.06439         5.97408
     2019.70157        -4.68645         5.94883
     2019.70431         7.63349         5.89614
     2019.70705        11.11943         6.07837
     2019.70978         1.61136         5.91810
     2019.71252         2.23630         6.03885
     2019.71526         3.15924         5.90822
     2019.71800         3.93918         6.11350
     2019.72073        -0.30588         6.10362
     2019.72347        -1.81594         5.87858
     2019.72621        -2.40401         5.92907
     2019.72895        12.02293         5.96640
     2019.73169         9.48787         5.94334
     2019.73442         7.86481         6.04873
     2019.73716         4.72875         6.18705
     2019.73990         6.00368         6.12667
     2019.74264         4.36862         5.96969
     2019.74538         2.59656         5.85772
     2019.74811        -4.96350         6.05641
     2019.75085         3.69744         6.00372
     2019.75359        -2.61062         6.17388
     2019.75633         5.86531         6.04324
     2019.75906         4.56025         5.88187
     2019.76180         2.59119         5.86979
     2019.76454         4.36513         6.01470
     2019.76728         6.30707         6.04544
     2019.77002         6.03400         6.05093
     2019.77275        -3.12006         6.07947
     2019.77549         0.47688         6.03226
     2019.77823         3.43082         6.05312
     2019.78097         6.56976         6.00592
     2019.78371        -0.47330         6.09154
     2019.78644         1.71763         6.05202
     2019.78918         5.50057         6.08605
     2019.79192         7.99651         6.15302
     2019.79466        16.18845         6.09593
     2019.79739         2.82039         6.17388
     2019.80013         7.42532         6.00701
     2019.80287         6.78326         6.01141
     2019.80561         8.10320         6.30232
     2019.80835         5.97314         6.08166
     2019.81108        -1.40192         5.98286
     2019.81382        -1.33699         5.97298
     2019.81656        10.45695         6.16509
     2019.81930         0.53889         6.02677
     2019.82203        -0.48217         6.01141
     2019.82477         1.37477         6.12338
     2019.82751        -3.84629         6.00811
     2019.83025        -3.19936         6.12228
     2019.83299         1.55458         6.15851
     2019.83572         1.71652         6.07069
     2019.83846         6.06946         6.04434
     2019.84120         0.38240         6.12777
     2019.84394        -3.85467         6.24304
     2019.84668         0.39927         6.08605
     2019.84941         5.10321         6.13985
     2019.85215         4.13915         6.07178
     2019.85489         1.89609         6.09923
     2019.85763         4.61803         6.13216
     2019.86036        -7.44904         6.07288
     2019.86310         3.87990         6.13216
     2019.86584         5.44084         6.26389
     2019.86858         3.74378         6.12118
     2019.87132        -0.97928         6.15851
     2019.87405         3.15065         6.09593
     2019.87679        -0.44141         6.20901
     2019.87953         9.10353         6.05532
     2019.88227        12.16047         6.10911
     2019.88501         7.81441         5.93127
     2019.88774         6.82834         6.12557
     2019.89048         8.73328         5.96750
     2019.89322         8.54822         5.96530
     2019.89596        10.81316         6.02348
     2019.89869        11.08610         6.00372
     2019.90143         7.91304         5.96640
     2019.90417         1.54097         5.95432
     2019.90691         0.56391         5.94883
     2019.90965         4.66085         5.94334
     2019.91238         7.63579         5.98835
     2019.91512         9.79473         6.15741
     2019.91786         5.23066         5.91480
     2019.92060         6.67060         5.94334
     2019.92334         5.51854         5.97847
     2019.92607         9.04548         5.97738
     2019.92881         6.04542         6.00921
     2019.93155         7.73036         5.98945
     2019.93429         5.93429         5.96969
     2019.93702        -0.91477         5.92578
     2019.93976         1.51817         6.00043
     2019.94250         0.42511         6.02897
     2019.94524       -10.56295         6.05641
     2019.94798        -2.08902         6.13545
     2019.95071         1.19792         6.24633
     2019.95345         2.49286         5.93676
     2019.95619         4.41980         6.09593
     2019.95893         0.74674         6.11789
     2019.96167         0.86768         5.99165
     2019.96440         2.77961         6.12009
     2019.96714        -2.37845         6.21230
     2019.96988         4.97349         6.08715
     2019.97262         3.37443         5.99274
     2019.97535        -0.44863         6.06739
     2019.97809        -7.86470         5.94115
     2019.98083        -0.11276         6.02348
     2019.98357        -6.45582         6.00043
     2019.98631        -1.47788         5.97408
     2019.98904        -2.41294         5.97738
     2019.99178        -1.31201         6.04873
     2019.99452        -4.80407         5.97408
     2019.99726        -2.28513         6.00043
     2020.00000         5.22881         6.15961
     2020.00273        10.25075         6.08166
     2020.00547         1.06669         6.21998
     2020.00821         2.26762         6.24084
     2020.01095        -2.74444         6.08496
     2020.01368       -13.01350         6.09484
     2020.01642        -0.47156         6.14863
     2020.01916         9.11738         6.03556
     2020.02190        -5.83869         6.06849
     2020.02464        -6.28275         6.11130
     2020.02737        -1.59381         6.02348
     2020.03011        -0.69887         5.99933
     2020.03285        -0.85693         6.08496
     2020.03559        -7.69299         5.81600
     2020.03833        -1.08906         5.90163
     2020.04106         0.73188         6.06629
     2020.04352        -2.49169         7.16626
     2020.05201        -3.45937         5.91480
     2020.05475        -0.63343         5.92798
     2020.05749        -3.91549         5.91810
     2020.06023       -14.49455         6.00153
     2020.06297       -12.28861         5.90602
     2020.06536         0.00171         7.13553
     2020.07227         7.71116        12.94714
     2020.07392        -4.59686         5.98177
     2020.07666        -4.42392         5.91370
     2020.07939       -16.62198         5.94115
     2020.08213        -4.06705         5.91700
     2020.08487        -4.21211         5.91700
     2020.08761        -4.37117         5.91919
     2020.09034         0.75677         5.84674
     2020.09308         2.99671         6.00921
     2020.09582       -21.27036         5.99494
     2020.09856        -8.99042         6.07837
     2020.10130        -1.39448         6.20022
     2020.10403         1.25946         5.97189
     2020.10677        -6.26460         5.97847
     2020.10951        -9.70166         5.97847
     2020.11225        -0.37073         5.96201
     2020.11498        -2.26879         5.89065
     2020.11772        -9.25685         5.94334
     2020.12046         1.71709         6.13985
     2020.12320        -4.07897         5.94883
     2020.12594       -16.20004         5.97957
     2020.12867        -7.23510         5.94883
     2020.13141        -5.30116         5.97408
     2020.13415       -10.57922         5.90053
     2020.13689        -7.01528         6.05312
     2020.13963        -1.39834         6.06849
     2020.14236        -4.38141         5.94444
     2020.14510         0.03153         6.04653
     2020.14784        -4.28953         6.03775
     2020.15058       -12.54159         6.00482
     2020.15331        -7.74665         6.02238
     2020.15605        -8.26972         5.92358
     2020.15879        -3.33978         5.97408
     2020.16153        -3.14784         6.09703
     2020.16427         0.10410         6.04214
     2020.16700         0.85004         6.00701
     2020.16974        -6.03903         5.98945
     2020.17248         3.08191         5.94993
     2020.17522        -2.60815         6.00043
     2020.17796         1.85279         5.93346
     2020.18069        -4.22527         5.95542
     2020.18343        -2.18133         5.94774
     2020.18617       -17.01740         5.91151
     2020.18891        -5.04746         6.03556
     2020.19164        -0.98252         6.03775
     2020.19438        -7.05558         6.08386
     2020.19712        -6.26464         6.05422
     2020.19986        -6.87571         6.06081
     2020.20260       -18.15077         6.06410
     2020.20533       -23.41183         6.01799
     2020.20807        -5.57489         5.94115
     2020.21081        -8.73095         6.04763
     2020.21355        -4.03601         6.60311
     2020.21629        -4.33708         6.35062
     2020.21902        -3.74714         6.18156
     2020.22176        -4.89920         6.05422
     2020.22450        -2.89026         6.03336
     2020.22724        -2.63732         6.02897
     2020.22997         1.66461         6.10252
     2020.23271        -0.58545         5.96859
     2020.23545        -3.06651         6.01689
     2020.23819        -7.66257         5.98945
     2020.24093        -6.68663         6.00262
     2020.24366        -2.49069         6.11130
     2020.24640       -15.20176         6.01580
     2020.24914       -10.09382         5.99823
     2020.25188        -9.12988         6.07178
     2020.25462        -9.09194         5.96201
     2020.25735        -4.61200         6.03007
     2020.26009         4.30793         6.01689
     2020.26283        -2.20713         5.98177
     2020.26557        -7.66119         6.03446
     2020.26830        -6.87225         5.99274
     2020.27104        -3.35931         5.99494
     2020.27378        -4.76338         6.10033
     2020.27652        -1.14944         6.05751
     2020.27926        -7.22750         6.04214
     2020.28199        -1.95956         6.14204
     2020.28473       -10.39362         6.01031
     2020.28747        -2.23468         6.10142
     2020.29021        -9.20375         6.05093
     2020.29295        -5.15081         6.00482
     2020.29568         4.13413         6.07837
     2020.29842        -3.47193         6.08057
     2020.30116        -1.39699         5.98725
     2020.30390         2.53194         6.11899
     2020.30663         0.33588         6.07178
     2020.30937        -2.84218         6.31878
     2020.31211        -8.85724         6.18266
     2020.31485        -6.56930         6.11240
     2020.31759        -9.48236         6.00701
     2020.32032        -1.31343         6.00153
     2020.32306        -1.18049         5.94664
     2020.32580        -5.38155         5.99165
     2020.32854        -0.68261         6.08605
     2020.33128        -7.31767         5.97079
     2020.33401        -4.71774         5.95762
     2020.33675        -6.54980         6.01580
     2020.33949        -3.49086         5.91480
     2020.34223        -9.58892         6.10472
     2020.34496        -5.43798         6.00262
     2020.34770        -7.92305         5.96420
     2020.35044        -3.98711         5.98945
     2020.35318       -11.46517         6.02458
     2020.35592        -7.17923         6.06629
     2020.35865         0.75171         6.03007
     2020.36139         1.63565         5.95981
     2020.36413        -3.30442         6.00043
     2020.36687        -0.48848         6.08935
     2020.36961        -1.28454         6.05971
     2020.37234        -1.32160         5.95542
     2020.37508         9.57534         6.14643
     2020.37782        -2.33573         6.03885
     2020.38056        -9.27479         6.02897
     2020.38329        -1.54985         5.93456
     2020.38603        -1.43691         6.04653
     2020.38877        -5.54797         6.12338
     2020.39151        -4.27303         5.89285
     2020.39425        -7.98510         5.99274
     2020.39698        -7.85516         5.99384
     2020.39972        -6.75522         6.00592
     2020.40246        -6.28828         5.95652
     2020.40520        -8.39634         6.07837
     2020.40794        -5.16741         6.04873
     2020.41067        -5.40347         6.13765
     2020.41341         0.59447         6.17607
     2020.41615        -4.07759         5.98725
     2020.41889        -8.25965         6.02019
     2020.42162       -12.68471         5.96969
     2020.42436        -3.83378         6.29244
     2020.42710         1.54016         6.30561
     2020.42984         1.51110         6.26609
     2020.43258         3.55904         6.04653
     2020.43531        -0.17302         6.11569
     2020.43805        -2.75509         6.05971
     2020.44079        -4.19115         6.22437
     2020.44353       -10.15521         6.16619
     2020.44626        -1.36427         5.98396
     2020.44900         2.80567         6.02897
     2020.45174         2.24860         6.00921
     2020.45448         1.10254         6.07508
     2020.45722        -5.93552         5.88736
     2020.45995         3.04742         5.82918
     2020.46269        -5.96264         5.87089
     2020.46543        -8.07570         5.89065
     2020.46817        -2.95277         6.00921
     2020.47091         5.21217         6.08496
     2020.47364        -2.52089         5.90273
     2020.47638         0.94705         5.90602
     2020.47912        -2.02801         6.04214
     2020.48186        -4.96008         5.97847
     2020.48459        -7.81914         6.14753
     2020.48733         9.96780         6.20681
     2020.49007         8.45474         6.05093
     2020.49281         6.80668         5.96969
     2020.49555         2.67962         6.06959
     2020.49828         4.37455         5.97408
     2020.50102         0.12649         5.92578
     2020.50376        -0.19457         5.86101
     2020.50650         1.22337         5.91810
     2020.50924        -4.13869         5.89724
     2020.51197        -2.37976         5.85991
     2020.51471        -0.75582         5.97847
     2020.51745         4.81612         5.86321
     2020.52019         8.29906         5.97957
     2020.52292         2.53100         6.15741
     2020.52566        -1.01607         6.01031
     2020.52840        14.94587         6.21559
     2020.53114         9.23281         6.10801
     2020.53388         4.19775         6.03446
     2020.53661         1.53169         5.99274
     2020.53935         3.52463         6.05532
     2020.54209         2.39956         6.15521
     2020.54483         5.90650         6.07947
     2020.54757         2.88644         6.15851
     2020.55030         6.36438         6.02129
     2020.55304         1.84032         6.07727
     2020.55578         8.99025         6.11240
     2020.55852        11.10719         6.11240
     2020.56125        13.19413         6.06081
     2020.56399         3.67907         6.05971
     2020.56673         4.04201         5.96859
     2020.56947         7.55795         6.02019
     2020.57221         7.35888         6.09813
     2020.57494         5.84582         6.04653
     2020.57768         3.66276         6.04434
     2020.58042         3.14170         6.13216
     2020.58316        -3.73936         6.06081
     2020.58590         1.30857         6.18266
     2020.58863         7.89051         6.11021
     2020.59137         7.05445         6.07947
     2020.59411        10.56439         6.07288
     2020.59685        12.59633         6.38575
     2020.59958        -2.12873         6.31988
     2020.60232         5.91920         6.02019
     2020.60506         2.00114         6.01470
     2020.60780         3.71708         6.00701
     2020.61054        13.43402         6.12338
     2020.61327         9.91496         6.14643
     2020.61601         4.06389         6.08715
     2020.61875         1.67683         6.01031
     2020.62149        -1.16323         6.14424
     2020.62423         6.14271         6.13875
     2020.62696         2.65065         6.14753
     2020.62970         0.09458         6.05312
     2020.63244        11.11452         6.16509
     2020.63518         1.65746         6.08935
     2020.63791         7.05740         6.16180
     2020.64065         5.18334         6.19144
     2020.64339        -4.60272         6.16509
     2020.64613         3.74221         6.10801
     2020.64887         7.97815         6.25511
     2020.65160         3.08509         6.12448
     2020.65434         4.62103         6.13106
     2020.65708         5.69297         6.04544
     2020.65982         0.22190         6.01250
     2020.66256         2.59684         6.07288
     2020.66529         6.59578         6.13106
     2020.66803         8.18072         6.04105
     2020.67077         7.15366         6.11460
     2020.67351         1.88560         6.06520
     2020.67624         0.75253         6.04544
     2020.67898        -2.03953         6.11240
     2020.68172        -1.16459         6.11240
     2020.68446         4.01435         6.14753
     2020.68720         0.22529         6.16509
     2020.68993        -0.70578         5.99933
     2020.69267        -0.35184         6.11899
     2020.69541         3.67510         6.38575
     2020.69815         0.13604         6.13545
     2020.70089        -0.76102         6.04983
     2020.70362         3.39591         6.04544
     2020.70636        -7.29315         6.29244
     2020.70910         0.33779         6.36160
     2020.71184         1.46973         6.15082
     2020.71457         3.10667         6.33964
     2020.71731         1.37961         6.15741
     2020.72005        -3.23746         6.21120
     2020.72279         0.81548         6.13875
     2020.72553         6.98142         6.29024
     2020.72826         1.74236         6.29134
     2020.73100        22.53130         6.32647
     2020.73374        11.70123         6.03995
     2020.73648         7.97917         6.13875
     2020.73921         6.46711         6.15192
     2020.74195         1.82305         6.08935
     2020.74469         2.46799         6.09703
     2020.74743         3.17893         6.03885
     2020.75017         3.18986         6.01580
     2020.75290         2.41980         6.12557
     2020.75564         3.52774         6.15412
     2020.75838         4.59768         6.07508
     2020.76112         3.79462         5.98177
     2020.76386         3.78355         5.98506
     2020.76659         6.05849         5.98177
     2020.76933         6.13643         6.15192
     2020.77207        10.23537         6.04983
     2020.77481        16.89131         6.07947
     2020.77754        10.48425         6.07288
     2020.78028        17.39818         6.08605
     2020.78302         8.65112         6.07727
     2020.78576         6.52706         6.09703
     2020.78850        -1.84100         6.01250
     2020.79123         3.09394         6.05312
     2020.79397        14.00587         6.16619
     2020.79671         2.46981         6.09593
     2020.79945         6.18575         6.10142
     2020.80219         9.48469         6.14753
     2020.80492        11.71363         6.09264
     2020.80766         5.98156         6.17717
     2020.81040        -1.86650         6.14204
     2020.81314        14.50844         6.12997
     2020.81587         4.06038         6.02897
     2020.81861         5.06432         6.06300
     2020.82135        10.86426         6.13655
     2020.82409         2.95419         6.13765
     2020.82683         2.14013         6.13436
     2020.82956         5.21507         6.20791
     2020.83230         9.47701         6.13106
     2020.83504         7.36995         6.04763
     2020.83778         6.62088         5.92139
     2020.84052         5.15682         5.89834
     2020.84325        -0.73024         6.10033
     2020.84599         2.66870         6.13655
     2020.84873        12.04264         6.02677
     2020.85147         9.02658         6.01470
     2020.85420        12.52251         5.89175
     2020.85694        11.03545         5.97408
     2020.85968        11.17139         6.03885
     2020.86242        11.57733         6.03226
     2020.86516         8.20927         6.12338
     2020.86789        16.65520         6.21010
     2020.87063        17.80314         6.06190
     2020.87337         5.73308         6.04105
     2020.87611        10.22902         6.34074
     2020.87885        11.64396         6.18376
     2020.88158        19.22589         6.28695
     2020.88432        11.43783         6.05312
     2020.88706         0.41477         6.27377
     2020.88980         1.23471         6.14753
     2020.89253         4.23465         6.00592
     2020.89527        12.10359         6.22657
     2020.89801         6.28652         6.19583
     2020.90075        12.40446         6.03556
     2020.90349         1.83240         6.11569
     2020.90622         3.64334         6.03446
     2020.90896         3.81328         6.28146
     2020.91170         1.70621         6.31659
     2020.91444         5.21815         6.18266
     2020.91718        -5.51291         6.08057
     2020.91991        -6.39897         6.02568
     2020.92168        -4.51178        11.24669
     2020.92556        -1.43579         6.55261
     2020.92813        -3.50916         6.06959
     2020.92972        -1.33628        15.16464
     2020.93908        -4.10940         6.10581
     2020.94182        -3.41547         6.02019
     2020.94455         1.17247         6.05202
     2020.94729        -3.59059         6.01580
     2020.95003        -5.60365         6.07508
     2020.95277       -22.03871         5.99604
     2020.95551       -11.43177         6.07727
     2020.95824        -9.22584         6.09154
     2020.96098        -7.60690         6.19693
     2020.96372        -2.10196         6.09593
     2020.96646        -0.67302         6.10362
     2020.96919         2.21292         6.11130
     2020.97193        -4.25015         6.03226
     2020.97467         0.52479         6.21230
     2020.97741        -7.10927         6.10362
     2020.98015        -5.10133         6.23096
     2020.98288        -2.18939         6.16400
     2020.98562         0.05254         5.95762
     2020.98836         2.04048         5.95871
     2020.99110         0.61242         5.91810
     2020.99384        -5.27964         5.90712
     2020.99657        -5.61370         5.98506
     2020.99931         0.32524         5.92798
     2021.00205        -2.60283         5.98725
     2021.00479        11.16911         5.99933
     2021.00752         8.52605         5.96420
     2021.01026         4.83099         5.97738
     2021.01300         5.96393         5.99823
     2021.01574         2.94486         5.96640
     2021.01848        -5.61520         5.94005
     2021.02121        -1.92326         5.95103
     2021.02395        -3.97132         5.95103
     2021.02669        -0.59738         5.96420
     2021.02943        -6.41244         5.93676
     2021.03216        -3.87251         5.96420
     2021.03450         5.02871         7.57573
     2021.04038        -0.78669         6.13875
     2021.04312        -3.29275         5.97628
     2021.04585        -1.38882         6.06410
     2021.04859        -4.89488         5.99604
     2021.05133        -3.95394         6.01470
     2021.05407         0.83400         6.32208
     2021.05681       -11.69506         6.15631
     2021.05954       -21.40813         5.91700
     2021.06776        -4.07231         6.00372
     2021.07049        -3.09237         5.94554
     2021.07323         4.98757         5.91370
     2021.07597        -2.02250         6.02458
     2021.07871        -2.04356         6.05641
     2021.08145        -4.12562         5.98506
     2021.08418        -6.10768         6.04214
     2021.08692         5.90526         6.01250
     2021.08966        -4.43781         6.03446
     2021.09240        -8.28087         5.98616
     2021.09514        -4.43893         6.13765
     2021.09787        -0.95699         6.23425
     2021.10061        -0.42805         6.02787
     2021.10335         0.20889         6.11899
     2021.10609        -4.01118         5.99604
     2021.10882        -4.10924         5.96859
     2021.11156        -3.70830         6.04544
     2021.11430        -5.83436         6.00921
     2021.11704        -8.86542         6.04324
     2021.11978        -9.49249         5.95981
     2021.12251       -14.69555         5.96091
     2021.12525       -18.54061         6.02458
     2021.12799        -1.35767         6.11130
     2021.13073        -0.72873         6.05532
     2021.13347        -7.79179         6.06520
     2021.13620        -8.58586         5.98616
     2021.13894       -15.89792         5.89614
     2021.14168        -6.77698         5.97518
     2021.14447        -4.99894         6.13326
     2021.14715        -4.78110         6.05312
     2021.14989        -6.55517         5.95213
     2021.15166       -14.59398        12.72758
     2021.16358        -4.01548         6.24962
     2021.16632        -2.74354         6.18705
     2021.16906        -2.09160         5.95322
     2021.17180        -6.99066         5.96091
     2021.17453        -6.57172         6.08605
     2021.17727        -5.72078         6.14314
     2021.18001       -11.53585         6.14314
     2021.18275       -16.49191         6.32866
     2021.18548       -10.59897         5.93786
     2021.18822        -8.60403         5.90931
     2021.19079       -11.30140         6.40990
     2021.19381       -10.39195         6.29463
     2021.19644        -9.18322         5.95322
     2021.19917       -10.23528         6.03117
     2021.20191        -4.76434         5.93127
     2021.20465        -2.28040         5.93346
     2021.20739        -8.19346         5.91919
     2021.21013        -5.30053         6.07727
     2021.21286        -5.31359         6.19583
     2021.21560        -4.56165         5.93676
     2021.21834        -9.91271         5.93017
     2021.22108        -4.28277         5.94774
     2021.22381        -8.17084         5.99384
     2021.22655        -1.09690         6.03226
     2021.22929         1.57204         5.94005
     2021.23203        -5.25602         5.95213
     2021.23477       -11.24108         5.95213
     2021.23750       -13.50315         5.93786
     2021.24024        -4.11121         6.01580
     2021.24298        -3.67427         5.95981
     2021.24572       -15.33333         5.92358
     2021.25119        -1.79345         5.98286
     2021.25393        -7.80352         5.91151
     2021.25667        -2.32158         5.98616
     2021.25941        -0.96264         5.93566
     2021.26214        -1.59770         5.91590
     2021.26488        -3.40676         5.94883
     2021.26762         5.49317         6.01360
     2021.27036        -5.98389         6.00592
     2021.27310         4.11005         5.92139
     2021.27583        -4.89301         5.93786
     2021.27857        -5.89307         6.04763
     2021.28131        -2.77713         6.03556
     2021.28405        -3.54620         6.01250
     2021.28679        -2.81526         6.03007
     2021.28952        -5.34332         6.02568
     2021.29226        -5.74538         6.07508
     2021.29500        -1.58444         6.06520
     2021.29774         1.04449         6.19254
     2021.30047        -2.06957         6.00482
     2021.30321         1.53237         6.01360
     2021.30595        12.22331         6.21120
     2021.30869         7.12625         6.22218
     2021.31143         0.61019         5.91700
     2021.31416         6.11412         5.91919
     2021.31690       -10.07794         5.97847
     2021.31964        -2.46900         6.03336
     2021.32238        -0.76606         6.12448
     2021.32512        -9.28012         5.92907
     2021.32785        -4.06319         6.01580
     2021.33059         0.50475         6.05312
     2021.33333         7.56469         5.97189
     2021.33607        -7.28037         5.95213
     2021.33880         0.24557         5.98725
     2021.34154        -7.81150         5.93127
     2021.34428        -7.38256         6.13436
     2021.34702        -2.05462         6.07617
     2021.34976         2.01432         5.97847
     2021.35249        -9.44474         5.96859
     2021.35523        -8.38580         6.00043
     2021.35797       -10.25987         5.93676
     2021.36071        -8.26393         6.06410
     2021.36344       -15.70599         6.01689
     2021.36618       -14.96505         6.15192
     2021.36903       -10.24391         6.52297
     2021.37166        -5.79318         5.96969
     2021.37440        -3.37924         5.96969
     2021.37616       -11.40205        11.25657
     2021.37987        -2.50136         6.20901
     2021.38261         0.29558         6.37587
     2021.38535        -2.73248         6.23425
     2021.38809        -8.25155         6.01580
     2021.39082        -1.72261         5.99165
     2021.39356       -10.31667         6.04105
     2021.39630        -4.45473         6.14314
     2021.39904        -1.99579         6.02568
     2021.40177        -4.73786         6.04653
     2021.40451         5.11608         6.23865
     2021.40725        -1.70798         6.02677
     2021.40999        -2.42304         6.04653
     2021.41273         0.74190         6.04434
     2021.41546        -4.93117         6.08166
     2021.41820       -11.16523         6.01250
     2021.42094         6.20971         6.11789
     2021.42368         0.83265         6.20132
     2021.42642         4.50459         6.17388
     2021.42915         2.82853         6.04763
     2021.43189         7.44046         6.18376
     2021.43463        -0.34760         6.01799
     2021.43737        -0.32966         6.10581
     2021.44010        -0.25672         6.14973
     2021.44284        -0.92978         6.12557
     2021.44558        -0.21185         6.17827
     2021.44832         0.67709         6.17937
     2021.45106         2.70403         6.32647
     2021.45379         9.90097         6.41978
     2021.45653         2.05491         6.24304
     2021.45927         9.14585         5.98835
     2021.46201         1.52378         5.92907
     2021.46475         2.65272         6.05093
     2021.46748        -3.11134         6.15741
     2021.47022        -0.82340         6.35172
     2021.47296        10.73854         6.30561
     2021.47570         8.16247         6.44173
     2021.47843         3.53741         6.24743
     2021.48117         3.02735         6.17388
     2021.48391        -3.02371         6.25292
     2021.48665         0.13923         6.10142
     2021.48939         1.25017         6.12338
     2021.49212         3.29810         6.13765
     2021.49486         6.48604         6.17717
     2021.49760         2.24798         6.59323
     2021.50034         7.14792         6.61079
     2021.50308         5.16086         6.25182
     2021.50581         7.49979         6.22767
     2021.50855         3.62873         6.45600
     2021.51129         6.54467         6.27926
     2021.51403         7.67961         6.26828
     2021.51676         7.94255         6.23645
     2021.51950         8.47648         6.34074
     2021.52224         6.42242         6.19034
     2021.52498         7.59736         6.17278
     2021.52772         8.56730         6.20022
     2021.53045        12.56824         6.27597
     2021.53319         7.71018         6.16070
     2021.53593         6.83711         6.18266
     2021.53867        21.37405         6.70520
     2021.54141         5.93499         6.35391
     2021.54414        -3.11807         6.56139
     2021.54688         4.11887         6.28585
     2021.54962         4.55480         6.33525
     2021.55509         6.34168         6.20901
     2021.55783         8.73062         6.54383
     2021.56057         7.08656         6.17497
     2021.56331         7.38850         6.19693
     2021.56605         1.36943         6.19254
     2021.56878         4.83637         6.10911
     2021.57152         4.78431         6.44393
     2021.57426        -2.51175         6.35720
     2021.57700         9.30619         6.28804
     2021.57974         4.34212         6.27816
     2021.58247        -2.37694         6.22328
     2021.58521        -0.45400         6.23206
     2021.58795         0.07394         6.43954
     2021.59069         4.99188         6.31768
     2021.59342        16.34681         6.45930
     2021.59616         6.71475         6.42088
     2021.59890         3.03869         6.28914
     2021.60164         6.57563         6.41978
     2021.60438         0.99557         6.16290
     2021.60711         7.38951         6.24523
     2021.60985         4.41244         6.32756
     2021.61259         3.53738         6.12557
     2021.61533         1.73432         6.14863
     2021.61807        -1.08474         6.24633
     2021.62080        -1.35480         6.12009
     2021.62354         0.98413         6.13545
     2021.62628        11.78507         6.34293
     2021.62902         8.00101         6.23755
     2021.63175         8.50495         6.34184
     2021.63449         4.25289         6.15741
     2021.63723         9.91183         6.56688
     2021.63997         8.62776         6.18046
     2021.64271         2.09970         6.49004
     2021.64544         4.91364         6.12997
     2021.64818         2.35158         6.39124
     2021.65092         6.86852         6.17607
     2021.65366         4.29245         6.11679
     2021.65639         5.18639         6.11899
     2021.65913         3.32133         6.07508
     2021.66187         7.38727         6.17827
     2021.66461         6.01121         6.15961
     2021.66735         2.92815         6.27707
     2021.67008         6.33308         6.22108
     2021.67282         9.53402         6.35830
     2021.67556         5.09396         6.39453
     2021.67830         4.18790         6.27158
     2021.68104         9.50784         6.15192
     2021.68377         3.91777         6.12448
     2021.68651         8.29371         6.12887
     2021.68925        12.04265         6.20681
     2021.69199         8.64659         6.47906
     2021.69472         4.90053         6.24413
     2021.69746        -2.49054         6.16180
     2021.70020         1.04840         6.17168
     2021.70294        11.16534         6.10911
     2021.70568         8.63228         6.17497
     2021.70841        10.27522         6.34184
     2021.71115         8.94116         6.16619
     2021.71389        15.84709         6.35611
     2021.71663         7.55603         6.12118
     2021.71937         6.73497         6.06849
     2021.72210         0.18191         6.23535
     2021.72484         3.98685         6.26719
     2021.72758         5.59278         6.19693
     2021.73032        -1.16728         6.38684
     2021.73305         7.37366         6.23535
     2021.73579        14.19860         6.09813
     2021.73853        14.43154         6.35281
     2021.74127        14.04648         6.23974
     2021.74401        11.56641         6.07069
     2021.74674         2.01435         6.03665
     2021.74948         6.91229         6.06739
     2021.75222         4.21023         6.08057
     2021.75496         8.82217         6.11350
     2021.75770         8.85710         6.25621
     2021.76043        13.83204         6.22547
     2021.76317        10.20198         6.14643
     2021.76591        -5.48308         6.36050
     2021.76865         8.45786         6.19913
     2021.77138        10.48579         6.18595
     2021.77412        15.01573         6.27158
     2021.77686         9.71267         6.08166
     2021.77960         9.55161         6.28585
     2021.78234        12.19255         6.27707
     2021.78507        13.97649         6.24743
     2021.78781        10.80942         6.11021
     2021.79009         5.08154         7.38143
     2021.79603        13.01424         6.34074
     2021.79876         6.42518         6.07508
     2021.80150        15.72411         6.29024
     2021.80424        19.51405         6.35172
     2021.80698        12.77099         6.14753
     2021.80971         2.40393         6.27268
     2021.81245        14.14287         6.53175
     2021.81519        18.02581         6.22657
     2021.81793         9.34274         6.03995
     2021.82067         8.42368         6.32756
     2021.82340         7.72662         6.14094
     2021.82614         8.96056         6.47576
     2021.82888        -6.15350         6.18925
     2021.83162        12.51843         6.20571
     2021.83436         8.50437         6.14863
     2021.83709         8.10331         6.21010
     2021.83983        -3.85175         6.36489
     2021.84234         8.90978         7.10698
     2021.84531         5.45613         6.18815
     2021.84804         9.54906         6.22108
     2021.85078        -9.21700         6.12448
     2021.85352         9.11294         6.14314
     2021.85626        12.33688         6.27268
     2021.85900         7.13882         6.05971
     2021.86173         3.22875         6.11240
     2021.86447         3.60769         6.31878
     2021.86721         6.03563         6.37477
     2021.86995        10.35357         6.53614
     2021.87269         6.30251         6.25401
     2021.87542        10.47144         6.28475
     2021.87816         3.07238         6.03336
     2021.88090         5.67832         6.07508
     2021.88364         1.31626         6.11899
     2021.88637        -1.72380         6.16839
     2021.88911        -3.46586         6.08386
     2021.89185        -5.55393         5.98506
     2021.89459        -3.15299         6.08715
     2021.89733         0.59395         6.03446
     2021.90006         0.95589         6.05641
     2021.90280        -4.42117         6.11569
     2021.90554         1.28376         6.26280
     2021.90828         2.71370         6.06081
     2021.91102         4.97864         6.14863
     2021.91375       -12.67042         6.06410
     2021.91649        -0.29148         6.16509
     2021.91923         2.07846         6.30341
     2021.92197        -5.06661         6.38026
     2021.92470         1.21633         6.30780
     2021.92744         8.25527         6.29683
     2021.93018        -1.59979         6.16949
     2021.93292        -0.09785         6.84022
     2021.93566        -6.38092         6.55041
     2021.93839        11.86702         6.35062
     2021.94113        13.17596         6.37367
     2021.94387        17.85990         6.24194
     2021.94661         9.21984         6.26938
     2021.94935         9.52377         6.27926
     2021.95208        14.09571         6.23535
     2021.95482        12.67965         6.41648
     2021.95756        -3.09841         6.23645
     2021.96030         7.54053         6.31000
     2021.96303         4.02547         6.37148
     2021.96577         6.99540         6.34184
     2021.96851         4.65834         6.44283
     2021.97125         8.68428         6.45930
     2021.97399        11.29322         6.32208
     2021.97672        13.16016         6.45491
     2021.97946        21.21309         6.34513
     2021.98220        14.45903         6.40770
     2021.98494        17.52497         6.31329
     2021.98767        13.71091         6.27158
     2021.99041         8.56685         6.16619
     2021.99315         2.52779         6.20901
     2021.99589         0.33572         6.16839
     2021.99863       -20.97934         6.19913
     2022.00136        -8.05440         6.12667
     2022.00410        -8.99546         6.24743
     2022.00684        -2.60252         6.21449
     2022.00958        -7.33859         6.27816
     2022.01232       -16.99665         6.20461
     2022.01505        -0.72371         6.19803
     2022.01779        14.01923         6.35830
     2022.02053        -3.51783         6.29244
     2022.02327         0.65011         6.60420
     2022.02600        -6.13796         6.28475
     2022.02874        -2.32402         6.24962
     2022.03148        -4.51208         6.32756
     2022.03422        -6.19114         6.38794
     2022.03696        -8.90320         6.22986
     2022.03969       -11.41527         6.36708
     2022.04243        -2.65533         6.46259
     2022.04517        -4.45139         6.22657
     2022.04791        -1.54445         6.32427
     2022.05065        -3.58151         6.11240
     2022.05338        -4.09558         6.29353
     2022.05612       -10.36164         6.16619
     2022.05886       -10.69270         6.14863
     2022.06160       -12.00176         6.25401
     2022.06433        -0.16982         6.19144
     2022.06707        -9.98288         6.19913
     2022.06981        -1.92495         6.19803
     2022.07255        -9.47101         6.25072
     2022.07529        -8.46207         6.04214
     2022.07802        -3.29213         6.04324
     2022.08076         1.57781         6.10142
     2022.08350       -18.35426         6.16619
     2022.08624        -0.76532         6.27158
     2022.08898         0.20062         6.70849
     2022.09171        -5.51944         6.24523
     2022.09445        -7.89450         6.03336
     2022.09719        -5.83856         6.08715
     2022.09993        -5.77263         6.23974
     2022.10266        -6.54369         6.19364
     2022.10540        -7.54175         6.11350
     2022.10814         3.31319         6.12448
     2022.11088         0.25413         6.03226
     2022.11362        -2.68494         6.15082
     2022.11641         2.38111         6.54602
     2022.11909        -2.74206         6.26170
     2022.12183         0.95688         6.11130
     2022.13278        -1.99037         6.18485
     2022.13552        -3.43443         6.06081
     2022.13826         8.57651         6.09264
     2022.14099        -3.64955         6.09593
     2022.14373        -4.31562         6.02348
     2022.14647         2.00932         6.18046
     2022.14921        -3.56374         6.39563
     2022.15195        -3.67680         6.28695
     2022.15468        -1.51386         6.06959
     2022.15742        -1.23993         6.08276
     2022.16016         4.76301         6.03446
     2022.16290         2.01195         6.08276
     2022.16564        -6.16111         6.06739
     2022.16837        -0.78117         6.17168
     2022.17111        -0.57823         6.18376
     2022.17385         1.94370         6.03117
     2022.17659         0.64964         6.13436
     2022.17932        -5.46642         6.06959
     2022.18206        -0.52048         6.04983
     2022.18480        -5.32154         6.36818
     2022.18754        -1.29161         6.18156
     2022.19028        -3.93467         6.24852
     2022.19301        -0.87773         6.12338
     2022.19575         6.18721         6.21340
     2022.19849        -2.72485         6.13326
     2022.20123         2.15209         6.08386
     2022.20397         7.16702         6.17937
     2022.20670        -3.64704         6.19693
     2022.20944        -0.46310         6.13875
     2022.21218         5.12084         6.15302
     2022.21509         3.60608         6.56798
     2022.21765        -3.71629         6.05751
     2022.22039        -5.15735         6.12887
     2022.22313        -1.07141         6.09264
     2022.22587        -2.52547         6.29683
     2022.22861        -0.93053         6.28695
     2022.23134         4.56440         6.06959
     2022.23408         5.18334         6.10142
     2022.23682         6.39828         6.24852
     2022.23956         1.51622         6.02458
     2022.24230         1.65516         6.25621
     2022.24503         2.05610         6.07178
     2022.24777         4.83203         6.10142
     2022.25051         4.06397         6.17717
     2022.25325         3.56391         6.49223
     2022.25598        -0.09315         6.14314
     2022.25872        10.29379         6.20132
     2022.26146        -1.55328         6.21669
     2022.26420        -1.04534         6.00921
     2022.26694         0.44660         6.30451
     2022.26967         0.31454         6.06739
     2022.27241         9.40748         6.07288
     2022.27515        11.30442         6.37038
     2022.27789         6.75035         6.07837
     2022.28062        -1.40671         6.16290
     2022.28336        -1.20177         6.30012
     2022.28610         3.17517         6.29573
     2022.28884        -8.06389         6.37367
     2022.29158        -0.93396         6.12997
     2022.29431        -3.35502         6.01799
     2022.29705         6.85192         6.24962
     2022.29979         8.55086         6.10911
     2022.30253        11.63580         6.25292
     2022.30527        -2.69627         6.29463
     2022.30800        -3.87333         6.14533
     2022.31074        -0.54439         6.02238
     2022.31348         2.46955         6.32098
     2022.31622        -0.14751         6.27707
     2022.31895       -16.93957         6.31549
     2022.32169        -4.54464         6.31549
     2022.32443         7.92430         6.08276
     2022.32717        -1.08676         6.10142
     2022.32991         0.41718         6.47357
     2022.33264         0.70412         6.25292
     2022.33538        -2.94895         6.47906
     2022.33812        -5.02701         6.96098
     2022.34086         9.76793         6.22767
     2022.34360         3.92387         6.25731
     2022.34633         3.54381         6.26499
     2022.34907        -5.10525         6.08605
     2022.35181         0.50568         6.19473
     2022.35455         0.22462         6.25950
     2022.35728         2.11156         6.12557
     2022.36002         1.55450         6.03995
     2022.36276         4.70044         6.08605
     2022.36550        -5.26063         6.17168
     2022.36824        -1.39269         6.32317
     2022.37097        -4.56275         6.16949
     2022.37371       -12.63881         6.45271
     2022.37645        -1.25687         6.04763
     2022.37919         3.93407         6.82046
     2022.38193        -5.80100         6.67885
     2022.38466        -4.34806         6.21449
     2022.38740       -17.45612         6.47137
     2022.39014        -5.07618         6.08605
     2022.39288         3.15576         6.13436
     2022.39561        -5.85331         6.52407
     2022.39835        -5.91737         6.21449
     2022.40109        -2.73543         6.15631
     2022.40383        -1.60549         5.97628
     2022.40657         5.20445         6.16729
     2022.40930        -5.59362         6.20791
     2022.41204        -3.10568         6.21340
     2022.41478        -7.97174         6.15192
     2022.41752         1.56920         6.13655
     2022.42026         5.51214         6.20571
     2022.42299         1.57408         6.15741
     2022.42573         1.68501         6.12777
     2022.42847        -2.89205         6.17058
     2022.43121        -2.02411         6.29353
     2022.43394         7.63983         6.26719
     2022.43668        -8.51823         6.07727
     2022.43942         2.92670         6.05751
     2022.44216        12.71264         6.28146
     2022.44490        13.85858         6.26609
     2022.44763        10.63252         6.07727
     2022.45037         4.30046         6.04544
     2022.45311        -2.67960         6.03007
     2022.45585        -1.91067         6.09045
     2022.45859       -10.20173         6.06959
     2022.46132         4.83121         6.20022
     2022.46406         0.46115         5.99274
     2022.46680        -2.53191         6.00811
     2022.46954        -3.41098         6.06520
     2022.47227       -12.13404         6.15741
     2022.47501         7.80390         6.64043
     2022.47775         2.05784         6.19803
     2022.48049        -4.81922         6.00153
     2022.48323         4.73071         5.97957
     2022.48596         8.91665         6.35720
     2022.48870        -4.83641         6.60859
     2022.49144        -0.86247         6.02129
     2022.49418         4.64247         6.11130
     2022.49692         0.88341         5.97847
     2022.49965         2.55534         6.19803
     2022.50239        -7.92572         6.32427
     2022.50513         7.71622         6.51089
     2022.50787         9.70616         6.44612
     2022.51060        -0.97990         6.20901
     2022.51334         3.12803         6.17607
     2022.51608        -8.54303         6.20791
     2022.51882         1.64591         6.22437
     2022.52156       -20.81415         6.11240
     2022.52429       -11.70021         6.00372
     2022.52703        -9.24927         6.05422
     2022.52977        -0.15234         6.05532
     2022.53251       -12.30940         6.43624
     2022.53525       -18.33946         6.32976
     2022.53798        -8.36752         6.21120
     2022.54072       -11.19958         6.14094
     2022.54346        -2.32365         6.23206
     2022.54620       -11.47471         6.04324
     2022.54893        -9.03877         6.10911
     2022.55167        -7.57583         6.26389
     2022.55441        -9.77889         6.13545
     2022.55715        -4.13995         6.00482
     2022.55989        -7.95402         6.02458
     2022.56262       -12.73708         6.12997
     2022.56536       -21.06414         6.37806
     2022.56810        -8.18820         6.04763
     2022.57084       -15.94026         6.33854
     2022.57357        -2.03633         6.15412
     2022.57631       -11.04339         6.07617
     2022.57905       -11.34345         6.25511
     2022.58179        -7.10951         6.10033
     2022.58453        -2.69857         6.35611
     2022.58726        -6.39564         6.52516
     2022.59000        -3.31370         6.18815
     2022.59274       -16.43476         6.05422
     2022.59548        -7.28682         6.27707
     2022.60369        -3.36301         6.01360
     2022.60643       -13.95607         6.15741
     2022.60917       -19.40013         6.47686
     2022.61190        -4.69919         6.65799
     2022.61464        -5.73225         6.24084
     2022.61738        -3.32332         6.13765
     2022.62012       -11.91738         5.91041
     2022.62286       -10.25244         6.15851
     2022.62559        -7.86450         6.27048
     2022.62833       -10.05556         5.95322
     2022.63107        -8.23362         6.02677
     2022.63381         4.83731         6.17717
     2022.63655        -7.18375         6.07069
     2022.63928        -4.62281         6.07069
     2022.64202        -8.76687         6.47357
     2022.64476        -4.57093         6.49772
     2022.64750        -2.31600         6.28036
     2022.65023        -5.98906         6.66129
     2022.65297        -0.62612         6.42636
     2022.65571        -0.08718         6.16839
     2022.65845         1.94376         6.04983
     2022.66119        -3.49531         6.01799
     2022.66392        -3.44437         6.00592
     2022.66666         0.15057         6.04544
     2022.66940        -1.85249         6.05532
     2022.67214        -1.88555         6.15521
     2022.67488        -5.42761         5.98506
     2022.67761         0.87232         6.05751
     2022.68035         4.46326         5.99055
     2022.68309         1.87320         6.08825
     2022.68583        -1.16586         6.36160
     2022.68856         1.86508         6.06959
     2022.69130         0.59501         6.07398
     2022.69404        -4.44105         6.08166
     2022.69678         0.18589         6.13326
     2022.69952        -9.53117         6.27048
     2022.70225         0.95077         6.36160
     2022.70499         3.74271         6.28256
     2022.70773        -7.34936         6.14314
     2022.71047         1.86458         6.13436
     2022.71321         4.78452         6.13875
     2022.71594         2.15246         6.01689
     2022.71868         0.48740         5.92358
     2022.72142         3.27433         6.07508
     2022.72416        -2.13673         6.19254
     2022.72689        -3.79179         6.15851
     2022.72963         1.05715         6.04434
     2022.73237        -6.33191         6.03226
     2022.73511        -0.85797         6.12448
     2022.73785        -2.31304         5.99604
     2022.74058         7.15390         6.39453
     2022.74332         3.70884         6.36160
     2022.74606        -0.12422         6.16070
     2022.74880        -6.40528         6.07947
