# ================= DQRFIT RESULTS ================
# INPUT FILE: series/BURR.rad
# OUTPUT: LDETRENDED
# FILTER FUNCTION: f(t)
# f(t)=+line(t)+annual(t)
# line(t)=+P 1+P 2*t
# annual(t)=+P 3*sin(2*pi*t+P 4)
# heav(t)=(t<0?0:1)
# TOTAL OBSERVATIONS MTOT=  814
# INITIAL TIME INTERVAL= 2019.1923 - 2005.9767 = 13.2156
# TOTAL OBSERVATIONS AFTER PREFILTER M=  811
# TIME-SPAN= 2019.1923 - 2005.9767 = 13.2156
# OBSERVATIONS: USED M=   811 REJECTED MTOT-M=     3 %USED=   99.6314
# N=  4 PARAMETERS
# MAXSIG= 175.00000
# MAXRES=  19.00198
# SCALE FACTOR FOR LENGTHS: SCL=  10.00000
# SCALE FACTOR FOR SIGMAS: SCLSIG=   1.00000
# CHI^2=    772.163 DOF=   807 CHI^2/DOF=   0.95683
# RMS=      5.617 SDEV=      5.621 MEAN=   -0.00844
#  P #       PARAMETER +-    SIGMA %error PARAMETER NAME
# P 1 =      -308.66824 +-   82.991  26.89 YZERO                              
# P 2 =         0.15436 +-    0.041  26.71 SLOPE                              
# P 3 =         2.98234 +-    0.297   9.96 ANNUAL AMPLITUDE                   
# P 4 =        -2.61895 +-    0.123   4.71 ANNUAL PHASE                       
#       T            LDETRENDED       SIG_OBS
     2005.97673        -2.79432         5.72136
     2005.97947        -2.89275         5.74484
     2005.98221         7.19683         5.69984
     2005.98495         4.99141         5.82505
     2005.98768         6.84299         5.66658
     2005.99042         6.78756         5.86222
     2005.99316         5.47914         5.76147
     2005.99590         3.27572         5.73603
     2005.99864         1.25729         5.80646
     2006.00411         1.09845         5.69006
     2006.01233       -11.51882         5.71940
     2006.01506        -8.62224         5.76636
     2006.01780        -2.51466         5.82211
     2006.02054        -0.26809         5.82407
     2006.02328        -0.36351         5.82505
     2006.02601         0.74607         5.87591
     2006.02875        -0.35035         5.84754
     2006.03149         1.48122         5.77223
     2006.03423         1.95380         5.70571
     2006.03697         9.41138         5.80451
     2006.03970        -0.07804         5.72429
     2006.04244        -0.62247         5.81037
     2006.04518         4.47211         5.86417
     2006.04792        -5.02431         5.68615
     2006.05065         1.25427         5.70864
     2006.05339        -1.24816         5.69006
     2006.05613         2.20342         5.65680
     2006.05887        -0.03200         5.60789
     2006.06161        -0.65243         5.53942
     2006.06434         6.74215         5.66952
     2006.06708        -2.85227         5.52279
     2006.06982        -4.03769         5.48953
     2006.07256        -5.02012         5.58735
     2006.07530        -5.55354         5.55898
     2006.07803       -12.14596         5.49638
     2006.08077         0.20162         5.51594
     2006.08351        -4.59981         5.51594
     2006.08625        -2.41623         5.72723
     2006.08898       -11.05565         5.75755
     2006.09172        -3.22807         5.48953
     2006.09446         6.80250         5.71353
     2006.09720        -3.52092         5.53159
     2006.09994        -5.61234         5.55018
     2006.10267        -5.13076         5.52279
     2006.10541        -9.70319         5.48953
     2006.10815        -3.24561         5.64604
     2006.11089        -4.92703         5.73603
     2006.11363       -10.17545         5.56876
     2006.11636        -9.13188         5.59615
     2006.11910        -4.99930         5.54431
     2006.12184         1.21428         5.58833
     2006.12458         0.88685         5.54529
     2006.12731        -4.10557         5.54040
     2006.13005        -1.72599         5.60398
     2006.13279        -2.35141         5.56485
     2006.13553         1.86916         5.51888
     2006.13827         6.42174         5.59126
     2006.14100         5.75532         5.53159
     2006.14374         4.00090         5.54627
     2006.14648         5.55147         5.62256
     2006.14922        -0.81895         5.60887
     2006.15196        -2.15237         5.53062
     2006.15469        -0.71379         5.57561
     2006.15743        -2.59922         5.69495
     2006.16017        -3.06864         5.67343
     2006.16291         1.26094         5.79864
     2006.16564        -3.94848         5.57366
     2006.16838       -14.27891         5.69397
     2006.17111        -1.03833         5.65093
     2006.17386         2.96325         5.56094
     2006.17660         0.12583         5.64702
     2006.17933        -1.58160         5.59126
     2006.18207         0.33398         5.54138
     2006.18481         1.81556         5.63528
     2006.18755         1.47513         5.51692
     2006.19029         7.55771         5.72332
     2006.19302         1.60029         5.63724
     2006.19576        -3.64013         5.68810
     2006.19851         9.28244         5.95710
     2006.20124         5.02702         5.88569
     2006.20397        -9.12740         5.94928
     2006.20671        -4.15982         5.85733
     2006.20945        -1.21625         5.69593
     2006.21219        -2.53567         5.77320
     2006.21493        -2.28709         5.68810
     2006.21766        -0.47451         5.70767
     2006.22040        -4.00494         5.81820
     2006.22314        -7.71036         5.79961
     2006.22588        -1.32178         5.89645
     2006.22862         0.94180         5.90917
     2006.23135        -2.21163         5.78983
     2006.23409         2.65895         5.77125
     2006.23683        -5.56347         5.77027
     2006.23957         7.18111         5.86906
     2006.24230         2.31368         5.56290
     2006.24504         0.74626         5.63332
     2006.24778         1.71084         5.64897
     2006.25052        -4.38259         5.59126
     2006.25326        -7.55701         5.56094
     2006.25599         1.85257         5.70767
     2006.25873         3.69715         5.57952
     2006.26147         0.07672         5.76636
     2006.26421        -4.50270         5.89156
     2006.26695         2.29288         5.81624
     2006.26971        -5.38655         6.57140
     2006.27242         5.74403         5.94732
     2006.27517         5.23561         6.35033
     2006.27790        -3.52581         5.93754
     2006.28063        -1.57623         5.60104
     2006.28337         8.85034         6.03633
     2006.28611         8.93892         5.82407
     2006.28885         0.49150         5.64897
     2006.29159         6.93908         5.68419
     2006.29432         0.93465         5.56485
     2006.29706         0.25223         5.57463
     2006.29978         1.35581         5.89352
     2006.30255         3.33138         6.13122
     2006.30528        -6.67804         5.83385
     2006.30801         1.21054         5.74581
     2006.31075        -0.61388         5.80157
     2006.31349        -2.08931         5.90721
     2006.31623        -1.92873         5.65680
     2006.32170        -1.44157         5.74679
     2006.32441        -5.22599         5.72821
     2006.32718        -6.40142         5.98156
     2006.32992        -2.91384         6.02459
     2006.33261        -1.81426         5.90917
     2006.33539        -1.32969         6.30729
     2006.33813         1.57989         6.21045
     2006.34087         3.91847         6.00503
     2006.34361         3.42905         6.06177
     2006.34634         1.88862         6.22023
     2006.34908        -6.50980         6.53814
     2006.35181        -0.59522         6.23588
     2006.35451        -3.49264         6.05785
     2006.35727        -1.88706         6.64574
     2006.36007         4.34551         6.86387
     2006.36277        -1.20991         6.73377
     2006.36551        -8.53133         6.53227
     2006.36825        -6.18376         6.98810
     2006.37098        -3.54718         7.08005
     2006.37372        -2.41660         7.18569
     2006.37642         2.64498         6.65943
     2006.37923        -3.64545         6.95582
     2006.38193         6.60213         6.77681
     2006.38467         4.25071         6.23099
     2006.38738         1.30329         5.87689
     2006.39016        -0.97814         6.11459
     2006.39289        -3.41356         6.01383
     2006.39562        -3.22898         6.51955
     2006.39831         3.64660         6.44228
     2006.40108        -3.17983         6.13219
     2006.40384        -0.00325         6.03535
     2006.40650         1.56534         6.00308
     2006.40931        -0.49010         6.33761
     2006.41204        -3.57652         6.54009
     2006.41479        -1.18194         6.33663
     2006.41753        -0.96336         6.71714
     2006.42026         5.83421         6.36500
     2006.42300        -4.77021         6.49216
     2006.42574         5.65337         6.19089
     2006.42848         2.29095         6.32979
     2006.43114        12.52853         6.86974
     2006.88296         3.45579         5.70962
     2006.88570         3.77637         5.73701
     2006.88844        -0.31905         5.81526
     2006.89118        -0.16448         5.67636
     2006.89391        -2.62790         5.95808
     2006.89665         1.60168         5.78788
     2006.89939         2.56726         5.69104
     2006.90213         6.65683         5.65876
     2006.90486         0.88441         5.74092
     2006.90760         3.82299         5.72429
     2006.91034        -0.08443         5.64604
     2006.91308         5.34014         5.67930
     2006.91582        -0.68728         5.75168
     2006.91855        -1.14270         5.70473
     2006.92129        -0.24512         5.69006
     2006.92403        -1.37855         5.69788
     2006.92677         2.18803         5.74581
     2006.92951         2.91361         5.83092
     2006.93224         2.25919         5.71940
     2006.93498         2.38176         5.80157
     2006.93772         4.22634         5.83287
     2006.94046         4.87092         5.85537
     2006.94319        -1.53550         5.82016
     2006.94593        -4.46793         5.91113
     2006.94867        -8.83135         5.82016
     2006.95141         4.35623         5.86124
     2006.95415         6.45680         6.17915
     2006.95688         7.52238         5.79668
     2006.95962         2.92696         5.79375
     2006.96236         2.81754         5.77418
     2006.96510         1.52811         5.83874
     2006.96784         2.31869         5.76831
     2006.97057         1.34027         5.81722
     2006.97331        -5.53315         5.87004
     2006.97605         1.52942         5.89645
     2006.97879         2.53900         5.93460
     2006.98152        -1.51042         5.85537
     2006.98426        -3.08884         5.90037
     2006.98700        -3.51827         6.17719
     2006.98974        -5.83269         6.07839
     2006.99248        -5.06111         6.09307
     2006.99521        -4.53853         6.00014
     2006.99795         1.74004         6.13611
     2007.00343         2.16320         5.96982
     2007.00616        -3.38322         6.01873
     2007.00890        -4.70265         5.94145
     2007.01164        -3.81207         5.86124
     2007.01438        -6.94649         5.84461
     2007.01712       -11.44192         5.84852
     2007.01985        -5.87634         5.80744
     2007.02259        -1.20976         5.69593
     2007.02533         1.88282         5.72527
     2007.02807        -2.28161         5.86124
     2007.03081        -2.18703         5.60691
     2007.03354        -5.55545         5.56387
     2007.03628        -2.51987         5.52768
     2007.03902        -5.36730         5.52768
     2007.04176        -3.89772         5.62256
     2007.04449        -3.49314         5.55018
     2007.04723        -7.54556         5.68419
     2007.04997        -2.65599         5.78201
     2007.05271         0.04559         5.75560
     2007.05545        -0.68683         5.51105
     2007.05818        -4.27425         5.51007
     2007.06092        -3.78668         5.52572
     2007.52909        -5.52794         5.61963
     2007.53183        -2.78737         5.73799
     2007.53457        -9.93179         5.70864
     2007.53731         1.10879         5.72136
     2007.54005        -3.48263         5.65093
     2007.54278        -2.88506         5.75853
     2007.54552         3.02352         5.75951
     2007.54826        -5.57790         5.68712
     2007.55100        -4.84832         5.69788
     2007.55374        -5.35675         5.63039
     2007.55647        -0.79717         5.60300
     2007.55921        -1.53459         5.93460
     2007.56195        -0.25201         5.85830
     2007.56469         0.85056         5.70571
     2007.56742        -6.33786         5.68125
     2007.57016        -2.34228         5.63724
     2007.57290        -1.16670         5.62550
     2007.57564        -3.88613         5.63724
     2007.57838        -2.28855         5.65973
     2007.58111        -4.19197         5.66169
     2007.58385         1.70260         5.70277
     2007.58659        -5.70582         5.61963
     2007.58933         1.48376         5.67930
     2007.59206        -4.08066         5.63039
     2007.59480         6.58491         5.71940
     2007.59754        -5.82251         5.72429
     2007.60028         0.67007         5.52964
     2007.60302        -0.63935         5.57268
     2007.60575        -5.79978         5.65680
     2007.60849         0.13980         5.64408
     2007.61123        12.59338         5.61180
     2007.61397        -5.18904         5.55311
     2007.61671        -1.21047         6.02068
     2007.61944         5.24911         5.98253
     2007.62218        -5.03731         5.99623
     2007.62492        -1.22973         5.82602
     2007.62766         3.69184         5.90134
     2007.63039         0.72542         6.15861
     2007.63313       -16.42700         5.95710
     2007.63587        -1.41642         5.87689
     2007.63861         0.87315         5.87885
     2007.64135        -0.66427         5.63235
     2007.64408         4.89031         5.90624
     2007.64682        -6.28712         5.82798
     2007.64956         6.93046         6.08133
     2007.65230         1.09504         6.04514
     2007.65504         2.83562         5.87885
     2007.65777        -0.13281         5.98742
     2007.66051        -4.06023         5.90819
     2007.66325         0.70435         6.14785
     2007.66599        -4.80207         5.97666
     2007.66872        -2.02250         5.97569
     2007.67146        -1.97292         5.87787
     2007.67420         0.19766         6.05590
     2007.67694         3.14924         6.05198
     2007.67968         0.43481         5.88569
     2007.68241         3.82739         5.85733
     2007.68515         3.14597         6.05883
     2007.68789         0.89455         6.01188
     2007.69063         0.13712         5.84168
     2007.69337        -0.24930         5.92580
     2007.69610         2.62428         5.91406
     2007.69884         3.78686         5.93167
     2007.70158         4.21243         5.88667
     2007.70432         3.06001         6.15469
     2007.70705         1.24959         5.92678
     2007.70979         7.87716         5.89645
     2008.53936       -10.01989         5.80744
     2008.54210       -12.57831         5.67539
     2008.54484       -11.01573         5.86515
     2008.54757        -4.76115         5.73799
     2008.55031         0.77242         5.62256
     2008.55305         1.00800         5.65387
     2008.55579        -8.58542         5.72821
     2008.55853         0.52716         5.64995
     2008.56126        -5.04727         5.62941
     2008.56400        -3.76969         5.58148
     2008.56674         2.10989         5.57366
     2008.56948        -3.21953         5.54822
     2009.51677        -2.63276         5.66267
     2009.51951        -9.86418         5.69788
     2009.52225       -14.37560         5.60789
     2009.52499       -10.67802         5.68615
     2009.52773       -11.19145         5.94145
     2009.53046        -9.56587         5.60985
     2009.53320       -11.45829         5.54822
     2009.53594        -4.50871         5.57952
     2009.53868       -14.40314         5.63235
     2009.54141        -6.64456         5.62159
     2009.54415        -8.13498         5.55409
     2009.54689        -3.52940         5.67245
     2009.54963       -13.99383         5.52279
     2009.55237        -2.41225         5.60104
     2009.55510        -5.68367         5.59420
     2011.15127        10.98895         5.37019
     2011.15401        12.49252         5.32618
     2011.15675         4.53210         5.36824
     2011.15948         4.65968         5.37509
     2011.16222         0.87826         5.36335
     2011.16496        -4.38217         5.41812
     2011.16770        -3.67959         5.41323
     2011.17044        -2.65401         5.43867
     2011.17317        -3.02143         5.45432
     2011.17591       -10.60086         5.35650
     2011.17865         0.49172         5.46801
     2011.18139        -1.74970         5.42399
     2011.18413        -6.51012         5.38878
     2011.18686         1.11545         5.45921
     2011.18960        -1.81697         5.43769
     2011.19234        -3.29439         5.41323
     2011.19508         1.11519         5.58148
     2011.19781        -8.88724         5.58833
     2011.20055        -3.38766         5.51496
     2011.20329        -3.43108         5.47779
     2011.20603        -1.79451         5.48268
     2011.20877         0.85607         5.46410
     2011.21150        -1.59235         5.45040
     2011.21424       -16.18077         5.42399
     2011.21698        -2.90520         5.49638
     2011.21972         2.80438         5.51301
     2011.22246        -2.40504         5.49442
     2011.22519        -6.95246         5.43573
     2011.22793        -0.66289         5.46019
     2011.23067        -1.30331         5.40247
     2011.23341         0.85027         5.44258
     2011.23614         0.49185         5.43378
     2011.23888        -7.93558         5.46410
     2011.24162        -4.86500         5.46801
     2011.24436         1.43558         5.50616
     2012.47092         5.15125         5.48268
     2012.47365         9.71883         5.63137
     2012.47639        14.55140         5.63821
     2012.47913         8.24998         5.60789
     2012.48187        14.77056         5.58735
     2012.48460        14.83314         5.56974
     2012.48734         4.99371         5.41910
     2012.49008        10.85929         5.51496
     2012.49282        10.74487         5.43867
     2012.49556        14.56445         5.52866
     2012.49829         4.79702         5.68321
     2012.50103        19.18360         5.52670
     2012.50377        10.37918         5.74288
     2012.50651         9.33876         5.58442
     2012.50924        10.96433         5.72821
     2012.51198         8.47491         5.65876
     2012.51472         9.10049         5.43378
     2012.51746         8.85607         5.48562
     2012.52020         6.67864         5.48660
     2012.52293        10.06922         5.59028
     2012.52567        11.80080         5.51007
     2012.52841         4.93538         5.43378
     2012.53115        11.03695         5.53648
     2012.53389        12.56953         5.51790
     2012.53662        13.84811         5.51790
     2012.53936         2.00468         5.55409
     2012.54210         5.54526         5.47192
     2012.54484        14.94084         5.51301
     2012.54757        15.74642         5.60398
     2012.55031        21.22099         5.50910
     2012.55305        10.02757         5.51496
     2012.55579        15.36215         5.48758
     2012.55853        13.19673         5.67734
     2012.56126        -0.92670         5.59811
     2014.28885         4.74464         5.89254
     2014.29159        -1.47578         5.63724
     2014.29432        -0.31921         5.71353
     2014.29706         7.25537         5.71451
     2014.29980         2.87295         5.67832
     2014.30254         3.08253         5.62745
     2014.30528         1.22510         5.81135
     2014.30801         0.44668         5.68321
     2014.31075         5.17826         5.68125
     2014.31349        -1.56917         5.66854
     2014.31623         4.49541         5.64213
     2014.31896         0.84599         5.73310
     2014.32170        -4.59143         5.79179
     2014.32444        -2.75786         5.71158
     2014.32718        -3.09328         5.74386
     2014.32992         3.48830         5.66952
     2014.33265        -4.06512         5.70962
     2014.33539        -5.87055         5.63528
     2014.33813         7.81203         5.79961
     2014.34087         3.87161         5.70375
     2014.34361         1.94619         5.63724
     2014.34634         4.38676         5.66854
     2014.34908        -0.26466         5.80842
     2014.35182         8.79492         5.86124
     2014.35456        -3.80350         5.65582
     2014.35729        -6.01993         5.70864
     2014.36003        -3.79635         5.61963
     2014.36277        -3.86077         5.70962
     2014.36551        -0.39519         5.61083
     2014.36825        -3.75762         5.66365
     2014.37098         3.18696         5.66071
     2014.37372        -0.81046         5.73505
     2014.37646        -2.72989         5.92580
     2014.37920         2.07869         5.70571
     2014.38193         1.84627         5.74190
     2014.38467         3.74885         5.81037
     2014.38741        -4.33858         5.88961
     2014.39015        -0.73500         5.82798
     2014.39289         4.04058         5.81722
     2014.39562         7.62816         5.77712
     2014.39836        -0.62027         5.86417
     2014.40110         1.78431         5.81820
     2014.40384         4.62589         5.82896
     2014.40658        -1.76853         5.77125
     2014.40931        -1.93596         5.75462
     2014.41205        -4.18038         5.75071
     2014.41479        -0.20880         5.66071
     2014.41753         3.06078         5.72332
     2014.42026         4.85935         5.69886
     2014.42300         6.08693         5.71451
     2014.42574        -0.32049         5.68028
     2014.42848         1.95609         5.73701
     2014.43122        -0.35034         5.74386
     2014.43395         2.55724         5.65582
     2014.43669        -1.74318         5.70180
     2014.43943        -0.89661         5.79570
     2014.44217        -2.65403         5.73310
     2014.44491         6.04155         5.86906
     2014.44764         7.07013         5.81429
     2014.45038        -0.01230         5.71353
     2014.45312         1.58328         5.76147
     2014.45586         3.32686         5.74288
     2014.45859        -4.29656         5.75266
     2014.46133         4.59201         5.65680
     2014.46407        -2.26241         5.70180
     2014.46681         0.56117         5.78592
     2014.46955        -2.92925         5.69788
     2014.47228         2.60232         5.73310
     2014.47502        -1.50510         5.67734
     2014.47776        -1.40652         5.73505
     2014.48050         4.13606         5.65191
     2014.48324        -6.95737         5.69495
     2014.48597         4.25921         5.79864
     2014.48871        -1.78421         5.80451
     2014.49145         0.74437         5.60789
     2014.49419         1.08094         5.58931
     2014.49653         1.04658         6.61150
     2015.71253        -2.11412         5.50812
     2015.71527        -0.41454         5.56094
     2015.71801         3.85004         5.53942
     2015.72074         6.17061         5.55898
     2015.72348         2.45219         5.57757
     2015.72622         6.14477         5.52768
     2015.72896        -3.64265         5.53551
     2015.73170         1.71592         5.54822
     2015.73443         1.83550         5.75364
     2015.73717         2.36508         5.61474
     2015.73991         7.51666         5.68810
     2015.74265        -1.74677         5.78788
     2015.74538         3.53881         5.95221
     2015.74812        -7.25761         5.81820
     2015.75086        -7.47303         5.52377
     2015.75360        -0.83346         5.57952
     2015.75634        -3.57088         5.55214
     2015.75907         0.56370         5.49344
     2015.76181        -3.83772         5.54724
     2015.76455        -2.23515         5.57072
     2015.76729        -3.62257         5.55703
     2015.77003        -1.39999         5.55116
     2015.77276        -3.68642         5.55311
     2015.77550        -3.33484         5.59518
     2015.77824         4.99474         5.60398
     2015.78098         2.02832         5.55800
     2015.78371         3.89489         5.53551
     2015.78645         2.07247         5.54333
     2015.78919         0.78705         5.54235
     2015.79193         2.18563         5.66952
     2015.79467        -5.12380         5.72234
     2015.79740         5.65178         5.56681
     2015.80014         1.50836         5.70180
     2015.80288        -1.14506         5.51301
     2015.80562         0.48751         5.55507
     2015.80836         0.47609         5.53062
     2015.81109        -2.45033         5.58050
     2015.81383        -4.84175         5.55800
     2015.81657        -6.24518         5.55116
     2015.81931         4.42540         5.62452
     2015.82204         1.07498         5.60496
     2015.82478         8.80056         5.51790
     2015.82752         3.27413         5.53648
     2015.83026         1.38871         5.55409
     2015.83300         1.38929         5.59615
     2015.83573        -5.38414         5.53355
     2015.83847         0.33544         5.60398
     2015.84121        -7.06798         5.60104
     2015.84395        -1.20640         5.61180
     2015.84669        -4.15083         5.59909
     2015.84942         3.39775         5.60202
     2015.85216         2.99133         5.68419
     2015.85490         8.87491         5.69495
     2015.85764         1.70048         5.64311
     2015.86037        -3.17094         5.62941
     2016.92266        -2.06291         5.42399
     2016.92540        -1.27533         5.44062
     2016.92814        -7.59676         5.51594
     2016.93087        -0.99318         5.47095
     2016.93361        -0.12360         5.50127
     2016.93635         1.56298         5.32813
     2016.93909        -6.34645         5.55214
     2016.94183        -8.02787         5.46410
     2016.94456       -11.47929         5.49736
     2016.94730         1.45829         5.49344
     2016.95004        -1.28914         5.53355
     2016.95278        -2.00656         5.59909
     2016.95551         1.59402         5.48758
     2016.95825         0.48960         5.50029
     2016.96099         0.21717         5.45530
     2016.96373        -2.49925         5.40639
     2016.96647        -1.82567         5.40932
     2016.96920         2.67591         5.47682
     2016.97194        -2.07652         5.45236
     2016.97468         2.27906         5.45921
     2016.97742         1.03764         5.47877
     2016.98016         4.69021         5.41128
     2016.98289         4.67379         5.38976
     2016.98563        -1.45263         5.43280
     2016.98837         0.02395         5.47877
     2016.99111         2.58452         5.42302
     2016.99384        -1.35290         5.39954
     2016.99658         1.84268         5.42399
     2016.99932         0.11526         5.39171
     2017.00206         3.27983         5.46606
     2017.00480        -5.75359         5.51594
     2017.00753       -23.12601         5.69886
     2017.01301         3.74214         5.42008
     2017.01575        -1.39128         5.39856
     2017.01849        -2.26070         5.52475
     2017.03765        -4.70366         5.42888
     2017.04039        -4.23108         5.41421
     2017.05408         1.29680         5.44845
     2017.05955        -9.61604         5.50029
     2017.06229         0.43954         5.42595
     2017.06503        -4.89489         5.38976
     2017.06777        -6.74931         5.44258
     2017.07050        -3.62973         5.41910
     2017.07324        -9.30815         5.44160
     2017.07598       -13.43558         5.41617
     2017.07872       -12.88100         5.41421
     2017.08146       -12.07242         5.42986
     2017.08419       -12.33984         5.43964
     2017.08693       -13.67627         5.47095
     2017.08967        -8.99869         5.45334
     2017.09241       -13.34411         5.49540
     2017.09515        -8.99653         5.50029
     2017.09788        -4.61096         5.57855
     2017.10062        -6.37038         5.56779
     2017.10336       -16.12280         5.58539
     2017.10610       -12.52723         5.50127
     2017.10883        -1.87765         5.58246
     2017.11157        -2.66307         5.48758
     2017.11431        -9.23549         5.41421
     2017.11705       -16.33492         5.47779
     2017.11979       -15.15134         5.49834
     2017.12252       -12.18976         5.46019
     2017.12526        -6.25018         5.42106
     2017.12800        -8.24461         5.67343
     2017.13074        -1.23103         5.45921
     2017.13347        -2.99945         5.41323
     2017.13621        -2.76987         5.49834
     2017.13895       -14.11430         5.45432
     2017.14169       -16.04172         5.40541
     2017.14443       -10.66214         5.49931
     2017.14716       -13.04056         5.44454
     2017.14990        -7.12699         5.48171
     2017.15264        -6.33941         5.45040
     2017.15538        -7.17783         5.45334
     2017.15812        -4.04525         5.54040
     2017.16085        -8.91368         5.45725
     2017.16359       -11.74510         5.42693
     2017.16633       -12.35352         5.45432
     2017.16907       -12.44595         5.44649
     2017.17180        -4.89637         5.47682
     2017.17454        -8.00579         5.49051
     2017.17728       -14.01921         5.51888
     2017.18002       -10.74264         5.46312
     2017.18276        -9.63706         5.46116
     2017.18549       -14.75248         5.39661
     2017.18823       -12.54890         5.44747
     2017.19097       -13.33033         5.45725
     2017.19371        -9.79875         5.47584
     2017.19645        -9.16017         5.44454
     2017.19918        -7.55959         5.45921
     2017.20192        -2.25902         5.48953
     2017.20466       -16.72244         5.59811
     2017.20740       -12.56086         5.43084
     2017.21013        -3.18628         5.45334
     2017.21287        -4.77471         5.50127
     2017.21535        -7.32509         6.32294
     2018.62834         3.52080         5.49149
     2018.63108         4.67438         5.40834
     2018.63382         7.37696         5.54431
     2018.63656         4.34954         5.50714
     2018.63929         7.80311         5.71549
     2018.64203         4.85269         5.67245
     2018.64477         9.68027         5.53746
     2018.64751         0.43885         5.52670
     2018.65024        12.13442         5.42204
     2018.65298         2.40900         5.40541
     2018.65572         9.44158         5.42399
     2018.65846         4.85816         5.41323
     2018.66120        12.00473         5.60985
     2018.66393         2.39931         5.49442
     2018.66667         6.19989         5.39856
     2018.66941         5.30847         5.44356
     2018.67215         3.21004         5.49540
     2018.67488         7.04662         5.46899
     2018.67762         7.10120         5.49051
     2018.68036         6.82078         5.60300
     2018.68310        -1.86065         5.53355
     2018.68584         7.36093         5.49736
     2018.68857         8.20751         5.43671
     2018.69131        11.40508         5.51986
     2018.69405         6.50566         5.64995
     2018.69679         7.96424         5.44062
     2018.69953        -1.92318         5.41812
     2018.70226        -3.23961         5.61963
     2018.70500         4.49697         5.64897
     2018.70774        12.14155         5.49247
     2018.71048         1.99413         5.46508
     2018.71321        -0.67130         5.38682
     2018.71595         4.09928         5.46997
     2018.71869        -2.01614         5.52866
     2018.72143         2.20144         5.50420
     2018.72417         3.92001         5.51692
     2018.72690         2.46159         5.49344
     2018.72964         1.24417         5.43182
     2018.73238         0.44575         5.46410
     2018.73512         1.80932         5.48562
     2018.73786         5.29590         5.40834
     2018.74059         2.58748         5.42986
     2018.74333         8.28906         5.47388
     2018.74607         5.66763         5.46801
     2018.74881         6.22121         5.56485
     2018.75154        -0.07521         5.47192
     2018.75428         7.84336         5.47486
     2018.75702         6.85294         5.54529
     2018.75976        -0.44948         5.48562
     2018.76250         0.74410         5.46019
     2018.76523         3.06767         5.64311
     2018.76797         5.27825         5.40443
     2018.77071         3.21683         5.57170
     2018.77345         8.32141         5.51301
     2018.77619         5.17998         5.44551
     2018.77892         6.74256         5.41910
     2018.78166         9.17414         5.54235
     2018.78440         5.87372         5.41323
     2018.78714         2.91129         5.45530
     2018.78987        -2.55513         5.57170
     2018.79261         0.20145         5.44160
     2018.79535         8.59903         5.38976
     2018.79809        -0.40140         5.38095
     2018.80083         3.86918         5.42497
     2018.80356         3.47076         5.42008
     2018.80630         3.37234         5.58050
     2018.80904         3.40391         5.43964
     2018.81178         0.68049         5.73505
     2018.81452        -0.23293         5.49149
     2018.81725         0.10764         5.42399
     2018.81999         5.50322         5.46899
     2018.82273         0.15280         5.52181
     2018.82547        11.51938         5.65778
     2018.82820         4.70095         5.41421
     2018.83094         4.24753         5.42595
     2018.83368        -0.94189         5.48660
     2018.83642         2.25269         5.53257
     2018.83916         2.94426         5.46997
     2018.84189         2.49984         5.43671
     2018.84463         5.59142         5.54333
     2018.84737         2.49500         5.42106
     2018.85011         5.59857         5.40541
     2018.85285         4.60815         5.42008
     2018.85558        -0.49627         5.46508
     2018.85832         0.27031         5.46019
     2018.86106         3.53688         5.46606
     2018.86380         2.93146         5.46997
     2018.86653         4.64204         5.37802
     2018.86927        -6.23438         5.44845
     2018.87201         0.90619         5.47486
     2018.87475         3.04677         5.47584
     2018.87749         3.58735         5.45823
     2018.88022         1.13492         5.47095
     2018.88296         2.10250         5.45823
     2018.88570         1.59908         5.49051
     2018.88844         5.02966         5.52083
     2018.89118        -0.79577         5.61083
     2018.89391         1.17381         5.51399
     2018.89665        -4.08461         5.76929
     2018.89939         2.34197         5.47682
     2018.90213         2.68054         5.45432
     2018.90486         6.38612         5.52768
     2018.90760        -0.31030         5.48953
     2018.91034         1.73428         5.46801
     2018.91308         2.98885         5.57268
     2018.91582         9.59043         5.47290
     2018.91855        11.54501         5.50910
     2018.92129         7.05759         5.48855
     2018.92403         6.88216         5.45921
     2018.92677         7.97274         5.41323
     2018.92951         8.05332         5.42791
     2018.93224         1.58590         5.56583
     2018.93498         3.05047         5.46899
     2018.94319         4.68620         5.38976
     2018.94867         3.92836         5.38780
     2018.95141         6.05894         5.57561
     2018.95415        13.22751         5.49834
     2018.95688         3.53809         5.49834
     2018.96236         9.97625         5.48268
     2018.96510         0.82982         5.45921
     2018.96784        -1.94760         5.44845
     2018.97057         5.29298         5.52083
     2018.98426         3.38087         5.53746
     2018.98700        -0.04356         5.56779
     2018.98974         2.94502         5.50518
     2018.99248         2.52460         5.50323
     2018.99521        -0.57282         5.53844
     2018.99795        -5.37725         5.58539
     2019.00069        -4.95167         5.44649
     2019.00343        -5.81809         5.46997
     2019.00616        -3.99552         5.44747
     2019.00890         1.69106         5.43867
     2019.01164         0.29764         5.42595
     2019.01438         4.08222         5.43867
     2019.01712         4.55579         5.41812
     2019.01985        -2.37963         5.43867
     2019.02807        -0.83390         5.50812
     2019.03081        -3.64132         5.53453
     2019.03354        -9.42474         5.46508
     2019.03628        -6.00616         5.48171
     2019.03902        -8.44659         5.46606
     2019.04176         5.60099         5.63039
     2019.05271       -13.59570         5.73212
     2019.05818        -2.95954         5.58246
     2019.06092         1.86403         5.52083
     2019.06366        -0.46939         5.57170
     2019.06640        -4.21181         5.47975
     2019.06914        -6.97223         5.51888
     2019.07187        -6.01766         5.52572
     2019.07461        -5.87108         5.43671
     2019.07735        -2.60050         5.44551
     2019.08009         0.63407         5.43964
     2019.08282         0.21865         5.54724
     2019.08556        -6.17277         5.43084
     2019.08830        -5.66919         5.43769
     2019.09104        -3.94662         5.42008
     2019.09378         6.17096         5.47975
     2019.09651         8.91254         5.39563
     2019.09925        -4.24788         5.39074
     2019.10199        -3.01531         5.42693
     2019.10473        -1.57173         5.40443
     2019.10747        -3.74415         5.40247
     2019.11020         0.39443         5.41030
     2019.11294         5.42900         5.47584
     2019.11568         1.95258         5.66365
     2019.11842         4.93716         5.72136
     2019.12115       -25.26026         6.42369
     2019.12389         6.11231         5.55311
     2019.12663         2.56389         5.43280
     2019.12937         0.67547         5.44258
     2019.13211         0.16205         5.41812
     2019.13484        -4.39138         5.47388
     2019.13758        -5.84880         5.47682
     2019.14032         8.25478         5.46019
     2019.14306         0.50635         5.45432
     2019.14580        -2.66907         5.42008
     2019.14853        -3.11549         5.41715
     2019.15127        -4.09391         5.45236
     2019.15401        -9.17134         5.47779
     2019.15675        -5.37576         5.53257
     2019.15948        -5.38618         5.49834
     2019.16222        -9.48860         5.50127
     2019.16496       -12.90503         5.42106
     2019.17044       -23.34187         5.47290
     2019.17317        -5.71029         5.46019
     2019.17591        -3.07772         5.42693
     2019.17865        -2.71214         5.40639
     2019.18139         1.06644         5.47779
     2019.18413       -11.23398         5.51496
     2019.18686        -0.86441         5.41812
     2019.18960        -1.48183         5.43475
     2019.19234        -1.59625         5.50029
