# ================= DQRFIT RESULTS ================
# INPUT FILE: series/BUTT.rad
# OUTPUT: LDETRENDED
# FILTER FUNCTION: f(t)
# f(t)=+line(t)+annual(t)
# line(t)=+P 1+P 2*t
# annual(t)=+P 3*sin(2*pi*t+P 4)
# heav(t)=(t<0?0:1)
# TOTAL OBSERVATIONS MTOT=  798
# INITIAL TIME INTERVAL= 2019.4771 - 2006.6092 = 12.8679
# TOTAL OBSERVATIONS AFTER PREFILTER M=  795
# TIME-SPAN= 2019.4771 - 2006.6092 = 12.8679
# OBSERVATIONS: USED M=   795 REJECTED MTOT-M=     3 %USED=   99.6241
# N=  4 PARAMETERS
# MAXSIG= 175.00000
# MAXRES=  17.87872
# SCALE FACTOR FOR LENGTHS: SCL=  10.00000
# SCALE FACTOR FOR SIGMAS: SCLSIG=   1.00000
# CHI^2=    630.536 DOF=   791 CHI^2/DOF=   0.79714
# RMS=      5.036 SDEV=      5.039 MEAN=    0.02080
#  P #       PARAMETER +-    SIGMA %error PARAMETER NAME
# P 1 =      1299.15329 +-  171.621  13.21 YZERO                              
# P 2 =        -0.64395 +-    0.085  13.21 SLOPE                              
# P 3 =         5.45994 +-    0.252   4.62 ANNUAL AMPLITUDE                   
# P 4 =         3.09782 +-    0.065   2.11 ANNUAL PHASE                       
#       T            LDETRENDED       SIG_OBS
     2006.60918        -4.46243         5.23732
     2006.61191         3.19534         5.08643
     2006.61465        -2.28590         5.07304
     2006.61739        -2.87414         5.07929
     2006.62013         4.01263         5.27214
     2006.62287        -4.49461         5.17482
     2006.62560        -1.76885         5.15696
     2006.62834        -2.86608         5.15518
     2006.63108        -5.77732         5.02393
     2006.63382        -4.00156         5.02304
     2006.63656        -2.39180         5.10250
     2006.63929        -0.92803         5.13196
     2011.64682         0.52957         5.22750
     2011.64956        10.01833         5.20696
     2011.65225        13.17306         5.90961
     2011.65504         5.27786         5.66677
     2011.65777         0.31562         5.39624
     2011.66048         7.91436         5.48284
     2011.66325         8.43115         5.90961
     2011.66599         2.26891         6.01497
     2011.66872         5.32867         6.18818
     2011.67146         8.30944         5.49534
     2011.67420         7.46420         5.40963
     2011.67694        13.03396         5.79176
     2011.67968         9.66772         5.76498
     2011.68241         2.22849         5.59266
     2011.68515         5.17425         5.51231
     2011.68767         7.68287         5.73283
     2014.57906         3.40178         5.04893
     2014.58180         4.15455         5.12571
     2014.58454         2.03031         5.10964
     2014.58727         1.74707         5.32838
     2014.59001         0.29784         5.21589
     2014.59275         7.32860         5.21053
     2014.59549         3.38336         5.15607
     2014.59823         6.07013         5.28642
     2014.60096         2.99689         5.26946
     2014.60370        -0.36835         5.18107
     2014.60644        -8.57259         5.27124
     2014.60918        -4.34282         5.30428
     2014.61191         0.37694         5.49981
     2014.61465        10.54870         5.22571
     2014.61739         5.93447         5.38731
     2014.62013         0.41423         5.25874
     2014.62287         5.44199         5.16946
     2014.62560         6.41776         5.17214
     2014.62834         6.30952         5.12482
     2014.63108         2.90328         5.17035
     2014.63382         6.30404         5.39088
     2014.63656        10.26881         5.21946
     2014.63929        -7.22543         5.20071
     2014.64203         3.04833         5.12839
     2014.64477         1.13810         5.09446
     2014.64751         2.81686         5.14536
     2014.65024         1.37762         5.14268
     2014.65298         6.41439         5.13018
     2014.65572         6.33015         5.12928
     2014.65846         7.10191         5.14536
     2014.66120         4.65168         5.15607
     2014.66393        12.18744         5.16768
     2014.66667         7.92820         5.11946
     2014.66941         6.02496         5.09268
     2014.67215        -0.31327         5.13732
     2014.67488         2.67249         5.08375
     2014.67762         2.31125         5.11054
     2014.68036         6.43402         5.11946
     2014.68310        -0.18722         5.15250
     2014.68584        -2.20446         5.21142
     2014.68857         4.51731         5.12839
     2014.69131         3.96407         5.09446
     2014.69405         2.14683         5.09000
     2014.69679         2.59359         5.12482
     2014.69953         4.45336         5.13286
     2014.70226         6.06412         5.11768
     2014.70500         3.23188         5.13553
     2014.70774         8.70365         5.14446
     2014.71048        11.08541         5.15607
     2014.71321         4.12617         5.27035
     2014.71595         6.15694         5.16678
     2014.71869         7.02070         5.04447
     2014.72143         7.14746         5.05518
     2014.72417        10.52123         5.06589
     2014.72690         5.74199         5.14446
     2014.72964         8.15875         5.10339
     2014.73238        15.81951         5.14982
     2014.73512         2.08028         5.08464
     2014.73786         6.21204         5.06411
     2014.74059         2.58680         5.11946
     2014.74333         9.79557         5.22839
     2014.74607         4.49433         5.11500
     2014.74881         5.27509         5.09446
     2014.75154         4.61286         5.17214
     2014.75428         3.92262         5.04447
     2014.75702         1.69438         5.08464
     2014.75976         2.29914         5.03732
     2014.76250         4.46091         5.03643
     2014.76523         4.38267         5.04179
     2014.76797         5.16143         5.05786
     2014.77071         3.14420         5.05518
     2014.77345         3.54096         5.03822
     2014.77619         4.81472         5.08464
     2014.77892         8.65249         5.05339
     2014.78166         9.23525         5.05250
     2014.78440         5.43601         5.09000
     2014.78714        -6.01223         5.23999
     2014.78987         7.02254         5.06500
     2014.79261         3.23730         5.09268
     2014.79535         3.59806         5.04089
     2014.79809         8.21783         5.15518
     2014.80083         8.66959         5.10964
     2014.80356         6.02535         5.17750
     2014.80630         6.17712         5.10250
     2014.80904        -1.79212         5.04714
     2014.81178        11.81364         5.01500
     2014.81452        18.72941         5.17393
     2014.81725         0.75817         5.09536
     2014.81999        10.98893         5.03911
     2014.82273        11.18169         5.12125
     2014.82547         9.36946         5.07214
     2014.82820         0.97422         5.09179
     2014.83094         0.45498         5.20428
     2014.83368        -0.09325         5.17214
     2014.84463        -7.79020         5.94979
     2014.84737         7.01956         5.74266
     2014.85011         9.45132         5.64891
     2014.85285         5.48909         5.73283
     2014.86654         0.06591         5.29803
     2014.86927        -0.70433         5.18018
     2014.87201        -8.57557         5.30696
     2014.87475         2.00319         5.13643
     2014.87749         3.75596         5.16410
     2014.88022         4.39372         5.13286
     2014.88296         4.64548         5.15518
     2014.88570         3.66124         5.37749
     2014.88844         6.45301         5.42035
     2014.89118        -5.39723         5.62302
     2014.89391         5.02453         5.33285
     2014.89665        14.91030         5.29624
     2014.89939         3.26606         5.39535
     2014.90213         2.47882         5.31767
     2014.90486        -6.95441         5.15875
     2014.90760         0.99935         5.32213
     2014.91034       -16.45189         5.23821
     2014.91308        -1.35513         5.14000
     2014.91582         2.18264         5.19000
     2014.91855         8.00640         5.18285
     2014.92129        -2.70584         5.17214
     2014.92677         3.83869         5.16053
     2014.93224         1.83122         5.16143
     2014.93498        -1.63702         5.17928
     2014.93772         2.18674         5.12571
     2014.96236         5.60361         5.02929
     2014.96510         2.02837         5.14714
     2014.97605        -5.35258         5.02572
     2014.97879        -5.01181         5.08196
     2014.98152         4.14595         5.14714
     2014.98974       -11.19576         5.25160
     2014.99248        -2.74600         5.06054
     2014.99521        -1.26323         5.02215
     2014.99795         5.70953         5.00340
     2015.00069         1.00629         4.99536
     2015.00343         0.21006         5.04000
     2015.00616        -1.35518         5.04625
     2015.00890        -0.91542         5.15875
     2015.01164         6.54134         5.10429
     2015.01438        -1.79989         5.03554
     2015.01712        -0.36113         5.09625
     2015.01985         5.75363         5.09357
     2015.02259         5.82040         5.21410
     2015.02533         4.71916         5.09893
     2015.02807         4.38892         5.08107
     2015.03081         2.55569         5.07661
     2015.03354        -2.28255         5.09625
     2015.03628         2.45421         5.10339
     2015.03902         2.13097         5.10250
     2015.04176        -2.54326         5.26142
     2015.04449        -0.57250         5.09625
     2015.04723       -14.05474         5.43463
     2015.04997         2.57703         5.10607
     2015.05271        -1.33321         5.02215
     2015.05545        -0.45445         5.03286
     2015.05818         4.77532         5.00072
     2015.06092         1.00408         5.04179
     2015.06366         3.21584         5.13821
     2015.06640         3.13761         5.01768
     2015.06914        -1.57463         5.03197
     2015.07187        -1.43387         5.03018
     2015.07461         2.61189         5.02929
     2015.07735        -3.77234         5.06322
     2015.08009        -2.87358         5.04447
     2015.08282         1.62918         5.03464
     2015.08556         3.76795         5.01590
     2015.08830        -3.70829         5.13732
     2015.09104        -0.33353         5.16143
     2015.09378         7.84224         5.09000
     2015.09633         6.89388         5.40874
     2015.49350         5.78964         5.11500
     2015.49624         1.89240         5.17482
     2015.49898         4.18317         5.13732
     2015.50172         3.75293         5.05429
     2015.50445        -3.08531         5.13107
     2015.50719        -5.67855         5.05518
     2015.50993         0.27822         5.06768
     2015.51267         4.26498         5.06232
     2015.51541         2.23074         5.05072
     2015.51814         0.45251         5.05339
     2015.52088         5.54327         4.98822
     2015.52362         9.19103         5.08732
     2015.52636         1.20180         5.04536
     2015.52909         1.40656         5.04089
     2015.53183         5.16332         4.97215
     2015.53457         1.47708         4.95965
     2015.53731         1.59385         4.94983
     2015.54005         4.45761         5.12928
     2015.54278         5.26437         5.11232
     2015.54552         3.03014         5.09268
     2015.54826         3.20890         5.05250
     2015.55100         5.54266         5.06322
     2015.55374        16.32343         5.32838
     2015.55647         9.54919         5.18107
     2015.55921         8.13395         5.09000
     2015.56195        10.85572         5.09714
     2015.56469        -0.11252         5.11411
     2015.56742         8.21124         5.17750
     2015.57016         9.49400         5.24267
     2015.57290         6.67177         5.23375
     2015.57564         3.22653         5.09000
     2015.57838         3.76629         5.05518
     2015.58111         4.46406         5.06947
     2015.58385        13.21382         5.13553
     2015.58659        13.44758         5.19446
     2015.58933         6.13035         5.14536
     2015.59206         9.34011         5.25249
     2015.59480         3.23087         5.12571
     2015.59754         9.31663         5.13018
     2015.60028         3.95640         5.21232
     2015.60302         9.17716         5.20339
     2015.60575         6.26792         5.17035
     2015.60849         1.13469         5.09000
     2015.61123         5.33345         5.07125
     2015.61397        11.00921         5.09536
     2015.61671         9.67698         5.04625
     2015.61944        10.76174         4.96500
     2015.62218        11.23850         4.96054
     2015.62492         8.58527         4.98108
     2015.62766         7.40903         4.96947
     2015.63039         7.40279         4.97393
     2015.63313         7.57255         4.98018
     2015.63587        21.83432         5.07393
     2015.63861        10.85308         4.99000
     2015.64135         8.09784         5.00697
     2015.64408         8.16661         5.01768
     2015.64682        10.85137         5.05339
     2015.64956         5.93213         4.98465
     2015.65230         8.62890         4.99625
     2015.65504         8.92466         4.98465
     2015.65777         7.27842         5.15161
     2015.66051         5.58918         5.00786
     2015.66325        10.67495         4.95518
     2015.66599        10.01371         5.08375
     2015.66872        17.26547         5.15071
     2015.67146         3.52524         5.00697
     2015.67420        12.34500         5.03107
     2015.67694         4.06976         4.99715
     2015.67968        10.43653         4.96858
     2015.68241         9.29429         4.96858
     2015.68515         6.63605         4.92751
     2015.68789         7.47782         4.98554
     2015.69063         7.47358         5.00518
     2015.69337         5.51034         5.12214
     2015.69610         6.91810         5.00340
     2015.69884        14.15587         4.98643
     2015.70158        12.50363         4.98822
     2015.70432         3.84639         5.08732
     2015.70705         5.36416         4.98822
     2015.70979         9.27492         5.02304
     2015.71253         9.82468         4.96233
     2015.71527         6.50545         4.94179
     2015.71801        12.53221         4.93018
     2015.72074        11.38897         4.98465
     2015.72348        10.79373         5.02840
     2015.72622         5.68250         4.99893
     2015.72896         1.63826         4.94179
     2015.73170         5.74302         4.95340
     2015.73443         7.11779         4.96590
     2015.73717         9.44655         5.00965
     2015.73991        14.80231         5.15339
     2015.74265        10.00808         5.15875
     2015.74538         9.41884         5.21321
     2015.74812        -0.74940         5.21589
     2015.75086         0.23337         4.99268
     2015.75360         6.04613         5.04714
     2015.75634        14.29889         5.04357
     2015.75907         6.10865         4.98465
     2015.76737         2.16800         5.21946
     2015.77003         1.50571         5.03464
     2015.77276         4.15947         5.06232
     2015.77550        -6.85777         5.09000
     2015.77824         9.42500         4.93376
     2015.78098         8.09376         4.97393
     2015.78371         9.55852         5.01054
     2015.78645         8.33328         4.98465
     2015.78919         5.31205         4.99268
     2015.79193         7.54281         5.02750
     2015.79467         4.91857         5.02036
     2015.79740         6.61334         5.00875
     2015.80014         4.80810         5.12393
     2015.80288         5.67886         5.01411
     2015.80562         7.31163         5.00786
     2015.80836         6.32139         4.98108
     2015.81109         2.62315         4.98733
     2015.81383         3.87192         5.03822
     2015.81657         3.26968         5.03464
     2015.81931         7.13944         5.06322
     2015.82204         6.42820         5.01857
     2015.82478        13.31697         4.97572
     2015.82752        12.29173         5.07839
     2015.83026        -4.12751         5.04625
     2015.83300        -8.43074         5.06857
     2015.83573        -2.97598         5.07393
     2015.83847         8.90678         5.13821
     2015.84121         2.64555         5.09982
     2015.84395         3.59831         5.08286
     2015.84669         3.35607         5.05250
     2015.84942         7.10283         5.08286
     2015.85216         4.89060         5.19892
     2015.85490        11.89636         5.14625
     2015.85764         9.86612         5.09000
     2015.86037         5.86989         5.08018
     2015.86311         7.42965         5.10875
     2015.86585         7.78341         5.07571
     2015.86859         5.93218         5.09357
     2015.87133        13.06994         5.12571
     2015.87406         7.57870         5.06411
     2015.87680        -1.14954         5.13286
     2015.87954        -1.39177         5.31499
     2015.88228         0.84699         5.16053
     2015.88502         1.23875         5.17750
     2015.88775         5.82652         5.08375
     2015.89049        11.58128         5.09089
     2015.89323        12.56304         5.10607
     2015.89597        11.36881         5.15339
     2015.89870        13.72757         5.09357
     2015.90144         5.96933         5.03554
     2015.90418         5.61310         5.06768
     2015.90692         6.28786         5.06411
     2015.90966         6.98262         5.06679
     2015.91239         6.77938         5.08732
     2015.91513         5.53115         5.07125
     2015.91787         7.03291         5.06589
     2015.92061         9.83867         5.13553
     2015.92334         5.34544         5.15964
     2015.92608         4.39420         5.10071
     2015.92882        10.00296         5.19625
     2015.93156        -6.66627         5.30606
     2015.93977         4.03801         5.47927
     2015.94251         0.58778         5.25428
     2015.95894        -0.75864         5.28731
     2016.04929         1.01154         5.00340
     2016.05202        -9.25170         5.05072
     2016.05476         2.55306         4.97036
     2016.05750         2.97083         4.99893
     2016.06024        -4.70741         5.06679
     2016.06298        -5.33265         4.95161
     2016.06571         3.37411         4.92483
     2016.06845         1.20988         4.93733
     2016.07119        -1.88636         4.98197
     2016.07393        -2.54160         4.98911
     2016.07666       -11.19583         5.13911
     2016.07940       -12.44307         4.95697
     2016.08214         1.59369         4.99982
     2016.08488        -1.01954         4.91858
     2016.09583        -7.66649         4.90786
     2016.09857        -4.17573         4.92483
     2016.10131       -10.09997         4.95161
     2016.10404        -9.39420         4.93643
     2016.10678        -8.87744         4.93822
     2016.10952        -5.80268         4.92304
     2016.11226        -6.47691         4.90340
     2016.11499       -11.77215         4.92572
     2016.11773        -9.87439         4.92929
     2016.12058       -10.00655         5.21500
     2016.12320        -9.82987         4.92572
     2016.12594        -6.84510         4.92929
     2016.12867         1.16066         4.91143
     2016.13141        -1.38558         4.95161
     2016.13415         0.45618         4.98018
     2016.13689        -1.52405         4.93643
     2016.13963        -3.21129         4.92036
     2016.14236        -7.10353         4.88019
     2016.14510        -5.45076         4.88465
     2016.14784        -8.80100         4.89715
     2016.15058        -3.71524         4.89179
     2016.15331        -5.68947         5.02482
     2016.15605        -4.99171         5.01590
     2016.15880        -0.91094         5.13107
     2016.16153        -6.35918         5.07750
     2016.16427        -2.25042         5.05875
     2016.16700        -2.61666         4.98018
     2016.16974        -3.20290         5.15696
     2016.17248        -7.04013         5.00518
     2016.17522        -8.46437         4.93911
     2016.17796        -0.51060         4.91768
     2016.18069        -6.03284         4.98822
     2016.18343        -6.38508         5.12839
     2016.18617        -7.12432         4.90876
     2016.18891       -14.64555         4.96411
     2016.19164        -5.05579         4.86858
     2016.19438        -4.96603         4.94715
     2016.19713        -7.25526         4.95518
     2016.19986        -8.20850         5.06054
     2016.20260       -10.76574         5.03732
     2016.20533        -5.83098         5.08464
     2016.20807        -2.86421         5.08554
     2016.21081        -9.25845         5.00786
     2016.21355        -8.16169         5.01411
     2016.21629        -8.20192         4.93465
     2016.21902        -7.82616         4.93554
     2016.22176        -9.83240         4.87661
     2016.22450        -9.05664         4.89983
     2016.22724       -11.36787         4.96143
     2016.22997        -1.74211         4.90429
     2016.23271        -3.52935         4.93643
     2016.23546       -10.19858         5.03018
     2016.23819        -2.84982         4.89269
     2016.24093         2.44594         5.02929
     2016.24366        -5.42029         4.88197
     2016.24640        -0.44853         4.86679
     2016.24914        -6.21377         4.89447
     2016.25188        -6.71100         4.90429
     2016.25462        -4.50324         4.91679
     2016.25735       -13.86248         4.96233
     2016.26009        -8.95572         4.89983
     2016.26283       -13.90595         4.88733
     2016.26557        -6.55919         4.94090
     2016.26830        -3.80543         4.92661
     2016.27104        -2.90966         4.93018
     2016.27379        -1.40590         4.89447
     2016.27652        -6.97714         4.89804
     2016.27926        -4.08737         4.90608
     2016.28199       -11.05561         4.98554
     2016.28473       -16.00585         5.04179
     2016.28747        -9.22109         4.94626
     2016.29021        -6.65832         4.88108
     2016.29295        -6.06856         4.89894
     2016.29568        -5.30080         4.91233
     2016.29842        -3.84103         5.04714
     2016.30116        -3.39627         5.04625
     2016.30390       -10.26051         4.90251
     2016.30663         3.91726         5.01232
     2016.30937        -6.56098         4.99268
     2016.31211        -4.67821         5.00250
     2016.31485        -8.88745         4.94626
     2016.31759        -1.95369         4.90251
     2016.32032        -6.38193         5.01143
     2016.32306        -9.53917         4.93108
     2016.32580        -9.18140         4.94983
     2016.32854        -8.21264         4.90608
     2016.33128        -7.04787         4.87215
     2016.33401        -6.01911         4.87394
     2016.33675        -6.74935         4.94179
     2016.33949        -5.83459         4.90161
     2016.34223       -14.54482         4.92483
     2016.34496       -12.20306         5.02750
     2016.34770        -1.47430         5.04268
     2016.35044        -1.82053         5.05339
     2016.35318        -2.10477         4.93733
     2016.35592       -12.06601         4.90876
     2016.35865       -14.10225         4.90072
     2016.36139       -13.57748         4.91411
     2016.36413        -1.39572         4.92929
     2016.36687        -3.73596         5.06411
     2016.36961         0.73481         4.96322
     2016.37234         3.00157         4.91501
     2016.37508        -8.89067         4.86769
     2016.37782       -13.32590         4.89090
     2016.38056       -12.15514         4.98733
     2016.38329        -1.92538         4.94715
     2016.38603       -23.15362         4.94626
     2016.38877         6.27615         4.91679
     2016.39151        -5.47809         4.89447
     2016.39425        -7.79433         4.86769
     2016.39698         1.81744         4.87394
     2016.39972        -3.03580         4.85162
     2016.40246        -4.44704         4.98643
     2016.40520        -8.98727         4.90519
     2016.40794       -10.01651         4.90340
     2016.41067        -9.93775         4.91947
     2016.41341        -8.00899         4.86501
     2016.41615       -11.32122         4.89001
     2016.41889       -10.75546         4.96858
     2016.42162        -7.76270         4.97125
     2016.42436       -10.00093         4.88019
     2016.42710        -6.64017         4.92215
     2016.42984        -9.09141         4.96143
     2018.62560        -2.91344         5.02750
     2018.62834        -5.57268         4.84626
     2018.63108        -1.51492         4.86947
     2018.63382        -5.25115         5.01590
     2018.63656         5.29261         4.91590
     2018.63929         0.64137         5.09446
     2018.64203        -0.58686         5.10161
     2018.64477         2.37490         4.86679
     2018.64751         2.55266         4.88554
     2018.65024         4.30042         4.86858
     2018.65298        -3.83081         4.89894
     2018.65572         2.06195         4.88019
     2018.65846         1.61371         4.85965
     2018.66120         3.64048         4.91768
     2018.66393         9.58024         4.88197
     2018.66667         2.09800         4.88197
     2018.66941         2.84877         4.83376
     2018.67215         0.21053         4.89179
     2018.67488         0.30429         4.88286
     2018.67762         1.94606         4.92126
     2018.68036        -5.89918         4.96054
     2018.68310        -4.34242         4.92751
     2018.68584         2.19134         4.98375
     2018.68857        -0.67589         4.93108
     2018.69131         3.81987         4.89626
     2018.69405         6.31863         5.03732
     2018.69679        -0.46460         4.88644
     2018.69953         4.79216         4.84358
     2018.70226         2.67692         4.99357
     2018.70500         3.80669         4.98286
     2018.70774         4.49845         4.87929
     2018.71048         0.61721         4.89804
     2018.71321         2.07997         4.86679
     2018.71595         1.15974         4.86054
     2018.71869        -1.25550         4.90786
     2018.72143        -4.55774         4.87840
     2018.72417         1.80503         4.99804
     2018.72690         0.35579         4.91768
     2018.72964         2.99155         4.86769
     2018.73238        -1.62868         4.86590
     2018.73512        -1.46192         4.90072
     2018.73786         2.59784         4.88108
     2018.74059        -2.03939         4.87036
     2018.74333         3.97037         4.90965
     2018.74607         2.08913         4.84715
     2018.74881         0.38789         4.89001
     2018.75154         3.00966         4.89269
     2018.75428         1.78742         4.92483
     2018.75702        -0.69782         4.94983
     2018.75976         2.32795         4.87394
     2018.76250         3.94071         4.82483
     2018.76523         0.08647         4.99179
     2018.76797         6.08724         4.86412
     2018.77071         2.98300         4.94626
     2018.77345         7.45476         4.85787
     2018.77619         5.67652         4.84269
     2018.77892         7.12629         4.85162
     2018.78166         4.02605         4.98286
     2018.78440         4.76781         4.86501
     2018.78714         1.20458         4.86233
     2018.78987        -3.47266         4.94179
     2018.79261        -1.50390         4.83108
     2018.79535         4.77187         4.83644
     2018.79809        -0.58537         4.87036
     2018.80083         2.53539         4.85697
     2018.80356         3.28615         4.84983
     2018.80630         4.90592         4.95608
     2018.80904         3.62068         4.84179
     2018.81178        -2.72656         5.12839
     2018.81452         6.18721         4.88644
     2018.81725        -2.62203         4.95608
     2018.81999         0.56173         4.85072
     2018.82273        -2.49950         5.03643
     2018.82547        -0.57874         5.00161
     2018.82820         2.35302         4.87840
     2018.83094        -0.05721         4.84001
     2018.83368        -3.19045         4.84269
     2018.83642         2.99331         4.95608
     2018.83916         5.36707         4.88554
     2018.84189        -1.55916         4.92929
     2018.84463         4.00360         4.86858
     2018.84737         1.82336         4.81590
     2018.85011         5.98113         4.83108
     2018.85285         2.92589         4.84090
     2018.85558        -0.85135         4.86590
     2018.85832         5.73042         4.85251
     2018.86106         3.34018         4.83912
     2018.86380         0.66094         4.94715
     2018.86653         6.79970         4.85162
     2018.86927        -2.99653         4.87840
     2018.87201         1.33123         4.87304
     2018.87475         3.21199         4.88108
     2018.87749         3.02976         4.92036
     2018.88022         2.88152         4.94983
     2018.88282         5.04519         5.23196
     2018.88570         6.35105         4.96054
     2018.88844         4.47381         4.96768
     2018.89118        -0.43243         5.10786
     2018.89391       -13.23066         4.97125
     2018.89665        -6.50590         5.31499
     2018.89939         3.92886         4.94447
     2018.90213         6.20362         4.93733
     2018.90486         6.63839         4.96143
     2018.90760         1.57115         4.96322
     2018.91034         4.71591         4.95518
     2018.91308        12.87768         5.04714
     2018.91582         3.11044         4.92840
     2018.91855        11.89020         4.93554
     2018.92129         7.07897         4.90608
     2018.92403         5.32773         4.90161
     2018.92677         4.53949         4.93286
     2018.92951         5.44725         4.94626
     2018.93224        -0.58498         4.99982
     2018.93498         0.10078         5.46142
     2018.93772         0.56254         4.95697
     2018.94046         6.63231         4.96768
     2018.94319         3.16007         4.91322
     2018.94593         4.11583         4.91590
     2018.94867         3.51960         4.87572
     2018.95141        11.55136         4.98822
     2018.95415         7.21512         4.94001
     2018.95688        11.04689         4.93286
     2018.95962         7.82965         4.89804
     2018.96236         0.97141         4.89090
     2018.96510         3.03517         4.93286
     2018.96784         4.21694         4.88733
     2018.97057         0.88870         5.01590
     2018.97331         2.84046         4.91233
     2018.97605        -1.25477         4.91947
     2018.97879        -2.55401         4.89626
     2018.98152        -7.32625         4.88108
     2018.98426         2.54552         4.98554
     2018.99795        -3.71567         4.90519
     2019.00069        -4.94791         4.93376
     2019.00343        -4.65614         4.94983
     2019.00616        -0.28538         4.90786
     2019.00890         0.65438         4.91501
     2019.01164         4.84515         4.86412
     2019.01438         2.96891         4.88644
     2019.01712         3.70267         4.96590
     2019.01985         0.29344         4.89269
     2019.02259         6.76020         4.92304
     2019.02533         0.35196         5.04804
     2019.02807         0.98972         4.98911
     2019.03081         0.94949         4.99447
     2019.03354        -8.62675         4.93911
     2019.03628        -4.24799         4.91322
     2019.03902         2.44878         4.94001
     2019.04176        -0.46646         4.93733
     2019.04449       -12.51470         4.89983
     2019.04723        -8.66193         5.02215
     2019.04997       -13.71717         5.06054
     2019.05271       -16.71241         5.19714
     2019.07187        -3.20307         4.99625
     2019.07461        -1.61530         4.88019
     2019.07735         2.47646         4.89001
     2019.08009         5.25722         4.87394
     2019.08282         2.59799         4.99625
     2019.08556         4.96075         4.91858
     2019.08830       -19.61249         4.96679
     2019.09104         8.00327         4.89090
     2019.09378         9.93804         4.90786
     2019.09651        12.17880         4.88644
     2019.09925         3.12456         4.85965
     2019.10199        -2.32067         4.86947
     2019.10473         0.95009         4.87215
     2019.10747        -0.05315         4.88197
     2019.11020        -4.52338         4.88286
     2019.11294         4.62638         5.03554
     2019.11568         3.73914         5.12750
     2019.12115         6.49967         5.09089
     2019.12389        10.24643         4.98643
     2019.12663         5.24619         4.94268
     2019.12937         0.47296         4.90340
     2019.13211         3.34672         4.91947
     2019.13484        -0.59752         4.90876
     2019.13758        -5.23075         4.93018
     2019.14032         3.46401         4.89090
     2019.14306         1.26077         4.88733
     2019.14580        -3.02346         4.90608
     2019.14853        -5.06970         4.90519
     2019.15127        -4.24694         4.99090
     2019.15401         0.12382         4.91143
     2019.15675         4.39259         4.93911
     2019.15948        -3.58765         5.03464
     2019.16222        -5.97889         5.01768
     2019.16496       -13.42812         5.09536
     2019.16770       -11.14936         4.85519
     2019.17044        -5.39760         4.80608
     2019.17317        -3.93983         4.90519
     2019.17591        -2.63907         4.95608
     2019.17865        -1.13531         4.92304
     2019.18139         1.51245         4.86947
     2019.18413       -10.95378         4.83108
     2019.18686        -3.95102         4.86233
     2019.18960        -4.62426         4.91233
     2019.19234         1.47151         4.94893
     2019.19508        -5.04773         4.90251
     2019.19781        -9.13497         4.84447
     2019.20055        -5.83620         4.96500
     2019.20329       -10.78144         4.85697
     2019.20603        -6.40368         4.91322
     2019.20877        -9.70192         4.88554
     2019.21150        -7.71615         4.84269
     2019.21424        -5.82539         4.88286
     2019.21972        -2.83386         5.00965
     2019.22246       -13.75510         4.88286
     2019.22519        -4.14434         4.83019
     2019.22793        -3.99257         4.87661
     2019.23067        -9.27681         4.86233
     2019.23341        -1.60005         4.88465
     2019.23614        -6.19728         4.89894
     2019.23888        -3.95252         4.84804
     2019.24162        -7.29576         4.97393
     2019.24436        -5.54100         4.99179
     2019.24710        -4.80823         4.88733
     2019.24983        -8.32147         4.87751
     2019.25257        -5.93771         4.93554
     2019.25531        -7.29594         4.89447
     2019.25805        -5.87818         4.87929
     2019.26079        -5.40942         5.08643
     2019.26352       -17.57665         5.10518
     2019.26626        -8.79289         5.01679
     2019.26900       -12.21513         4.93286
     2019.27174        -6.29437         5.10786
     2019.27447        -6.75960         4.84894
     2019.27721         1.04016         4.96054
     2019.27995        -1.73608         4.84269
     2019.28269       -11.39931         4.92661
     2019.28543         1.10945         4.91768
     2019.28816       -10.18279         4.86233
     2019.29090        -3.35202         4.85697
     2019.29364        -3.58626         4.87572
     2019.29638        -1.83950         4.97929
     2019.29911         4.27927         4.90965
     2019.30185        -3.84297         4.87572
     2019.30459        -9.68921         4.84894
     2019.30733        -4.64945         4.93108
     2019.31007        -3.53968         4.95697
     2019.31280       -11.69792         4.92751
     2019.31554         1.78084         4.99715
     2019.31828        -3.69239         4.92483
     2019.32102         0.17937         4.87036
     2019.32376       -10.98887         4.88644
     2019.32649        -5.59310         4.90340
     2019.32923        -4.84734         4.87126
     2019.33197        -5.45058         5.00072
     2019.33471        -5.05382         4.93911
     2019.33744        -1.90305         4.87394
     2019.34018        -9.00929         4.86947
     2019.34292         0.80347         4.83912
     2019.34566        -4.84076         4.94626
     2019.34840        -4.65400         4.94358
     2019.35113        -2.01824         4.87840
     2019.35387        -5.51247         4.83912
     2019.35661         0.57229         4.84179
     2019.35935        -1.34595         4.86233
     2019.36209        -2.82218         4.89001
     2019.36482         0.89058         4.92572
     2019.36756        -5.45666         4.87215
     2019.37030         1.19410         4.93822
     2019.37304         0.51787         4.86054
     2019.37577        -0.09337         4.98108
     2019.37851         1.76139         4.87840
     2019.38125         1.04216         4.87751
     2019.38399        -6.08108         4.85340
     2019.38673        -4.41832         4.83465
     2019.38946        -1.12655         4.87036
     2019.39220        -2.00679         4.93108
     2019.39494        -4.17103         4.90965
     2019.39768        -8.96027         4.96768
     2019.40042         0.63450         4.85787
     2019.40315         1.13626         4.85072
     2019.40589        -5.05898         4.90340
     2019.40863         1.15279         4.96233
     2019.41137         2.31555         4.97304
     2019.41410        -4.92669         4.90519
     2019.41684        -1.98592         4.90340
     2019.41958         7.35984         4.94447
     2019.42232        -0.41440         4.93108
     2019.42506        -1.45463         4.93554
     2019.42779         4.88313         5.19000
     2019.43053         0.03589         4.90519
     2019.43327        -6.47835         4.89626
     2019.43601        -5.73758         4.92304
     2019.43875        -6.25882         4.98375
     2019.44148        -6.58206         5.01679
     2019.44422        -0.82929         5.00161
     2019.44696        -1.44753         5.03107
     2019.44970         1.14023         5.02929
     2019.45243         0.22400         4.98643
     2019.45517        -0.23524         5.03822
     2019.45791        -1.34348         5.01411
     2019.46065        -4.21972         4.98108
     2019.46339        -3.97895         5.16678
     2019.46612        -0.94419         5.23017
     2019.46886        -0.86843         5.06232
     2019.47160        -3.56666         4.99357
     2019.47434         1.44810         5.02215
     2019.47708        -0.34014         5.03822
