# ================= DQRFIT RESULTS ================
# INPUT FILE: series/CCPW.rad
# OUTPUT: LDETRENDED
# FILTER FUNCTION: f(t)
# f(t)=+line(t)+annual(t)+jumps(t)
# line(t)=+P 1+P 2*t
# annual(t)=+P 3*sin(2*pi*t+P 4)
# jumps(t)=+P 5*heav(t-2016.2204  )
# heav(t)=(t<0?0:1)
# TOTAL OBSERVATIONS MTOT= 1950
# INITIAL TIME INTERVAL= 2020.1477 - 2014.5818 =  5.5659
# TOTAL OBSERVATIONS AFTER PREFILTER M= 1916
# TIME-SPAN= 2020.1477 - 2014.6037 =  5.5440
# OBSERVATIONS: USED M=  1916 REJECTED MTOT-M=    34 %USED=   98.2564
# N=  5 PARAMETERS
# MAXSIG= 175.00000
# MAXRES=  45.85501
# SCALE FACTOR FOR LENGTHS: SCL=  10.00000
# SCALE FACTOR FOR SIGMAS: SCLSIG=   1.00000
# CHI^2=   1379.178 DOF=  1911 CHI^2/DOF=   0.72170
# RMS=      5.388 SDEV=      5.389 MEAN=    0.04906
#  P #       PARAMETER +-    SIGMA %error PARAMETER NAME
# P 1 =      1085.41033 +-  230.263  21.21 YZERO                              
# P 2 =        -0.53634 +-    0.114  21.30 SLOPE                              
# P 3 =         2.60878 +-    0.156   5.98 ANNUAL AMPLITUDE                   
# P 4 =         3.05588 +-    0.084   2.76 ANNUAL PHASE                       
# P 5 =        -1.70733 +-    0.404  23.66 OFFSET 2016.2204                   
#       T            LDETRENDED       SIG_OBS
     2014.60369        -2.93293         4.84828
     2014.60643        -8.68446         4.80241
     2014.60917        -6.69900         4.90860
     2014.61190         6.05747         5.21018
     2014.61464        -2.54806         5.17365
     2014.61738         0.54841         5.22292
     2014.62012         0.24588         5.05727
     2014.62286         3.05635         5.02158
     2014.62559         2.07081         5.10569
     2014.62833         1.84428         4.85932
     2014.63107         2.77575         5.03348
     2014.63381        -4.27978         5.07680
     2014.63655         0.64269         4.81600
     2014.63928         5.81716         4.88566
     2014.64202        -1.73138         4.87292
     2014.64476        -3.33091         4.89840
     2014.64750         0.45956         4.82364
     2014.65023        -4.95097         4.80665
     2014.65297         7.15150         4.80326
     2014.65571         4.32897         4.96806
     2014.65845        11.12044         4.96382
     2014.66119         5.14490         4.96976
     2014.66392        10.69937         4.90690
     2014.66666         7.96484         4.83809
     2014.66940         8.96631         4.83469
     2014.67214        10.64878         4.87631
     2014.67488         0.90425         4.82110
     2014.67761         3.44571         4.91284
     2014.68035         4.17018         4.75823
     2014.68309        -1.71935         4.79051
     2014.68583         5.77912         4.87971
     2014.68856         4.57659         4.89925
     2014.69130         1.54706         4.98930
     2014.69404        -2.86348         4.82194
     2014.69678        -0.40701         4.83214
     2014.69952         4.57346         4.88991
     2014.70225         0.82393         4.79646
     2014.70499        -1.23260         4.78796
     2014.70773        -3.22113         4.91624
     2014.71047         3.91434         4.76503
     2014.71321         7.84180         4.87801
     2014.71594         3.53927         4.92899
     2014.71868        -0.70426         4.74973
     2014.72142         2.53321         4.73529
     2014.72416         3.31268         4.74634
     2014.72689         4.84515         4.91454
     2014.72963         2.09961         4.92644
     2014.73237         6.50508         4.96467
     2014.73511        -7.29045         4.88736
     2014.73785        -2.15598         4.78881
     2014.74058        -0.29751         4.81090
     2014.74332         7.66496         4.96976
     2014.74606        12.99342         4.99185
     2014.74880         2.66189         4.80750
     2014.75154         5.63936         5.05387
     2014.75427         1.22783         4.84743
     2014.75701        -6.42570         4.83469
     2014.75975        -0.59523         4.90690
     2014.76249        10.12424         4.79986
     2014.76522         5.19670         4.81685
     2014.76793        10.39116         5.01989
     2014.77002        10.39427         6.61191
     2014.78992        -0.07805         4.94088
     2014.79260         6.54039         4.81005
     2014.79534         7.51586         4.77437
     2014.79808        10.74033         4.95022
     2014.80082        15.33079         4.85678
     2014.80355         8.53726         4.94428
     2014.80629         0.91173         4.95702
     2014.80903         4.28820         5.07935
     2014.81176        47.96466        12.65378
     2014.81451         8.28514         4.85423
     2014.81724        16.33460         4.88056
     2014.81998         6.53207         4.93663
     2014.82272         3.62154         4.97741
     2014.82546        17.41501         4.99100
     2014.82820         1.80148         4.78202
     2014.83093         5.74195         4.89500
     2014.83367         3.76241         4.82704
     2014.83641         2.67388         4.81770
     2014.83915         7.63335         4.83214
     2014.84188         6.81682         4.99525
     2014.84462        -0.25671         5.00799
     2014.84736         7.79776         4.85932
     2014.85010         1.23423         5.01394
     2014.85284        -0.25131         4.88311
     2014.85557         9.69116         5.03008
     2014.85831         5.50063         4.98166
     2014.86105        -0.24690         4.82789
     2014.86379        -2.30543         4.84148
     2014.86653         0.22504         4.81685
     2014.86926        -0.03350         4.80835
     2014.87200        -0.40703         4.87207
     2014.87474         0.71544         4.91200
     2014.87748        -2.87009         4.87716
     2014.88021         1.68538         4.82110
     2014.88295         5.37985         4.97401
     2014.88569         4.56131         4.98590
     2014.88843        11.03878         5.02243
     2014.89117        14.53025         5.07341
     2014.89390         5.43772         5.00290
     2014.89664         3.82819         4.98251
     2014.89938         2.73066         5.01479
     2014.90212         5.51413         5.01734
     2014.90485        -5.12841         4.86187
     2014.90759        11.36406         5.13202
     2014.91033         7.85153         4.88141
     2014.91307        -1.50900         4.73104
     2014.91581        -0.33553         4.65374
     2014.91854         5.32894         4.70641
     2014.92128         3.69440         4.63845
     2014.92402         0.29887         4.74804
     2014.92676         7.92934         4.77862
     2014.92950        -1.15519         4.77267
     2014.93223        -7.24872         4.69536
     2014.93497         0.11275         4.72425
     2014.93771        -2.12579         4.72765
     2014.94045         8.29368         4.77862
     2014.94318        12.97515         5.15071
     2014.94592         5.78962         4.82619
     2014.94866        -0.11791         4.67583
     2014.95140       -11.32144         4.77777
     2014.95414         1.01503         4.66393
     2014.95687         5.78849         4.73784
     2014.95961         7.75896         4.71660
     2014.96235         4.27543         4.62740
     2014.96509         3.13190         4.81685
     2014.96783        -2.24263         4.63675
     2014.97056         7.63484         4.76673
     2014.97330         2.48630         4.76248
     2014.97604        -5.69023         4.76503
     2014.97878        -0.80776         4.71320
     2014.98151         8.25171         4.79986
     2014.98425         0.20218         4.70896
     2014.98699         2.82765         4.68432
     2014.98973        -0.22089         4.70896
     2014.99247        -6.58442         4.66988
     2014.99520        -8.32195         4.64524
     2014.99794         2.34952         4.67328
     2015.00068        -3.92601         4.63760
     2015.00342        -2.28354         4.66053
     2015.00616        -8.54107         4.66818
     2015.00889       -13.56461         4.81345
     2015.01163        -6.68014         4.83129
     2015.01437        -5.26167         4.84148
     2015.01711        -2.43520         4.75313
     2015.01984        -0.38873         4.63505
     2015.02258        -0.56326         4.72085
     2015.02532         3.44720         4.62910
     2015.02806        -6.55433         4.70216
     2015.03080        -0.66686         4.62740
     2015.03353        -4.99539         4.65289
     2015.03627         0.63708         4.62230
     2015.03901         2.28055         4.69112
     2015.04175        11.36601         4.71745
     2015.04449         2.04948         4.79561
     2015.04722         6.48395         4.74464
     2015.04996         1.44342         4.65544
     2015.05270        -6.26311         4.64014
     2015.05544        -3.03564         4.68432
     2015.05817         3.04183         4.70641
     2015.06091         1.14529         4.68942
     2015.06365         9.91276         4.85083
     2015.06639         2.19523         4.67243
     2015.06913        -0.24830         4.64524
     2015.07186         0.09117         4.74209
     2015.07460        -4.85936         4.71575
     2015.07734        -5.78090         4.61891
     2015.08008        -5.36943         4.62740
     2015.08282        -1.87596         4.66053
     2015.08555        -0.45749         4.72255
     2015.08829        -1.61002         4.77777
     2015.09103         4.70145         4.67667
     2015.09377        -1.10408         4.68602
     2015.09650        11.59438         5.01139
     2015.10198        16.25932         4.87207
     2015.10472         9.52879         4.86527
     2015.10746        10.15926         4.85763
     2015.11019        -2.64327         4.75313
     2015.11293        -0.89981         4.82025
     2015.11567         2.39666         4.85253
     2015.11841         0.11313         4.66818
     2015.12115        -4.23540         4.77182
     2015.12388        -8.82193         4.75738
     2015.12662        -4.11446         4.71575
     2015.12936        -2.27300         4.66733
     2015.13210        -3.58153         4.86017
     2015.13483        -1.83906         4.82110
     2015.13757         0.35141         4.75653
     2015.14031        -1.66712         4.74549
     2015.14305        -2.55865         4.65204
     2015.14579        -5.65718         4.73529
     2015.14852         1.21428         4.71830
     2015.15126         0.20075         4.72255
     2015.15400        -4.06478         4.71490
     2015.15674         2.89569         4.76333
     2015.15948         0.63416         4.67667
     2015.16221        -2.09137         4.69961
     2015.16495        -0.43191         4.70556
     2015.16769        -3.55144         4.73189
     2015.17043        -2.20197         4.68347
     2015.17316        -3.16550         4.94853
     2015.17590        -3.70203         5.00205
     2015.17864         2.20744         4.80326
     2015.18138         1.41790         4.77012
     2015.18412         6.71537         4.77607
     2015.18685         9.94184         4.85423
     2015.19233        -5.76522         5.06491
     2015.19507        -3.14675         4.73614
     2015.19780         2.61572         4.80410
     2015.20054         3.48518         5.10144
     2015.20328         1.06365         4.83469
     2015.20602         1.79612         4.90945
     2015.20876        -4.18841         4.81600
     2015.21149        -5.91194         4.70726
     2015.21423        -1.91547         4.91964
     2015.21697        -2.43301         4.98336
     2015.21971        -0.29354         4.79476
     2015.22245        -2.44507         4.77777
     2015.22518         0.19240         4.85763
     2015.22792        -3.22713         4.71066
     2015.23066        -1.97966         4.75228
     2015.23340         3.02280         4.88651
     2015.23613         3.43927         4.98166
     2015.23887         1.27674         5.12523
     2015.24161         2.92421         5.17705
     2015.24435         6.70168         5.10399
     2015.24709        -1.25585         4.85847
     2015.24982        -0.50138         4.74039
     2015.25256        -2.34692         4.85253
     2015.25530        -1.46545         4.77777
     2015.25804        -0.29698         4.72595
     2015.26078         3.80349         4.74804
     2015.26351         2.92296         4.83639
     2015.26625         1.00043         4.72340
     2015.26899        -2.32311         4.80920
     2015.27172         5.06936         4.96806
     2015.27720         4.84430         4.83724
     2015.27994         3.47677         4.76503
     2015.28542        -1.01130         4.90690
     2015.28815        -5.62683         4.87716
     2015.29089         0.32764         4.76927
     2015.29363         2.19711         4.73359
     2015.29637        -1.77442         4.79391
     2015.29911         5.29405         4.74379
     2015.30184         5.49652         4.75738
     2015.30458         5.25198         4.91030
     2015.30732         3.08245         4.62146
     2015.31279        -3.58161         4.72850
     2015.31553        -3.33714         4.71320
     2015.31827        -8.07967         4.72000
     2015.32101        -0.41521         4.66478
     2015.32375         4.01526         4.85593
     2015.32648        -4.99727         4.71745
     2015.32922        -3.17880         4.80410
     2015.33196         1.71967         4.61126
     2015.33470         4.12814         4.63675
     2015.33744        -1.40739         4.75313
     2015.34017        -5.70893         4.80410
     2015.34289        -2.77247         4.72765
     2015.34566         1.75502         4.71490
     2015.34839         1.94948         4.71660
     2015.35112        -3.90805         4.70811
     2015.35386         1.10242         4.65798
     2015.35660        -5.51212         4.67158
     2015.35934        -2.06265         4.97231
     2015.36481        -3.39571         4.74294
     2015.36755         2.58976         4.64694
     2015.37029        -1.56577         4.69451
     2015.37850        -1.64437         4.81260
     2015.38124        -4.66390         4.69112
     2015.38398        -0.91543         4.74549
     2015.38672        -5.11496         4.71660
     2015.38945        -2.82549         4.62570
     2015.39219         1.68097         4.77267
     2015.39493        -4.25956         4.69706
     2015.39767        -4.28309         4.82194
     2015.40041        -4.79262         4.82704
     2015.40314        -6.07415         4.88141
     2015.40588        -1.41268         4.67667
     2015.40862         0.83278         4.89500
     2015.41410         4.59272         4.90690
     2015.41683        -6.45081         4.72085
     2015.41957        -6.74134         4.62825
     2015.42231        -3.40687         4.62825
     2015.42505        -4.69141         4.74464
     2015.42778        -4.92894         4.75993
     2015.43052        -3.30847         4.76418
     2015.43326        -3.30400         4.65883
     2015.43600        -0.48153         4.70471
     2015.43874        -4.03806         4.72595
     2015.44147        -1.70459         4.90095
     2015.44421        -1.80513         4.70471
     2015.44695        -4.45266         4.61466
     2015.44969        -3.19419         4.64779
     2015.45243        -1.09072         4.83384
     2015.45516        -7.55025         4.70301
     2015.45790        -3.19478         4.88141
     2015.46064        -2.83332         4.82789
     2015.46338        -3.42785         4.71745
     2015.46611        -3.71538         4.77947
     2015.46885         4.33409         4.76163
     2015.47159        -1.20344         4.62485
     2015.47433        -7.69897         4.80580
     2015.47707        -3.83151         4.78287
     2015.47980        -4.44704         4.72510
     2015.48254        -3.17057         4.83299
     2015.48528        -7.17810         4.63420
     2015.48802         0.22037         4.71236
     2015.49076         0.41984         4.99440
     2015.49349        -1.07369         4.90775
     2015.49623        -6.44723         5.06406
     2015.49897        -2.37476         4.78541
     2015.50171         4.83171         4.68092
     2015.50444        -9.60282         4.90435
     2015.50718        -3.08835         4.67837
     2015.50992        -5.83888         4.65883
     2015.51266        -5.40242         4.62146
     2015.51540        -0.03695         4.57558
     2015.51813        -4.81348         4.75398
     2015.52087         4.01499         4.77182
     2015.52361        -3.91254         4.66988
     2015.52635         5.06493         4.72255
     2015.52908        -1.12761         4.67243
     2015.53182        -3.40314         4.62740
     2015.53456        -3.56067         4.77522
     2015.53730        -2.00420         4.80326
     2015.54004        -3.21373         4.76842
     2015.54277        -4.26826         4.70301
     2015.54551         1.44521         4.76673
     2015.54825        -2.27333         4.77352
     2015.55099         0.99414         4.81940
     2015.55373         4.54461         4.81175
     2015.55646        -1.65592         4.86187
     2015.55920        -4.48945         4.79561
     2015.56194        -2.91398         4.78796
     2015.56468         1.19548         4.77947
     2015.56741        -3.58305         4.90860
     2015.57015         3.12242         5.08020
     2015.57289         0.62789         4.99355
     2015.57563        -5.29664         4.88056
     2015.57837        -4.19717         4.89076
     2015.58110        -1.44870         4.90520
     2015.58384        -1.78024         5.01309
     2015.58658         4.05223         4.98930
     2015.58932         2.29370         4.86867
     2015.59206        -1.69683         4.92049
     2015.59479         0.49264         4.98336
     2015.60027         7.41857         5.02583
     2015.60301         3.80604         4.95447
     2015.60574        -3.05149         5.06151
     2015.60848         0.33198         5.13797
     2015.61122        10.92345         4.99525
     2015.61396         6.30892         4.97061
     2015.61670         2.73038         4.83894
     2015.61943         1.77585         4.74634
     2015.62217        -2.75868         4.84488
     2015.62491         2.48379         4.73784
     2015.62765        -1.17574         4.74124
     2015.63039        -0.70927         4.88311
     2015.63312         0.65520         4.86782
     2015.63586         4.99466         4.92049
     2015.63860        -0.84287         4.77012
     2015.64134        -2.87040         4.78626
     2015.64407         3.79507         4.81600
     2015.64681         2.60754         4.89585
     2015.64955        -5.65799         4.75313
     2015.65229        -2.55753         4.76503
     2015.65503         5.47594         4.78541
     2015.65776        -1.63259         4.86867
     2015.66050         0.78588         4.93323
     2015.66324         7.20235         4.74379
     2015.66598         2.91282         4.94937
     2015.66872        -2.71372         4.91624
     2015.67145         3.29075         4.77777
     2015.67419        -1.74578         4.72850
     2015.67693         0.82469         4.71490
     2015.67967        -0.05584         4.83384
     2015.68240        -2.61137         4.75398
     2015.68514        -2.95490         4.79476
     2015.68788        -0.27644         4.79561
     2015.69062         1.52603         5.18639
     2015.69336        -4.20450         4.88226
     2015.69609         6.79697         4.83724
     2015.69883         9.55544         4.90095
     2015.70157         3.91091         5.00290
     2015.70431         6.57437         4.84063
     2015.70705         4.06884         4.81005
     2015.70978         6.27631         4.76163
     2015.71252        -3.78522         4.72850
     2015.71526         1.35325         4.87122
     2015.71800         7.89872         4.78966
     2015.72073         3.39618         4.90860
     2015.72347        13.89965         4.92559
     2015.72621        -0.22888         4.79136
     2015.72895         3.64359         4.83044
     2015.73169         4.04306         4.75738
     2015.73442        -4.15747         4.79986
     2015.73713         3.56398         5.00290
     2015.73992         2.15048         4.93493
     2015.74264         4.14793         4.92049
     2015.74538        10.14440         5.08530
     2015.74811         2.24187         5.06321
     2015.75085        -3.40266         4.83469
     2015.75359        -1.34819         4.84658
     2015.75633         1.34027         4.79391
     2015.75906         2.06274         4.92389
     2015.76180         0.95621         4.83299
     2015.76454         2.34868         4.95617
     2015.76728        -2.50885         4.99100
     2015.77002        -3.88538         4.90350
     2015.77275        12.50308         4.94173
     2015.77549         4.29255         4.89840
     2015.77823         4.84302         4.79901
     2015.78097         2.08449         4.82874
     2015.78371         2.73796         4.77777
     2015.78644        -0.15657         4.88566
     2015.78918         3.55990         4.84573
     2015.79192         3.77336         4.78881
     2015.79466         3.58783         4.91624
     2015.79739         6.68930         4.83044
     2015.80013         3.43577         5.02583
     2015.80287        -0.65276         4.77352
     2015.80561         1.86071         4.85763
     2015.80835        -0.81383         4.78881
     2015.81108        -2.10036         4.84148
     2015.81382        -1.59889         4.81005
     2015.81656        -1.74642         4.96212
     2015.81930         1.28205         4.82449
     2015.82203         2.19252         4.81175
     2015.82477         4.11599         4.95192
     2015.82751         4.04045         4.99865
     2015.83025         8.93092         4.95107
     2015.83299        -0.52361         5.03433
     2015.83572         4.39986         4.92899
     2015.83846        -4.86167         4.90010
     2015.84120        -1.98920         4.99695
     2015.84394        -1.16674         4.93918
     2015.84668       -11.64327         4.95192
     2015.84941         4.15420         4.97911
     2015.85215         2.89267         4.99440
     2015.85489         6.00514         4.90435
     2015.85763        -1.58839         4.94428
     2015.86036         0.85607         4.94598
     2015.86310         5.49854         4.97656
     2015.86584        14.05001         4.93918
     2015.86858         0.38548         4.92899
     2015.87132         8.59695         5.03688
     2015.87405         0.45342         5.07086
     2015.87679         2.91189         4.95617
     2015.87953         6.40235         5.10569
     2015.88227         3.51582         4.90095
     2015.88501        -6.71471         4.99270
     2015.88774        -3.28324         4.92644
     2015.89048         1.19223         4.92984
     2015.89322         5.67970         4.96127
     2015.89596         2.00216         4.97146
     2015.89869         3.72163         5.08445
     2015.90143        -2.30390         4.90860
     2015.90417        -3.98543         4.87716
     2015.90691        -1.69496         5.01734
     2015.90965         1.56851         5.07001
     2015.91238         1.22697         4.86952
     2015.91512         0.27344         5.08360
     2015.91786         0.58091         4.91879
     2015.92060        -0.84862         5.00799
     2015.92334        -1.51815         4.97061
     2015.92607        -6.74668         4.97996
     2015.92881        -5.37921         5.05047
     2015.93155        -2.40875         5.22292
     2015.93429        14.44272         5.27984
     2015.93702        15.13819         5.18979
     2015.93976        13.54666         5.15581
     2015.94250         6.25113         5.14392
     2015.94524         2.05660         4.95107
     2015.94798         9.98506         4.96806
     2015.95071         6.98353         4.92219
     2015.95345         0.00000         4.86697
     2015.95619         1.04647         4.91964
     2015.95893        -0.13106         5.07341
     2015.96167        -7.05159         5.01394
     2015.96440         5.15087         4.79901
     2015.96714         5.98434         4.92814
     2015.96988         7.60581         4.85083
     2015.97262        15.71128         4.82025
     2015.97535        12.00075         4.85593
     2015.97809         8.35122         4.78202
     2015.98083         2.94869         4.84913
     2015.98357        -8.46685         4.89076
     2015.98631        -1.72838         4.89925
     2015.98904        -6.44391         4.79476
     2015.99178       -12.35444         4.81855
     2015.99452        -1.86697         4.78796
     2015.99726        -5.82250         4.96806
     2016.00000        -6.37504         4.83554
     2016.00273        -9.49557         4.87462
     2016.00547        -3.48610         4.84658
     2016.00821        -1.88863         4.79391
     2016.01095         3.26484         4.80495
     2016.01368        -3.39669         4.84318
     2016.01642         5.39577         4.99015
     2016.01916        -0.12676         4.99780
     2016.02190        -3.70529         4.95872
     2016.02464        -2.43382         4.75483
     2016.02737        -7.08235         4.99525
     2016.03011        -6.51188         4.90265
     2016.03285        -4.99741         4.83299
     2016.03559        -1.47095         4.88736
     2016.03833        -0.21648         4.95192
     2016.04106         0.02999         4.81175
     2016.04380        -5.62654         4.88226
     2016.04654         2.32093         4.81855
     2016.04928        -2.60360         4.91030
     2016.05201        -6.75114         4.79901
     2016.05475        -2.23867         4.91539
     2016.05749         5.01780         4.97656
     2016.06023        -0.81473         4.87716
     2016.06297        -3.49226         4.70811
     2016.06570        -5.03979         4.75483
     2016.06844        -1.09932         4.88396
     2016.07118        -6.01086         4.98505
     2016.07392        -3.13539         4.95532
     2016.07666         3.43108         4.95787
     2016.07939         3.84655         4.70896
     2016.08213        -4.48698         4.85847
     2016.08487        -0.67851         4.74209
     2016.08761        -7.93805         4.83894
     2016.09034        -2.84158         5.12353
     2016.09308        -7.99211         4.94768
     2016.09582        -8.94664         4.69282
     2016.09856        -6.98417         4.83214
     2016.10130       -11.02370         4.85847
     2016.10403       -12.00124         4.84488
     2016.10677       -13.78577         4.78457
     2016.10951       -16.79730         4.75993
     2016.11168       -11.13214         6.38848
     2016.11498        -9.08336         4.81940
     2016.11772        -9.28789         4.84913
     2016.12046       -10.04842         5.05557
     2016.12320         4.64304         4.81175
     2016.12594        -0.90849         4.85508
     2016.12867         5.76598         4.81770
     2016.13136        17.32042         4.96806
     2016.13637         1.37211         6.23217
     2016.13957        -2.51118         4.94003
     2016.14239       -14.45966         4.91454
     2016.14402       -10.39479        10.18674
     2016.14784        -7.26874         4.78287
     2016.15058        -6.13627         4.80495
     2016.15331        -5.61280         4.83469
     2016.15605        -2.58934         4.80156
     2016.15879        -9.82387         4.97316
     2016.16153        -1.78040         4.86697
     2016.16427        -8.54393         4.89246
     2016.16700       -10.94846         4.88481
     2016.16974        -5.41399         4.91369
     2016.17248        -5.60052         4.95107
     2016.17522        -1.62006         4.89415
     2016.17796         4.75341         4.95872
     2016.18069         1.94988         4.96127
     2016.18343        -4.70165         4.91539
     2016.18617        -8.52318         4.83299
     2016.18891        -0.56571         4.78287
     2016.19164         0.63875         4.75228
     2016.19438         1.60022         4.78457
     2016.19712         2.21869         4.67328
     2016.19986         2.41216         4.97826
     2016.20260        -8.42337         4.90435
     2016.20533        -9.31090         5.10484
     2016.20807        -1.75844         4.86272
     2016.21081        -7.14397         4.82959
     2016.21355        -7.24450         4.79986
     2016.21629        -6.98303         4.88396
     2016.21902        -4.51456         4.73784
     2016.22176        -3.59809         4.65968
     2016.22450        -5.08262         4.76418
     2016.22724        -5.89116         4.87971
     2016.22997        -2.84169         4.72935
     2016.23271        -5.86322         4.65459
     2016.23545        -7.17475         4.79816
     2016.23819         0.67972         4.64354
     2016.24093        -0.16981         4.74464
     2016.24366         1.13265         4.67498
     2016.24640         3.15212         4.72850
     2016.24913        -1.12141         4.74039
     2016.25140        10.71880         6.78776
     2016.25462        -1.37447         4.87716
     2016.25735         0.18500         4.78966
     2016.26009        -7.62454         4.74124
     2016.26283       -10.95406         4.77862
     2016.26557        -1.20360         4.80326
     2016.26830        -4.81613         4.75568
     2016.27104         0.23934         4.80326
     2016.27378         2.02181         4.77352
     2016.27652        -1.17272         4.67243
     2016.27926        -6.35626         4.76163
     2016.28077         2.55755        16.23796
     2016.28473         1.33268         4.88566
     2016.28713        -4.55103         5.68592
     2016.38162        -8.10435        13.60186
     2016.38329         2.14954         4.72085
     2016.38603        -4.88699         4.75993
     2016.38877         2.81248         4.64014
     2016.39151        -1.01405         4.70471
     2016.39425        -5.51058         4.76418
     2016.39698         1.94789         4.67158
     2016.39972         1.35635         4.69451
     2016.40246        -4.92218         4.78966
     2016.40520        -4.68371         4.71405
     2016.40794        -4.16024         4.76673
     2016.41067       -10.42477         4.76418
     2016.41341        -7.32130         4.66563
     2016.41615        -7.76683         4.73614
     2016.41889        -5.45537         4.78287
     2016.42162        -2.72990         4.92049
     2016.42436       -15.33043         4.70896
     2016.42710        -3.41596         4.75483
     2016.42984        -6.51049         4.87547
     2016.43258         2.12898         4.74634
     2016.43531         0.07744         4.90860
     2016.43805         1.49791         4.68177
     2016.44079       -11.28062         4.78117
     2016.44355        -4.52714         4.77182
     2016.44626        -6.65968         4.67073
     2016.44900        -0.75721         4.77182
     2016.45174         1.47725         4.71066
     2016.45448        -2.01428         4.67413
     2016.45722         1.87519         4.82874
     2016.45995         0.31066         4.73359
     2016.46269        -5.75387         4.75738
     2016.46543        -7.29940         4.67837
     2016.46817        -2.98793         4.66138
     2016.47091        -3.64347         4.76333
     2016.47364        -2.87300         4.59767
     2016.47638         2.61147         4.78372
     2016.47912         1.29494         4.80495
     2016.48186        -5.13259         4.99185
     2016.48459        -3.54212         4.66563
     2016.48733        -7.91266         4.65798
     2016.49007        -0.47719         4.67667
     2016.49281         2.68228         4.64269
     2016.49555        -0.98425         4.65629
     2016.49828        -4.26478         4.70131
     2016.50102        -1.52531         4.64354
     2016.50376         2.57615         4.84658
     2016.50650         2.79262         4.70556
     2016.50924        -1.24091         4.64439
     2016.51197        -7.54344         4.70726
     2016.51471         1.17203         4.75823
     2016.51745        -6.66750         4.81005
     2016.52019        -2.25603         4.81940
     2016.52292        -3.53657         4.72680
     2016.52566        -2.64710         4.66733
     2016.52840        -2.20963         4.74294
     2016.53114        -6.72516         4.70046
     2016.53388        -3.01869         4.68602
     2016.53661        -4.71922         4.78541
     2016.53935        -1.32476         4.60022
     2016.54209         0.69071         4.75058
     2016.54483         3.63318         4.73954
     2016.54757         0.38565         4.82619
     2016.55029        -1.11689         4.93068
     2016.55304         0.32159         5.12268
     2016.55578         3.63706         4.83554
     2016.55852        -0.07148         4.69961
     2016.56125         3.88099         4.69961
     2016.56399         0.65846         4.59342
     2016.56673         1.16293         4.80920
     2016.57221         5.31587         4.75653
     2016.57494         4.15233         4.80410
     2016.57768        -1.42620         4.84488
     2016.58042         3.58527         4.64779
     2016.58316        -0.46326         4.74124
     2016.58590         1.21021         5.32402
     2016.58863        -3.10332         4.67583
     2016.59137        -7.79186         4.60786
     2016.59411         0.60761         4.60616
     2016.59685         4.18908         4.78881
     2016.59958         0.35455         4.72085
     2016.60232        -6.19398         4.74634
     2016.60506         0.31749         4.64439
     2016.60780         0.75896         4.64269
     2016.61054        -2.86358         4.60107
     2016.61327        -7.91611         4.69706
     2016.61601        -2.57564         4.68432
     2016.61875        -2.14417         4.73359
     2016.62149        -5.09770         4.74464
     2016.62423         0.37277         4.82959
     2016.62696         2.00623         4.77267
     2016.62970        -2.68730         4.66903
     2016.63244        -2.60583         4.82279
     2016.63518        -0.00736         4.60701
     2016.63791         1.28811         4.62400
     2016.64065         5.38058         4.73529
     2016.64339         0.12404         4.65883
     2016.64613        -1.81949         4.62485
     2016.64887        -2.52302         4.63505
     2016.65183        -0.48843         5.12098
     2016.65434        -3.28308         4.71490
     2016.65708        -2.08661         4.81430
     2016.65982        -6.29214         4.68942
     2016.66256       -10.31868         4.68177
     2016.66529        -3.53321         4.84743
     2016.66803         0.52826         4.71745
     2016.67077        -2.10427         4.77012
     2016.67351        -0.68480         4.64269
     2016.67624         1.12867         4.66393
     2016.67898         1.41013         4.60277
     2016.68172         6.70760         4.62995
     2016.68446         4.11007         4.94343
     2016.68720        -1.44846         4.97486
     2016.68993        -3.43499         4.65714
     2016.69267        -3.14052         4.67413
     2016.69541         3.72794         4.78626
     2016.69815         3.20441         4.59682
     2016.70089         1.70388         4.60277
     2016.70362         4.04435         4.73020
     2016.70636        -1.15618         5.01564
     2016.70910         1.66629         4.86357
     2016.71184         6.78076         4.73020
     2016.71457         6.27822         4.65798
     2016.71731        10.52269         4.68092
     2016.72005         1.98716         4.76757
     2016.72279         5.36263         4.62825
     2016.72553         6.08910         4.74209
     2016.72826         2.51257         4.79901
     2016.73100         0.59603         4.61041
     2016.73374         0.55050         4.64949
     2016.73648         2.42597         4.64949
     2016.73921         1.71444         4.66988
     2016.74195         3.46091         4.63165
     2016.74469        -1.85062         4.66903
     2016.74743         4.06684         4.72000
     2016.75017         6.33931         4.66988
     2016.75290         5.52178         4.62146
     2016.75564         9.47425         4.63250
     2016.75838        11.10572         4.58917
     2016.76112         3.59719         4.60277
     2016.76386         1.13666         4.62315
     2016.76659         2.02512         4.72765
     2016.76933         0.03159         4.68687
     2016.77207         2.31706         4.70131
     2016.77481         3.57153         4.72595
     2016.77754        -2.81800         4.57983
     2016.78028        -2.19253         4.58832
     2016.78302        -5.91507         4.77267
     2016.78576        11.92240         4.84403
     2016.78850         8.39087         4.61721
     2016.79123         9.58934         4.68857
     2016.79397         7.85581         4.57558
     2016.79671         2.28628         4.60361
     2016.79945        -5.83725         4.69706
     2016.80219         0.10221         4.62570
     2016.80492        -4.13532         4.69282
     2016.80766        -1.62585         4.74209
     2016.81040        -2.55238         4.63930
     2016.81314        -4.66491         4.71405
     2016.81587        -3.49944         4.72170
     2016.81861        -4.97798         4.62570
     2016.82135        -0.27151         4.62825
     2016.82409        -3.51504         4.61041
     2016.82683        -1.74057         4.75908
     2016.82956         0.13190         4.60786
     2016.83230         3.04137         4.70471
     2016.83504         1.78883         4.58238
     2016.83778        -4.08670         4.70386
     2016.84052        -6.44123         4.59597
     2016.84325        -2.77576         4.58832
     2016.84599        -1.73629         4.63930
     2016.84811         9.15484         6.53460
     2016.85147        -1.83335         4.74039
     2016.85420        -4.08189         4.66393
     2016.85694         1.41458         4.63420
     2016.85968        -3.00695         4.70386
     2016.86242        -2.12248         4.63165
     2016.86516         9.81799         4.68687
     2016.86789        -0.63254         4.59427
     2016.87063         3.69092         4.68262
     2016.87337         3.15339         4.78966
     2016.87611         3.07386         4.70216
     2016.87885        -6.61167         4.66053
     2016.88158        -7.15520         4.64014
     2016.88432        -1.18473         4.67498
     2016.88706        -2.22327         4.63505
     2016.88980         2.64220         4.67667
     2016.89253        -1.88533         4.66648
     2016.89527        -2.66186         4.68007
     2016.89801         1.62861         4.65119
     2016.90075         3.69908         4.68007
     2016.90349         7.60955         4.78541
     2016.90622         9.26801         4.77352
     2016.90896         4.86048         4.63590
     2016.91170         5.52495         4.61466
     2016.91444         1.61842         4.59257
     2016.91718        -1.97511         4.70471
     2016.91991        -7.02064         4.71490
     2016.92265        -0.99318         4.63335
     2016.92539        -2.57571         4.61041
     2016.92813        -5.13324         4.57643
     2016.93086        -5.22177         4.59767
     2016.93360        -4.73430         4.63420
     2016.93634        -0.19783         4.56369
     2016.93908        -5.13937         4.68857
     2016.94182        -8.28690         4.67243
     2016.94455         2.94557         4.74464
     2016.94729        -3.36296         4.66733
     2016.95003        -3.13549         5.56019
     2016.95368         0.36047         7.71630
     2016.95551        -9.72555         4.70131
     2016.95824        -3.36009         4.59002
     2016.96098        -9.16462         4.60871
     2016.96372       -13.75215         4.67583
     2016.96646        -0.13268         4.66393
     2016.96919        -0.37921         4.69027
     2016.97193        -2.27074         4.55009
     2016.97467         4.43772         4.64439
     2016.97741         4.04019         4.69027
     2016.98015         4.78766         4.61041
     2016.98288         1.67913         4.59512
     2016.98562         2.07660         4.61551
     2016.98836         3.12807         4.66223
     2016.99218         6.39512        10.31587
     2016.99384         2.60800         4.67073
     2016.99657        -3.03953         4.73954
     2016.99931        -1.29006         4.65119
     2017.00479        -2.17012         4.58662
     2017.00752        -8.50165         4.55009
     2017.01300         0.67228         4.81940
     2017.01574        -2.84925         4.60277
     2017.01848        -3.90278         4.65289
     2017.02121        -7.10731         4.64609
     2017.02669         8.05462         4.66988
     2017.02943         9.17309         4.62910
     2017.03216        -6.82544         4.79986
     2017.03490         1.57803         4.68602
     2017.03764         1.30850         4.58577
     2017.04038         2.74897         4.74888
     2017.04312         5.74844         4.64014
     2017.04585         6.46890         4.91879
     2017.04859         8.62337         4.97231
     2017.05133         5.98484         4.67837
     2017.05407         9.99831         4.62740
     2017.05681         8.79378         4.62740
     2017.05954         1.04725         4.63590
     2017.06228        -0.92729         4.67073
     2017.06502        -6.39882         4.66053
     2017.06776        -7.89035         4.62740
     2017.07049        -6.24388         4.59087
     2017.07323       -10.51541         4.63505
     2017.07597       -14.40194         4.63505
     2017.07871        -8.39348         4.71915
     2017.08145        -5.89901         4.67328
     2017.08418       -14.63754         4.72595
     2017.08692        -3.13707         4.85763
     2017.08966        -4.94060         4.62570
     2017.09240        -4.71513         4.70811
     2017.09514        -8.57266         4.86187
     2017.09787        -0.86720         4.64949
     2017.10061         4.27127         4.68007
     2017.10335        -0.31226         4.83384
     2017.10609       -12.07679         4.95022
     2017.10882        -1.81532         4.82110
     2017.11156        -0.49285         4.87292
     2017.11430        -8.89539         4.67413
     2017.11704       -12.71192         4.63675
     2017.11978       -10.12645         4.66733
     2017.12251       -12.68198         4.70301
     2017.12525        -7.40351         4.74719
     2017.12799         5.45896         4.73699
     2017.13073         0.77142         4.66563
     2017.13347         0.54389         4.62061
     2017.13620         0.95336         4.73189
     2017.13894        -1.35417         4.79816
     2017.14168        -9.51570         4.71151
     2017.14442        -6.81723         4.73614
     2017.14715        -7.72176         4.66563
     2017.14989        -4.47430         4.66478
     2017.15263         0.19517         4.80156
     2017.15537         2.61564         4.71490
     2017.15811        -2.02889         4.91709
     2017.16084        -3.51342         4.87631
     2017.16358       -13.10895         4.84233
     2017.16632        -5.34949         4.70046
     2017.16906        -4.24702         4.70726
     2017.17180        -4.71155         4.73020
     2017.17453       -12.54208         4.71830
     2017.17727        -0.57961         4.78032
     2017.18001        -3.12614         4.67667
     2017.18275        -6.65768         4.67583
     2017.18548       -13.20821         4.76673
     2017.18822       -10.04574         4.74973
     2017.19096        -7.87227         4.65204
     2017.19370        -9.47480         4.70556
     2017.19644        -4.83533         4.76842
     2017.19917        -5.65886         4.77862
     2017.20191        -5.41340         4.79986
     2017.20465        -6.36293         4.81515
     2017.20739         3.01654        11.82039
     2017.21013         1.94301         4.69112
     2017.21286        -2.94952         4.79221
     2017.21560        -8.98405         4.68517
     2017.21834         0.20741         4.79476
     2017.22108        -0.85412         4.73274
     2017.22381        -3.76565         4.79816
     2017.22655         0.81982         4.84743
     2017.22929        -2.66771         4.70216
     2017.23203         0.16676         4.70216
     2017.23477        -6.22578         4.66308
     2017.23750        -7.74431         4.61721
     2017.24024        -7.23484         4.76418
     2017.24298        -4.38837         4.71236
     2017.24572        -7.18590         4.68687
     2017.24846        -6.68243         4.71745
     2017.25119        -3.73296         4.74379
     2017.25393        -3.40050         4.72340
     2017.25667        -3.76503         4.67752
     2017.25941        -9.46056         4.73614
     2017.26214        -4.57109         4.89331
     2017.26488         4.48438         4.88141
     2017.26762         2.40685         4.79476
     2017.27036        -0.55169         4.69791
     2017.27310        -5.85422         4.95532
     2017.27583        -3.90475         4.76078
     2017.27857        -7.77128         4.76927
     2017.28131        -0.89981         4.71405
     2017.28405        -8.45034         4.68687
     2017.28679       -12.23887         4.71405
     2017.28952        -6.48141         4.69536
     2017.29226        -4.06994         4.71745
     2017.29500        -9.73147         4.75738
     2017.29774        -5.54600         4.75653
     2017.30047        -3.28753         4.87971
     2017.30321       -10.64406         4.70641
     2017.30595        -4.05660         4.78117
     2017.30869        -5.84313         4.74888
     2017.31143        -6.25066         4.72765
     2017.31416        -6.81019         4.65119
     2017.31690        -5.89272         4.72765
     2017.31964        -7.56625         4.80410
     2017.32238        -9.56979         4.87547
     2017.32512        -8.15632         4.68942
     2017.32785       -10.62485         4.74124
     2017.33059       -12.59038         4.75228
     2017.33333        -8.71491         4.69367
     2017.33607       -10.45044         4.67328
     2017.33880        -5.96397         4.68942
     2017.34154        -3.13251         5.01479
     2017.34428       -12.47604         4.74973
     2017.34702        -6.93357         4.67413
     2017.34976        -7.05510         4.67413
     2017.35249        -7.19963         4.66138
     2017.35523       -11.76416         4.65798
     2017.35797        -9.65970         4.75143
     2017.36071        -9.14523         4.75738
     2017.36344       -11.03276         4.73359
     2017.36618        -8.16929         4.72850
     2017.36892        -2.59982         4.80580
     2017.37166        -4.47335         4.72850
     2017.37440        -5.28889         4.71236
     2017.37713        -5.55342         4.83894
     2017.37987       -13.11395         4.76163
     2017.38261        -4.67548         4.81855
     2017.38535        -9.73401         4.62825
     2017.38809        -4.67954         4.81770
     2017.39082        -0.58907         4.66733
     2017.39356        10.95439         4.88991
     2017.39630         1.15286         4.64779
     2017.39904        -1.63467         4.66563
     2017.40177        -5.14920         4.68687
     2017.40451        -0.41373         4.86612
     2017.40725        -1.18626         4.78966
     2017.40999        -1.57180         4.77352
     2017.41273        -2.70433         4.72765
     2017.41546        -3.55486         4.70386
     2017.41820         0.16961         4.78711
     2017.42094        -6.18492         4.75993
     2017.42368        -9.96445         4.87801
     2017.42642        -5.61399         4.65883
     2017.42915        -4.72252         4.72255
     2017.43189        -0.83905         4.83129
     2017.43463         1.92042         4.81005
     2017.43630         4.57332        11.39902
     2017.43896        19.68175        13.69871
     2017.44284         0.34083         4.75823
     2017.44438        16.02565        16.94392
     2017.44706       -17.64791        26.07894
     2017.45071         8.39705         5.42171
     2017.45282         3.67618         9.65578
     2017.45528       -20.02251        21.88650
     2017.45881         1.66439         6.00874
     2017.46475         1.44957         8.56243
     2017.46634        -1.58557        13.54494
     2017.46897         4.37884        18.24965
     2017.47205         2.74449         8.35600
     2017.47553        -4.21565         4.96382
     2017.47821        -8.21121         5.19659
     2017.48117        -4.51462         4.98760
     2017.48311        -7.06358         7.23377
     2017.48665        -5.41968         5.00459
     2017.48939         3.56879         4.96637
     2017.49172        -4.70896         5.58907
     2017.49361        -5.12995        17.96591
     2017.49652         6.10661        10.22582
     2017.50017        -1.06143         5.24416
     2017.50308         2.45613         4.88906
     2017.50496         4.00214         7.65683
     2017.50855        -6.98093         4.91284
     2017.51351         1.89373         5.89066
     2017.51614         4.06614         6.50317
     2017.51950        -1.65306         5.03008
     2017.52196         7.62026         5.72670
     2017.52441        -3.03443         6.49552
     2017.52693         1.27492         7.21083
     2017.53485         3.06917        10.63614
     2017.53736         5.97552        77.04238
     2017.54083         5.11038         6.22962
     2017.54346         4.55779         6.76907
     2017.54620         9.30826         6.80135
     2017.54831        44.71239        58.35012
     2017.55236        -3.03244         4.95787
     2017.55378       -11.66367        87.12292
     2017.55743         1.56029         5.88046
     2017.55926       -36.28574        56.11500
     2017.56217        16.22582        12.89675
     2017.56605        -4.16210         4.87886
     2017.56810        -5.71499         6.95597
     2017.57044       -14.06874        10.80265
     2017.57295        16.11861        49.72312
     2017.57637         1.64144         6.86592
     2017.57882        -2.83424         8.23197
     2017.58247        -4.36228         4.79901
     2017.58720       -12.73375         6.88291
     2017.58943        -2.87556        16.75023
     2017.59245        -4.56593         8.66863
     2017.59616        -3.26194         4.85593
     2017.59890        -2.06047         4.74888
     2017.60164         0.27599         4.81855
     2017.60438        -4.85054         4.71915
     2017.60711        -3.00807         4.79901
     2017.60985        -1.38460         4.96552
     2017.61259        -7.26013         4.82025
     2017.61533         1.15734         4.92304
     2017.61807         7.11480         5.04197
     2017.62080        -4.63473         4.77777
     2017.62354        -3.74226         4.87886
     2017.62628        -5.03079         4.86272
     2017.62902        -0.04032         4.98760
     2017.63175        -5.97485         4.87971
     2017.63449        -6.51638         4.76757
     2017.63723        -7.08892         4.78457
     2017.63997         2.05555         4.84063
     2017.64271         1.53302         4.76673
     2017.64544        -5.19051         4.80071
     2017.64818        -2.51604         4.78881
     2017.65092        -1.30857         4.69197
     2017.65366         0.74189         4.71066
     2017.65639        -1.62464         4.73699
     2017.65913         2.83883         4.76842
     2017.66187        -1.38370         4.82364
     2017.66461         6.13477         4.90350
     2017.66735         3.44124         4.84233
     2017.67008         4.83570         4.72510
     2017.67282        -1.54883         4.92134
     2017.67556        -0.43736         4.75058
     2017.67830        -2.14789         4.73954
     2017.68104         0.57558         4.73444
     2017.68377         4.80905         4.86442
     2017.68651         5.79252         5.01819
     2017.68925         3.60198         4.77692
     2017.69199        -5.65855         4.90435
     2017.69472         5.07992         4.82110
     2017.69746         4.05539         4.87037
     2017.70020         4.28786         4.84658
     2017.70294         6.29433         5.03603
     2017.70568         0.42179         4.84658
     2017.70841         4.70926         4.70896
     2017.71115        -0.29327         4.77352
     2017.71389         1.56320         4.85168
     2017.71663         4.47767         4.62995
     2017.71937         5.01414         4.81345
     2017.72210        -1.17240         4.83639
     2017.72484        -3.97993         4.74379
     2017.72758         3.96754         4.78881
     2017.73032         3.43301         4.68007
     2017.73305         5.63048         4.86782
     2017.73579        -1.21305         4.75993
     2017.73853        -1.83858         4.84488
     2017.74127        -0.31912         4.73104
     2017.74401         5.97735         4.68432
     2017.74674         2.88082         4.82449
     2017.74948         0.77029         4.78881
     2017.75222        -0.43324         4.73104
     2017.75496        -0.73277         4.70301
     2017.75770        -5.50131         4.89840
     2017.76043        -1.15084         4.81090
     2017.76317         4.99663         4.76673
     2017.76591         8.45610         4.77097
     2017.76865         5.50957         4.72000
     2017.77138        -1.04796         4.70981
     2017.77412        -1.22050         4.74888
     2017.77686        -4.20203         4.80750
     2017.77960         0.36544         4.76757
     2017.78234        -2.85909         4.66818
     2017.78507        -3.53962         4.69197
     2017.78781        -3.99415         4.67073
     2017.79055         2.34032         4.73614
     2017.79329         5.02678         4.77947
     2017.79603         2.95825         4.81685
     2017.79876        16.42872         4.96212
     2017.80150         6.81219         4.80071
     2017.80424         4.28766         4.67328
     2017.80698         1.36113         4.81175
     2017.80971        -6.34041         4.67413
     2017.81245        -4.85294         4.67413
     2017.81519        -3.25947         4.69791
     2017.81793       -10.46800         4.73869
     2017.82061       -14.29456         4.97826
     2017.82305       -13.28925         5.84733
     2017.82569       -10.49784         6.24321
     2017.82802       -18.90059         8.35260
     2017.83160         1.10633         4.80410
     2017.83424         1.71975         5.20508
     2017.83607         0.29173        10.24366
     2017.83937        -8.92850         6.11918
     2017.84206        -6.41606         6.24916
     2017.84439       -10.36581         8.27614
     2017.84685       -10.18349        15.30687
     2017.85015        -5.38072         6.51846
     2017.85232        -5.03255        15.60166
     2017.85500        26.16988        21.75482
     2017.85825       -14.54237         7.37819
     2017.86173         1.15049         4.76333
     2017.86447        -2.11904         4.68857
     2017.86721         7.87843         4.81430
     2017.86995         1.10990         4.68007
     2017.87269         4.96437         4.71236
     2017.87542         1.17584         4.60956
     2017.87816         3.30131         4.72000
     2017.88090         2.52377         4.60446
     2017.88364         2.94324         4.68857
     2017.88637         8.83171         4.82534
     2017.88911        -1.69182         4.95447
     2017.89185        -0.62935         4.79476
     2017.89459         5.62012         4.76418
     2017.89733         3.74358         4.77777
     2017.90006        -2.06295         4.75228
     2017.90280         9.61552         4.78966
     2017.90554         4.44099         4.85423
     2017.90828         3.65146         4.59427
     2017.91102         3.26793         4.74719
     2017.91375        -1.11261         4.67752
     2017.91649         3.60886         4.63675
     2017.92575        -1.23417         9.19194
     2017.92744        -5.42826         4.59172
     2017.93018        -9.38579         4.64014
     2017.93292        -9.58633         4.67667
     2017.93566        -4.60486         4.61806
     2017.93839        -3.33939         4.66138
     2017.94113        -6.05592         4.60277
     2017.94387        -0.37045         4.65714
     2017.94661         0.59902         4.59597
     2017.94935        -1.98352         4.69282
     2017.95208        -1.13105         4.71151
     2017.95482        -3.06158         4.68007
     2017.95636       -24.04075        14.74703
     2017.96030         5.24736         4.63250
     2017.96303         3.60583         4.70471
     2017.96577         3.15629         4.77182
     2017.96851        -0.84024         4.72850
     2017.97125        -2.98477         4.65968
     2017.97399        -4.62330         4.64184
     2017.97672        -9.68483         4.65544
     2017.97946        -1.64736         4.67158
     2017.98220        -6.14289         4.66478
     2017.98494       -11.31343         4.69791
     2017.98767       -10.50496         4.71575
     2017.99041        -8.12149         4.70811
     2017.99315        -1.96202         4.60022
     2017.99589        -6.21655         4.63930
     2017.99863        -5.34308         4.57983
     2018.00136       -13.55962         4.61721
     2018.00410       -15.91715         4.64694
     2018.00684        -6.39768         4.69621
     2018.00958        -8.37621         4.69451
     2018.01232        -7.17374         4.61466
     2018.01505        -4.09827         4.64439
     2018.01779        -2.27281         4.60616
     2018.02053        -0.28434         4.71745
     2018.02327         3.14913         4.60446
     2018.02600        -3.55640         4.70811
     2018.02874         1.31907         4.62570
     2018.03148        -6.69246         4.61466
     2018.03422        -7.29299         4.58323
     2018.03696       -11.90653         4.65629
     2018.03969       -12.49206         4.61636
     2018.04243       -14.08959         4.72000
     2018.04517       -15.14012         4.62146
     2018.04791        -8.60165         4.65289
     2018.05065        -1.82518         4.66053
     2018.05338        -1.68772         4.63335
     2018.05612        -7.71025         4.66478
     2018.05886        -7.80978         4.63250
     2018.06160        -7.65431         4.63930
     2018.06433        -6.11984         4.77607
     2018.06707         7.74763         4.79476
     2018.06981        -5.70090         4.72425
     2018.07255       -10.10444         4.73104
     2018.07529       -16.01697         4.76673
     2018.07802        -9.60250         4.76842
     2018.08076        -6.61903         4.77437
     2018.08350        -7.08756         4.69791
     2018.08624        -9.97409         4.71575
     2018.08898        -3.45763         4.91879
     2018.09171        -3.23216         4.77097
     2018.09445        -5.57769         4.77862
     2018.09719         1.44678         4.97571
     2018.09993        -4.76875         4.71830
     2018.10266       -10.37728         4.75398
     2018.10540        -0.74282         4.89161
     2018.10814        -0.64035         4.78626
     2018.11088        -7.18388         4.78966
     2018.11362        -2.14041         4.73869
     2018.11635        -8.38294         4.72510
     2018.11909        -7.40147         4.83894
     2018.12183        -1.21000         4.79391
     2018.12457        -1.93154         4.80580
     2018.12731        -8.83207         4.79051
     2018.13004        -1.34060         4.82110
     2018.13278         3.16087         4.73784
     2018.13552         1.86534         4.71745
     2018.13826        -5.17319         5.10229
     2018.14099        -3.84573         4.75398
     2018.14373        -3.00526         4.71575
     2018.14647        -1.92979         4.82364
     2018.14921        -0.43732         4.76927
     2018.15195         2.76115         4.64694
     2018.15468        -1.18838         4.67752
     2018.15742         0.59808         4.70131
     2018.16016        -3.33345         4.74634
     2018.16290        -2.50598         4.84573
     2018.16564       -10.06851         4.86102
     2018.16837        -2.07404         4.72340
     2018.17111        -3.57257         4.68942
     2018.17385        -4.97210         4.67073
     2018.17659        -0.93264         4.72000
     2018.17932        -1.76217         4.72595
     2018.18206         5.93130         4.82534
     2018.18480         0.50377         4.90690
     2018.18754        -0.48476         4.72935
     2018.19028        -6.93729         4.69621
     2018.19301        -2.93183         4.73869
     2018.19575         6.04264         4.84148
     2018.19849         1.27011         4.73699
     2018.20123         5.00858         4.79646
     2018.20397         2.48705         4.69027
     2018.20670        -3.82548         4.64439
     2018.20944        -1.71902         4.66988
     2018.21218        -3.97855         4.60871
     2018.21492       -16.71008         4.70386
     2018.21765         1.73439         4.59087
     2018.22046         0.20389         4.80326
     2018.22313        -1.54167         4.67243
     2018.22587        -4.30120         4.60531
     2018.22861        -5.81774         4.54075
     2018.23134        -4.02227         4.56963
     2018.23408        -9.27280         4.63335
     2018.23682        -6.95033         4.68942
     2018.23956        -5.81886         4.58323
     2018.24230        -5.76139         4.58238
     2018.24503        -4.99493         4.59852
     2018.24777        -3.07746         4.65289
     2018.25051        -1.62299         4.68347
     2018.25325        -4.66752         4.57813
     2018.25598        -4.19005         4.54075
     2018.25872        -6.50658         4.66478
     2018.26146        -5.12912         4.67328
     2018.26420        -0.83865         4.69621
     2018.26694        -5.11518         4.55689
     2018.26967        -7.37171         4.57983
     2018.27241        -2.14024         4.61296
     2018.27515        -2.35277         4.67837
     2018.27789        -0.23730         4.68347
     2018.28062        -5.56284         4.76333
     2018.28336        -9.38137         4.61806
     2018.28610        -4.22990         4.57728
     2018.28884        -3.28443         4.59767
     2018.29158         0.04104         4.67667
     2018.29431        -5.94349         4.64354
     2018.29705        -6.98603         4.60531
     2018.29979        -6.99256         4.61126
     2018.30253        -4.69609         4.56878
     2018.30527        -6.15562         4.52376
     2018.30800        -7.62915         4.53905
     2018.31074        -6.22368         4.53735
     2018.31348        -3.14521         4.61041
     2018.31622        -9.36675         4.56878
     2018.31895         4.77272         4.70896
     2018.32169        -3.98381         4.61296
     2018.32443        -2.04334         4.52801
     2018.32717        -7.64087         4.57813
     2018.32991        -4.25240         4.72000
     2018.33264        -4.10594         4.57388
     2018.33538        -7.64747         4.86867
     2018.33812        -7.97000         4.73614
     2018.34086        -6.76553         4.66903
     2018.34360        -4.14806         4.57983
     2018.34633        -8.41059         4.66988
     2018.34907        -6.65013         4.55689
     2018.35181         6.95734         4.89840
     2018.35455         0.01181         4.65798
     2018.35728        -4.45272         4.52546
     2018.36002        -7.02725         4.68177
     2018.36276         1.81622         4.65204
     2018.36550         1.90269         4.65034
     2018.36824        -1.75585         4.58917
     2018.37097         0.53562         4.78202
     2018.37371        -5.35791         4.61211
     2018.37645        -3.06144         4.80835
     2018.37919       -11.83497         4.63845
     2018.38193        -5.83850         4.58832
     2018.38466         0.07196         4.58747
     2018.38740         0.52143         4.60786
     2018.39014         6.39590         4.67328
     2018.39288        -1.10163         4.63675
     2018.39561         2.45484         4.56709
     2018.39835         2.87031         4.55349
     2018.40109        -0.92923         4.53735
     2018.40383        -0.30876         4.62146
     2018.40657        -2.72729         4.68007
     2018.40930        -0.09782         4.92729
     2018.41204         2.76165         4.56199
     2018.41478        -4.46288         4.54160
     2018.42299        -6.42748         4.63930
     2018.42573        -0.45201         4.57558
     2018.42847         1.66846         4.57388
     2018.43121         1.17793         4.59597
     2018.43394        -5.64860         4.55689
     2018.43668        -4.49614         4.56963
     2018.43942        -2.76467         4.64439
     2018.44216         0.12780         4.57218
     2018.44490         2.03327         4.57643
     2018.44763         4.02874         4.51696
     2018.45037        -2.16379         4.51356
     2018.45311         0.19067         4.56624
     2018.45585         3.06514         4.56454
     2018.45859         1.71961         4.69367
     2018.46132        -6.43192         4.52716
     2018.46406        -6.14345         4.55434
     2018.46680         3.59502         4.61721
     2018.46954         3.66149         4.72340
     2018.47227         1.50095         4.74464
     2018.47501         7.69642         4.56624
     2018.47775         1.95189         4.57048
     2018.48049         5.13636         4.81345
     2018.48323         0.09683         4.65798
     2018.48596        -2.96070         4.61041
     2018.48870         1.90076         4.72340
     2018.49144        -0.85577         4.57813
     2018.49418         0.55470         4.75143
     2018.49692         3.97917         4.84318
     2018.49965         2.33464         4.60786
     2018.50239        -0.98989         4.53480
     2018.50513        -3.71043         4.55519
     2018.50787         0.65304         4.64609
     2018.51060         2.41751         4.81515
     2018.51334         2.42898         4.64269
     2018.51608        -0.85855         4.51102
     2018.51882        -2.51008         4.59512
     2018.52156         2.71739         4.63335
     2018.52429        -3.56615         4.65629
     2018.52703         0.71432         4.58068
     2018.52977        -0.18321         4.56539
     2018.53251         0.82826         4.57983
     2018.53525         2.46073         4.53310
     2018.53798        -1.82980         4.55604
     2018.54072         0.16066         4.71915
     2018.54346         5.28013         4.66733
     2018.54620        -2.35540         4.66138
     2018.54893        -1.84493         4.52376
     2018.55167        -3.74546         4.60192
     2018.55441        -2.69699         4.61466
     2018.55715        -5.99452         4.80835
     2018.55989        -0.81506         4.87716
     2018.56262        -2.77159         4.58662
     2018.56536        -4.34012         4.64779
     2018.56810         0.76935         4.62230
     2018.57084        -2.10618         4.62061
     2018.57357        -2.58471         4.95022
     2018.57631        -3.48225         4.88226
     2018.57905         0.13022         4.87631
     2018.58179         2.46969         4.80156
     2018.58453         5.54816         4.71066
     2018.58726         0.60663         4.60022
     2018.59000        -2.93690         4.59597
     2018.59274         0.78556         4.53310
     2018.59548        -3.24897         4.59172
     2018.59822         1.48950         4.71405
     2018.60095        -0.78703         4.55519
     2018.60369         2.03444         4.69197
     2018.60643         2.74091         4.57558
     2018.60917        -0.06962         4.73954
     2018.61190         0.38484         4.53990
     2018.61464        -1.98269         4.50847
     2018.61738        -0.08622         4.57303
     2018.62012         3.74225         4.53480
     2018.62286         2.29872         4.64949
     2018.62559        -0.37581         4.77607
     2018.62833         0.11765         4.54415
     2018.63107        -0.00888         4.47534
     2018.63381        -1.41041         4.77607
     2018.63655        -2.77394         4.60956
     2018.63928         1.01653         4.76163
     2018.64202         1.44300         4.81175
     2018.64476         2.46846         4.60361
     2018.64750         0.80893         4.57898
     2018.65023         5.18240         4.73614
     2018.65297        -0.59513         4.56624
     2018.65571         3.54634         4.59512
     2018.65845         5.15081         4.65034
     2018.66119        10.54528         4.68517
     2018.66392         4.64074         4.55179
     2018.66666        -2.61679         4.60956
     2018.66940         1.04468         4.50762
     2018.67214         1.13315         4.52546
     2018.67488         0.22262         4.49063
     2018.67761        -0.00991         4.52886
     2018.68035        -3.74545         4.71490
     2018.68309        -8.16998         4.77437
     2018.68480         4.39394         8.98210
     2018.68856         3.10296         4.84573
     2018.69062         1.76906         6.45729
     2018.69307        -2.34562         8.95577
     2018.69666         3.14630         5.02413
     2018.69895        -2.94947         5.96117
     2018.70225        -1.21770         4.88226
     2018.70419        -2.66866         7.17005
     2018.70687        -2.23222         7.76642
     2018.71047        -1.30629         4.82534
     2018.71292        -1.07598         5.40982
     2018.71594        -1.50736         4.69706
     2018.71800        -6.32625         6.28314
     2018.72056       -11.46188         7.87346
     2018.72359        -0.63526         6.16166
     2018.72638         0.64024         5.82439
     2018.73237        -6.16355         4.71745
     2018.73511        -5.27508         4.79561
     2018.73785         1.55739         4.88821
     2018.74058        -5.76014         4.87122
     2018.74264        -3.58304         6.69177
     2018.74486         2.22515        15.21852
     2018.74757         2.65060        17.61165
     2018.75062       -13.25876         8.73999
     2018.75336         1.61471         8.96426
     2018.75690         2.60661         5.23991
     2018.75918        -4.25717         5.98326
     2018.76249        -4.83139         4.74549
     2018.76391        36.21437        45.85095
     2018.76796         0.45954         4.75143
     2018.76950         4.60937        16.19973
     2018.77344        -0.14352         4.61466
     2018.77618        -5.11705         4.62825
     2018.77891        -0.69158         4.77947
     2018.78165         5.14289         4.77947
     2018.78439         0.03035         4.63675
     2018.78713         0.17182         4.75653
     2018.78987        -8.28471         4.75908
     2018.79260        -5.06024         4.64524
     2018.79534         1.78623         4.58068
     2018.79808        -4.85030         4.59682
     2018.80082        -0.73083         4.69621
     2018.80355         0.36663         4.61891
     2018.80629        -2.57890         4.83554
     2018.80903        -1.72443         4.60616
     2018.81177         4.97604         4.88906
     2018.81451        -4.78049         4.67243
     2018.81724         5.84798         4.72340
     2018.81998        -2.35056         4.75313
     2018.82272         1.66691         4.71490
     2018.82546         3.48038         4.76163
     2018.82820        -3.33015         4.57898
     2018.83093         0.02432         4.63930
     2018.83367        -0.46721         4.67413
     2018.83641         7.89125         4.73614
     2018.83915         2.52072         4.64184
     2018.84188         1.09419         4.73529
     2018.84462         7.44466         4.63930
     2018.84736        -1.34587         4.62061
     2018.85010         1.98960         4.61126
     2018.85284        -4.85493         4.61551
     2018.85557        -9.23147         4.64694
     2018.85831        -3.89700         4.64779
     2018.86105        -2.93353         4.62740
     2018.86379        -4.02806         4.75228
     2018.86653        -0.14459         4.65289
     2018.86926        -8.37812         4.67243
     2018.87200        -3.52666         4.67752
     2018.87474         1.08481         4.67243
     2018.87748        -2.59072         4.72765
     2018.87893       -12.10894        27.16889
     2018.88295         0.69322         4.74549
     2018.88569        -0.91831         4.64779
     2018.88843         6.29515         4.79646
     2018.89117         6.37862         4.79221
     2018.89390         5.48609         4.81345
     2018.89664        -1.72344         4.84743
     2018.89938        -2.87097         4.69112
     2018.90212         4.22050         4.70471
     2018.90485         2.83797         4.72765
     2018.90759         4.95043         4.83384
     2018.91033         4.00190         4.75143
     2018.91307         7.74737         4.84063
     2018.91581         7.34884         4.71151
     2018.91854        10.19831         4.70386
     2018.92128         2.63978         4.69197
     2018.92402         5.68524         4.72765
     2018.92676         6.28171         4.71745
     2018.92950         3.90818         4.68772
     2018.93223         3.37765         4.76588
     2018.93497         6.55512         4.74549
     2018.93771         3.00059         4.79306
     2018.94045         2.48405         4.68007
     2018.94318         3.79252         4.65459
     2018.94592         8.63399         4.65374
     2018.94866         9.58746         4.68857
     2018.95140        15.33693         4.86952
     2018.95414        15.11040         4.72935
     2018.95687         8.69687         4.68007
     2018.95961        11.03033         4.78287
     2018.96235         8.82980         4.86017
     2018.96509         0.15627         4.76503
     2018.96783         4.78774         4.65289
     2018.97056        11.42821         4.72510
     2018.97330        -0.13832         4.75058
     2018.97604         3.89214         4.77862
     2018.97878         0.01061         4.74294
     2018.98151        -0.90592         4.64949
     2018.98425         3.16955         4.74124
     2018.98699       -18.39498         4.78202
     2018.98973         2.55849         4.70386
     2018.99247         2.63095         4.76588
     2018.99520        -1.48058         4.80326
     2018.99794        -4.27111         4.75228
     2019.00068        -7.10464         4.76673
     2019.00342        -1.44717         4.77182
     2019.00616        -7.17070         4.76927
     2019.00889         1.65577         4.79221
     2019.01163         2.60323         4.78287
     2019.01437        12.20970         4.71490
     2019.01711         7.29817         4.68772
     2019.01984        -4.58636         4.72680
     2019.02258        -5.62989         4.78711
     2019.02532        -2.94642         4.75568
     2019.02806        -7.32996         4.70131
     2019.03080        -6.89749         4.74379
     2019.03353        -6.15202         4.67922
     2019.03627       -11.97755         4.71745
     2019.03901        -6.58408         4.68857
     2019.04130        -5.21285         5.72925
     2019.12662        11.03791         4.83639
     2019.12936         0.25538         4.73189
     2019.13210         2.81784         4.76333
     2019.13483         4.23731         4.75993
     2019.13757        -5.54022         4.77607
     2019.14031         6.37925         4.68857
     2019.14305         6.35772         4.67073
     2019.14579         6.20919         4.64949
     2019.14852        -2.49634         4.62825
     2019.15126         6.79112         4.63080
     2019.15400         0.97559         4.64354
     2019.15674         3.71406         4.60786
     2019.15948         1.38053         4.62570
     2019.16221        -5.31700         4.72935
     2019.16495        -1.15653         4.58577
     2019.16769        -7.41707         4.56199
     2019.17043        -2.32460         4.61126
     2019.17316        -4.79613         4.65544
     2019.17590        -7.71466         4.67328
     2019.17864         5.20981         4.74039
     2019.18138         1.39328         4.63420
     2019.18412        -7.00726         4.69197
     2019.18685         2.77921         4.68262
     2019.18959        -3.16932         4.68432
     2019.19233        -4.15485         4.68007
     2019.19507        -2.03738         4.67413
     2019.19780        -4.96191         4.76248
     2019.20054        -7.35344         4.80410
     2019.20328       -12.40698         4.69791
     2019.20588        -9.07158         5.31128
     2019.21149       -11.98757         4.66053
     2019.21423        -4.97510         4.72680
     2019.21697        -3.52763         4.63590
     2019.21971        -3.29017         4.76588
     2019.22245        -0.56170         4.74719
     2019.22518        -6.74723         4.56199
     2019.22792        -7.67776         4.66053
     2019.23066        -4.93429         4.67837
     2019.23340        -5.11982         4.69876
     2019.23613        -9.23336         4.62825
     2019.23887        -6.83689         4.64694
     2019.24161       -21.03342         4.97061
     2019.24435       -10.77595         4.82364
     2019.24709        -8.60248         4.72425
     2019.24982         0.05199         4.64184
     2019.25256        -5.04454         4.78541
     2019.25433        -0.22260        10.13322
     2019.25804        -5.03961         4.70301
     2019.26078        -2.54214         4.71066
     2019.26351        -6.71467         4.80326
     2019.26625        -8.62920         4.58153
     2019.26899        -8.30173         4.68517
     2019.27173        -5.28027         4.78626
     2019.27446        -8.13180         4.59172
     2019.27720        -6.34033         4.73274
     2019.27994        -1.21186         4.53310
     2019.28268        -2.53539         4.66478
     2019.28542         1.50408         4.55349
     2019.28815         0.12555         4.62315
     2019.29089        -0.87099         4.68687
     2019.29363        -4.13452         4.63590
     2019.29637        -1.97905         4.67922
     2019.29911        -2.27858         4.64099
     2019.30184        -9.64011         4.66393
     2019.30458       -11.52864         4.64524
     2019.30732        -8.53718         4.69112
     2019.31006        -6.17471         4.76927
     2019.31279        -5.65724         4.75483
     2019.31553         6.25423         4.71915
     2019.31827        -1.73130         4.62400
     2019.32101        -6.56583         4.57643
     2019.32375       -14.21137         4.59002
     2019.32648        -3.96090         4.60701
     2019.32922        -6.27143         4.70726
     2019.33196        -5.08396         4.71660
     2019.33470        -9.04749         4.75908
     2019.33744        -7.34402         4.69536
     2019.34017       -10.13955         4.67583
     2019.34291        -1.85409         4.60956
     2019.34565        -5.16162         4.79391
     2019.34839        -8.06915         4.68942
     2019.35112        -7.81968         4.64439
     2019.35386        -7.06621         4.58662
     2019.35660        -5.66474         4.58238
     2019.35934         2.68972         4.61976
     2019.36208         0.04319         4.63760
     2019.36481        -0.00834         4.62740
     2019.36755        -5.85487         4.62400
     2019.37029        -5.59440         4.57983
     2019.37303        -6.68393         4.57813
     2019.37577        -0.34347         4.71745
     2019.37850        -3.45700         4.61721
     2019.38124        -1.26153         4.57898
     2019.38398        -0.10006         4.56963
     2019.38672        -4.36659         4.57133
     2019.38945        -2.99412         4.58747
     2019.39219        -3.70565         4.61466
     2019.39493        -0.88819         4.55094
     2019.39767        -4.73972         4.76248
     2019.40041        -7.73325         4.63760
     2019.40314         3.77822         4.64524
     2019.40588         1.18469         4.70981
     2019.40862        -6.00584         4.70216
     2019.41136         0.69562         4.53735
     2019.41410        -1.75391         4.56963
     2019.41683         0.50956         4.75313
     2019.41957         2.04103         4.63930
     2019.42231        -3.25350         4.58408
     2019.42505        -1.63503         4.59597
     2019.42778         3.10443         4.84148
     2019.43052         1.02990         4.87462
     2019.43326        -6.58763         4.58493
     2019.43600        -8.70116         4.66733
     2019.43874        -9.05969         4.66818
     2019.44147        -8.07622         4.74549
     2019.44421         0.23425         4.64949
     2019.44695        -1.98029         4.74973
     2019.44969         3.71118         4.83809
     2019.45243        -0.26535         4.68347
     2019.45516        -0.42388         4.75823
     2019.45790         0.36359         4.62825
     2019.46064        -0.41194         4.73359
     2019.46338        -5.06448         5.01564
     2019.46611         5.09099         4.89585
     2019.46885        -1.19054         4.87377
     2019.47159         2.15393         4.68262
     2019.47330       -15.99916        12.28763
     2019.47707         0.99187         4.72680
     2019.47980        -3.24567         4.68772
     2019.48254        -4.00420         4.75908
     2019.48528        -1.87273         4.93068
     2019.48802        -3.36026         4.80241
     2019.49076        -4.44779         4.63080
     2019.49349        -0.65232         4.55774
     2019.49623        -1.81685         4.57303
     2019.49897        -4.09839         4.65459
     2019.50171        -0.51692         4.60446
     2019.50444        -5.93445         4.94683
     2019.50718        -3.99798         4.48723
     2019.50992         1.67649         4.62146
     2019.51266        -4.15404         4.61551
     2019.51540         3.52642         4.62485
     2019.51813        -2.31811         4.63250
     2019.52087        -3.55264         4.64694
     2019.52361        -5.20317         4.54924
     2019.52635         1.53730         4.60701
     2019.52908        -3.31123         4.84828
     2019.53182        -3.94076         4.87377
     2019.53456        -3.18730         4.77097
     2019.53730        -4.55983         4.67158
     2019.54004        -1.58136         4.87037
     2019.54277         1.10411         4.84998
     2019.54551        -1.87442         4.78117
     2019.54825         0.74205         4.64864
     2019.55099        -2.30849         4.66648
     2019.55373         1.50698         4.79476
     2019.55646         1.98845         4.80835
     2019.55920         0.71392         4.91284
     2019.56194        -1.81461         4.53820
     2019.56468        -6.88914         4.83044
     2019.56741        -4.75868         4.72255
     2019.57015        -5.93921         4.55519
     2019.57289        -2.09274         4.60531
     2019.57563         7.51073         4.74634
     2019.57837         0.86720         4.68262
     2019.58110        -5.38133         4.54585
     2019.58384        -4.10186         4.70471
     2019.58658        -5.09440         4.77097
     2019.58932         3.68707         4.58832
     2019.59206         0.84954         4.70556
     2019.59479         0.35001         4.54245
     2019.59753         3.50348         4.70811
     2019.60027         0.01295         4.76248
     2019.60301        -2.85659         4.69451
     2019.60574         0.67788         5.01989
     2019.60848        -2.15065         4.82704
     2019.61122        -5.27418         4.62825
     2019.61396        -3.58571         4.70386
     2019.61670         0.08076         4.55774
     2019.61943         0.40922         4.54755
     2019.62217         6.00969         4.72765
     2019.62491         4.67616         4.52631
     2019.62765         3.82263         4.58917
     2019.63039         3.68510         4.63675
     2019.63312        -4.60343         4.54075
     2019.63586        -0.11296         4.55689
     2019.63860         3.84850         4.82194
     2019.64134        -3.35103         4.69197
     2019.64407         2.85544         5.13542
     2019.64681        -0.85609         4.54245
     2019.64955        -4.20562         4.51611
     2019.65229         1.70085         4.54160
     2019.65503        -2.23569         4.80071
     2019.65776         5.11278         4.87716
     2019.66050        -0.57775         4.68177
     2019.66324        -2.09228         4.68007
     2019.66598        -0.30681         4.57728
     2019.66872         3.13366         4.67158
     2019.67145        -0.95988         4.64524
     2019.67695         0.40707         4.61806
     2019.67967        -2.66047         4.71575
     2019.68240        -3.76300         4.61126
     2019.68514         1.45847         4.59257
     2019.68788         7.15094         4.88736
     2019.69062         3.45240         4.66648
     2019.69336        -0.18013         4.48298
     2019.69609         3.10434         4.64014
     2019.69883        -6.99719         4.77607
     2019.70157         0.26128         4.70386
     2019.70431         2.99375         4.64609
     2019.70705         1.23221         4.58238
     2019.70978        -0.07232         4.63760
     2019.71252        -5.67285         4.67922
     2019.71526        -0.29238         4.59172
     2019.71800         4.04909         4.68942
     2019.71954        -1.03209        13.88645
     2019.72347         0.98302         4.67413
     2019.72621        -3.07051         4.71660
     2019.72895         1.90596         4.70301
     2019.73169         2.84443         4.59257
     2019.73442         4.92390         4.63590
     2019.73716         7.88237         4.62910
     2019.73990         3.73384         4.81515
     2019.74264        -0.54370         4.61126
     2019.74538        -3.25323         4.58832
     2019.74811         1.18424         4.67837
     2019.75085        -3.14229         4.72000
     2019.75359        -2.39382         4.90945
     2019.75633         0.65065         4.76163
     2019.75906        -0.58289         4.65119
     2019.76180        -1.41642         4.60786
     2019.76454         0.21205         4.74124
     2019.76728         4.15252         4.87462
     2019.77002        -1.87301         4.76248
     2019.77275        -6.30054         4.82110
     2019.77549        -0.48007         4.76927
     2019.77823         3.23339         4.78287
     2019.78097         2.52386         4.75058
     2019.78371        -1.08567         4.74634
     2019.78644         0.17580         4.72850
     2019.78918         4.66927         4.90350
     2019.79192         5.23074         4.81260
     2019.79466         7.82220         4.96127
     2019.79739         1.06467         4.72340
     2019.80013         2.12414         4.69367
     2019.80287        -0.01039         4.66648
     2019.80561        -7.19492         4.88821
     2019.80835        -4.36045         4.78287
     2019.81108        -3.20399         4.78966
     2019.81382        -0.89152         4.77862
     2019.81656        -2.24405         4.73444
     2019.81930        -0.75458         4.70556
     2019.82203        -1.81011         4.72255
     2019.82477        -3.68264         4.76588
     2019.82751        -6.88417         4.71745
     2019.83025        -0.88671         4.79986
     2019.83299        -2.29124         4.78626
     2019.83572        -2.24677         4.83384
     2019.83846         5.31570         4.73784
     2019.84120         0.09017         4.71236
     2019.84394        -1.88136         4.79816
     2019.84668        -7.58990         4.67837
     2019.84941        -5.46243         4.61466
     2019.85215        -4.04796         4.69621
     2019.85489         5.56351         4.79476
     2019.85763         1.45898         4.71066
     2019.86036        -7.99455         4.71830
     2019.86310        -2.45309         4.79136
     2019.86584        -4.82362         4.77267
     2019.86858         1.53585         4.71490
     2019.87132        -3.27968         4.78372
     2019.87405        -1.56721         4.71660
     2019.87679        -1.41574         4.87801
     2019.87953         5.46373         4.76757
     2019.88227        11.81019         4.81515
     2019.88501         6.38766         4.70896
     2019.88774         2.00013         4.81685
     2019.89048         6.85060         4.71660
     2019.89322         7.28907         4.83469
     2019.89596         5.20654         4.75823
     2019.89869         7.84200         4.72000
     2019.90143         1.66047         4.72085
     2019.90417         8.66494         4.82874
     2019.90691         6.64841         4.64779
     2019.90965         3.93788         4.63165
     2019.91238         6.82235         4.63420
     2019.91512         8.62281         4.69621
     2019.91786        12.65928         4.70386
     2019.92060         6.85175         4.62910
     2019.92607         6.55869         4.70046
     2019.92881        -0.37984         4.74464
     2019.93155         6.86963         4.75823
     2019.93429         2.37709         4.70471
     2019.93702         1.95156         4.73189
     2019.93976        -3.19297         4.69961
     2019.94250        -3.18750         4.73444
     2019.94524        -4.78303         4.73020
     2019.94798        -4.09856         4.84913
     2019.95071        -4.39010         4.91709
     2019.95345         1.83537         4.66138
     2019.95619        -1.57716         4.65798
     2019.95893        -2.19769         4.63420
     2019.96167        -1.02622         4.79986
     2019.96440        -2.44475         4.87716
     2019.96714        -1.51429         4.95532
     2019.96988         0.75618         4.77947
     2019.97262         2.28665         4.82025
     2019.97535        -2.87988         4.77012
     2019.97809        -4.72141         4.77692
     2019.98083        -7.11694         4.76673
     2019.98357        -7.82847         4.72425
     2019.98631        -4.22901         4.70811
     2019.98904        -7.08654         4.68772
     2019.99178        -3.06307         4.78372
     2019.99452        -6.75360         4.76248
     2019.99726        -0.12613         4.79561
     2020.00000        12.64334         4.70301
     2020.00273         4.67680         4.78117
     2020.00547        -0.50173         4.90435
     2020.00821         3.73074         4.94173
     2020.01095        -1.75179         4.90945
     2020.01368       -10.16532         4.88991
     2020.01642        -1.61885         4.91624
     2020.01916        -1.38238         4.82025
     2020.02190        -2.62692         4.87971
     2020.02464        -8.72245         4.74719
     2020.02737        -9.83398         4.83214
     2020.02886        -5.49218        16.64658
     2020.06875        -1.76079         5.26965
     2020.07118         3.83952         4.63335
     2020.07392        -0.00202         4.80580
     2020.07666        -5.79355         4.64099
     2020.07939        -8.93708         4.69197
     2020.08213        -0.21661         4.77012
     2020.08487         3.15386         4.68772
     2020.08761        -1.75767         4.55859
     2020.09034         1.63579         4.62740
     2020.09308        -2.88274         4.66053
     2020.09582        -4.37027         4.64864
     2020.09856        -2.33580         4.64354
     2020.10130       -13.15033         4.66903
     2020.10403        -3.02886         4.70046
     2020.10677        -8.10940         4.74804
     2020.10951        -6.30993         4.71915
     2020.11225        -1.00646         4.60531
     2020.11498        -1.35899         4.64779
     2020.11772        -0.52452         4.68602
     2020.12046        -2.72205         4.81005
     2020.12320        -5.42658         4.68687
     2020.12594        -5.14012         4.61551
     2020.12867        -3.69865         4.65374
     2020.13141        -6.81318         4.73869
     2020.13415        -6.34971         4.61891
     2020.13689        -3.45624         4.85593
     2020.13963        -1.57377         4.82449
     2020.14236        -2.31631         4.69027
     2020.14510         4.54116         4.85508
     2020.14772        -9.08243         4.84828
