# ================= DQRFIT RESULTS ================
# INPUT FILE: series/CHLW.rad
# OUTPUT: LDETRENDED
# FILTER FUNCTION: f(t)
# f(t)=+line(t)+annual(t)
# line(t)=+P 1+P 2*t
# annual(t)=+P 3*sin(2*pi*t+P 4)
# heav(t)=(t<0?0:1)
# TOTAL OBSERVATIONS MTOT= 1811
# INITIAL TIME INTERVAL= 2022.7488 - 2017.4757 =  5.2731
# TOTAL OBSERVATIONS AFTER PREFILTER M= 1781
# TIME-SPAN= 2022.7488 - 2017.4757 =  5.2731
# OBSERVATIONS: USED M=  1781 REJECTED MTOT-M=    30 %USED=   98.3435
# N=  4 PARAMETERS
# MAXSIG= 175.00000
# MAXRES=  41.65126
# SCALE FACTOR FOR LENGTHS: SCL=  10.00000
# SCALE FACTOR FOR SIGMAS: SCLSIG=   1.00000
# CHI^2=   4554.957 DOF=  1777 CHI^2/DOF=   2.56328
# RMS=     10.256 SDEV=     10.251 MEAN=   -0.39647
#  P #       PARAMETER +-    SIGMA %error PARAMETER NAME
# P 1 =     -3883.74799 +-  310.163   7.99 YZERO                              
# P 2 =         1.92047 +-    0.154   8.00 SLOPE                              
# P 3 =         6.47915 +-    0.335   5.17 ANNUAL AMPLITUDE                   
# P 4 =        -2.86434 +-    0.070   2.46 ANNUAL PHASE                       
#       T            LDETRENDED       SIG_OBS
     2017.47570        -2.00155         9.24913
     2017.47843         2.40219         9.17708
     2017.48117         2.79893         9.47968
     2017.48391        12.32867         9.39642
     2017.48665         7.91042         9.40763
     2017.48939        13.51616         9.11304
     2017.49212         5.21590         9.24433
     2017.49486         4.47564         9.39322
     2017.49760         8.70239         9.59335
     2017.50034        19.59813         9.33718
     2017.50308        14.20887         9.23472
     2017.50581         3.74261         9.16748
     2017.50855         3.67435         9.33879
     2017.51129         5.42910         9.28915
     2017.51403        17.17284         9.35319
     2017.51676        14.27558         9.36760
     2017.51950         4.62132         9.17548
     2017.52224        10.84606         9.19149
     2017.52498         3.51681         9.40923
     2017.52772         9.19555         9.55973
     2017.53045        16.10629         9.35159
     2017.53319        13.60703         9.17228
     2017.53593        11.70677         9.51970
     2017.53867        11.93352         9.32278
     2017.54141        14.24426         9.14026
     2017.54414        18.28100         9.27955
     2017.54688        14.00374         9.26514
     2017.54962         4.71248         9.24593
     2017.55236         9.64823         9.29396
     2017.55509         9.76897         9.28595
     2017.55783         6.18371         9.49248
     2017.56057        10.30645         9.23472
     2017.56331        13.94619         9.28275
     2017.56605         3.25594         9.43165
     2017.56878         2.54668         9.54852
     2017.57152        20.18042         9.10183
     2017.57426         6.09916         9.28915
     2017.57700        14.92190         9.24272
     2017.57974        12.56065         9.27474
     2017.58247        15.67539         9.24753
     2017.58521         6.22513         9.06981
     2017.58795         0.32987         9.35319
     2017.59069         7.66861         9.52611
     2017.59342        11.99936         9.20910
     2017.59616        12.80910         9.17548
     2017.59890        12.56684         9.43004
     2017.60164        11.53658         9.41243
     2017.60438         4.69933         9.16587
     2017.60711        12.98707         9.39322
     2017.60985         8.75281         9.60295
     2017.61259        25.55355         9.25713
     2017.61533        16.32529         9.26514
     2017.61807         4.76804         9.29876
     2017.62080        12.68778         9.15147
     2017.62354        18.01852         9.48608
     2017.62628        16.49126         9.42684
     2017.62902        14.75700         9.96639
     2017.63175         1.54775         9.24753
     2017.63449         7.88049         9.43645
     2017.63723        20.02823         9.06341
     2017.63997        27.24397         9.32117
     2017.64271        21.06071         9.52130
     2017.64544        15.79946         9.34999
     2017.64818         7.02020         9.36760
     2017.65092        13.63694         9.16427
     2017.65366        24.69468         9.15627
     2017.65639        20.79742         9.24913
     2017.65913        18.38717         9.49409
     2017.66187        19.28991         9.17388
     2017.66461        15.01465         9.61576
     2017.66735        20.52439         9.72143
     2017.67008        17.90213         9.21551
     2017.67282        15.03588         9.48448
     2017.67556        15.24262         9.20430
     2017.67830        11.67936         9.02338
     2017.68104        22.28310         9.12585
     2017.68377        26.85284         9.31477
     2017.68651        22.12859         9.78227
     2017.68925        19.38333         9.63818
     2017.69199        19.05407         9.32598
     2017.69472        24.42581         9.01378
     2017.69746        26.25955         9.34359
     2017.70020        21.21730         9.42364
     2017.70294        23.40004         9.92316
     2017.70568        18.80478         9.46046
     2017.70841        18.34452         9.05701
     2017.71115        20.93327         9.21230
     2017.71389        19.40101         9.21871
     2017.71663        18.31875         9.24272
     2017.71937        18.71049         9.18669
     2017.72213        10.79119         9.19309
     2017.72484        12.40298         9.05380
     2017.72758        13.37872         9.18028
     2017.73032        18.01346         9.07302
     2017.73305        14.33920         9.14026
     2017.73579        12.21294         9.12265
     2017.73853         8.50669         9.19149
     2017.74127         5.75043         9.44605
     2017.74401        12.13417         9.69742
     2017.74674        13.91791        10.19533
     2017.74948         7.91665        10.09927
     2017.75222        12.34540         9.57894
     2017.75496         8.05214         9.43485
     2017.75770         9.98488         9.74705
     2017.76043        10.38662         9.54212
     2017.76317        14.22036         9.62537
     2017.76591        21.52411        10.25938
     2017.76865         7.55485         9.52611
     2017.77138         5.78859         9.55172
     2017.77412        11.73433         9.97760
     2017.77686         8.01707         9.73584
     2017.77960         9.95582        10.10568
     2017.78234         8.34056         9.55172
     2017.78507         9.66730         9.27955
     2017.78781         5.52904         9.43004
     2017.79055        10.78078         9.66379
     2017.79329        12.28853        10.29940
     2017.79603         3.61127        10.58278
     2017.79876        19.05101        10.80693
     2017.80150         8.04275        12.11977
     2017.80424        15.45549        10.47551
     2017.80698        -1.53176        10.65163
     2017.80971         4.02598        10.03843
     2017.81245        -1.70428         9.71182
     2017.81519        -7.03954        10.74929
     2017.81793         1.43221        10.35864
     2017.82067         7.18095         9.84151
     2017.82340        13.90669         9.51170
     2017.82614         5.72043         9.62057
     2017.82888         2.98317        10.11208
     2017.83162        13.15792         9.56933
     2017.83436        10.64666         9.88313
     2017.83709         5.76040        10.59719
     2017.83983        13.96614        11.05348
     2017.84257         4.89188         9.97599
     2017.84531        -3.88337        10.51394
     2017.84807        -0.47668         9.91676
     2017.85078        14.16011         9.27314
     2017.85352         9.81085         9.49569
     2017.85626         0.30759         9.94397
     2017.85900         2.23934         9.90235
     2017.86173         9.95008         9.83991
     2017.86447        -0.81118        10.73808
     2017.86721        10.12256        10.84055
     2017.86995         5.58930        10.88538
     2017.87269         7.46605        10.80533
     2017.87542         1.69579        12.25105
     2017.87816         2.16253        12.09095
     2017.88094         8.13120        12.66091
     2017.88364         2.80601        11.07270
     2017.88637        -5.26224        11.99009
     2017.88911         9.86050        12.42556
     2017.89185        -3.54576        11.55621
     2017.89457         6.08802        12.03491
     2017.90280        -1.62379        12.08134
     2017.90554        18.08195        12.41115
     2017.90828         2.32469        11.79796
     2017.91102        -0.00457        11.92765
     2017.91373        -5.65878        11.95006
     2017.91649        -4.09108        11.96287
     2017.91923         5.01566        12.43837
     2017.92197         0.71140        11.95967
     2017.92470        -3.16985        11.58823
     2017.92744       -10.02911        12.04932
     2017.93018        -1.84137        11.08390
     2017.93292         3.94237        10.40187
     2017.93566         6.37011        10.23856
     2017.93839         2.24786        10.52995
     2017.94113        -1.46540        10.30581
     2017.94387        10.22534         9.95998
     2017.94661        10.53308        10.27859
     2017.94935         1.41382        10.43389
     2017.95208         9.37357        10.46271
     2017.95482        -5.65769        10.89338
     2017.95756        -9.03195        11.52259
     2017.96030        -5.54921        11.66348
     2017.96303       -11.92647        12.97632
     2017.96577        -3.68672        14.43005
     2017.96851        10.65402        16.04548
     2017.97125         9.96376        11.33847
     2017.97394         2.25958        12.67532
     2017.97646         7.25575        11.46655
     2017.97946       -11.30501        11.01026
     2017.98220         5.56373        10.55877
     2017.98494        -6.85353        10.91580
     2017.98767        -9.18579        11.31926
     2017.99041       -27.81905        14.30037
     2018.01232        -9.45011        10.88217
     2018.01505         4.11063         9.98560
     2018.01779        -3.39263        10.37465
     2018.02053        -4.12188        11.87321
     2018.02327       -10.66914        11.89883
     2018.02600        -0.80640        12.79060
     2018.02874        -4.56066        12.37273
     2018.03148       -16.02691        13.71759
     2018.03422       -26.60817        13.88410
     2018.03696        -0.98843        10.10728
     2018.03969        -5.35469        10.82134
     2018.04243       -18.68195        11.51458
     2018.04517       -15.76220        11.57702
     2018.04791       -20.72146        12.81942
     2018.05065       -11.59172        12.49441
     2018.05338       -13.59798        13.36857
     2018.05612       -15.89224        12.49601
     2018.05886       -13.96849        12.65931
     2018.06160       -14.44275        13.09639
     2018.06433       -14.76401        14.05701
     2018.06707        -9.44827        13.19566
     2018.06981       -17.82353        12.90107
     2018.07255       -14.14278        12.91068
     2018.07529       -38.88004        13.54628
     2018.07802       -25.06230        14.94398
     2018.08076       -12.36756        13.37337
     2018.08350        -8.55182        12.38074
     2018.08624       -23.42407        14.06982
     2018.08898       -26.07533        13.91932
     2018.09171       -12.80359        12.36633
     2018.09445       -14.66585        14.37081
     2018.09719        -1.96511        12.46879
     2018.09993       -20.95436        12.68813
     2018.10266       -33.49262        13.37177
     2018.10540       -10.23188        12.94109
     2018.10814       -14.06514        12.55685
     2018.11088        -2.39240        11.45534
     2018.11362       -11.40165        11.03908
     2018.11635       -10.18891        10.69485
     2018.11909       -14.52617        11.08070
     2018.12457        -6.23169        11.17676
     2018.12731       -23.54394        13.78163
     2018.13004        -8.36020        13.62793
     2018.13278        -3.47346        13.68717
     2018.13552       -12.62672        11.05989
     2018.13826        -6.00497        10.96063
     2018.14099       -11.93623        11.13514
     2018.14373       -18.85949        11.00705
     2018.14647        -4.30675        12.74577
     2018.14921       -41.83101        15.20655
     2018.15195        -0.84526        12.01250
     2018.15468       -10.04552        12.44798
     2018.15742       -12.91278        12.59847
     2018.16016        -9.97704        11.43293
     2018.16290        -4.93130        12.08455
     2018.16564       -20.90555        12.74257
     2018.16837       -25.91081        13.47584
     2018.17111        -3.45207        11.43133
     2018.17385       -11.76233        12.41115
     2018.17659        -4.20359        10.91580
     2018.17932       -12.52084        10.95262
     2018.18206       -10.57510        11.86841
     2018.18480       -13.71736        12.38394
     2018.18754        -4.71562        11.12873
     2018.19028        -6.20888        10.12649
     2018.19301       -10.47713        10.10568
     2018.19575         0.88861         9.77907
     2018.19849       -19.74965        11.90523
     2018.20123        -7.74491        12.46239
     2018.20397        -4.65317        10.66283
     2018.20670       -10.46842        10.74449
     2018.20944        -9.67868        10.61320
     2018.21218        -7.77994        11.28884
     2018.21492       -27.75320        10.88538
     2018.21765       -11.53846        10.55396
     2018.22041       -14.17975        12.59367
     2018.22313       -25.97497        15.97824
     2018.22587       -22.47623        14.11785
     2018.22861       -19.12949        12.07974
     2018.23134       -18.90975        13.92733
     2018.23408       -43.98400        16.00386
     2018.23682       -26.68426        12.15499
     2018.23956       -16.64052        12.58086
     2018.24230       -20.38178        16.14475
     2018.24503       -20.95703        11.87161
     2018.24777        -8.27429        11.06469
     2018.25051       -21.05055        12.52643
     2018.25325       -20.64181        12.77939
     2018.25598       -11.41807        12.24145
     2018.25872       -53.83932        17.29909
     2018.26146       -19.38358        14.19950
     2018.26420       -19.17784        13.28211
     2018.26694       -30.29610        13.61192
     2018.26967       -26.39236        13.34135
     2018.27241       -22.52661        13.71119
     2018.27515       -23.09187        13.82806
     2018.27789       -19.72413        15.39387
     2018.28062       -21.01139        13.56069
     2018.28336       -13.31065        10.33142
     2018.28610        -9.09090         9.92796
     2018.28884        -5.16016         9.83670
     2018.29158        -5.02542        10.37945
     2018.29431       -12.16368        12.06213
     2018.29705       -12.14194        10.94942
     2018.29979       -13.05919        10.85816
     2018.30253       -11.94345        12.68813
     2018.30527       -17.32271        10.49152
     2018.30800       -15.57997        10.03523
     2018.31074       -16.17123         9.79028
     2018.31348       -12.45148         9.95678
     2018.31622        -8.51874         9.58054
     2018.31895        -0.49300         9.33879
     2018.32169        -3.57926         9.01858
     2018.32443        -5.01452         9.08262
     2018.32717        -7.26177         8.91611
     2018.32991        -2.61603         9.38361
     2018.33264        -2.54829         8.94173
     2018.33538       -13.32755         9.68461
     2018.33812        -8.02480         9.36280
     2018.34086       -13.21506         9.09863
     2018.34360       -11.77432         9.18028
     2018.34633       -13.57158         9.11945
     2018.34907       -10.90884         8.94653
     2018.35181        -6.93209         9.35960
     2018.35455        -8.25335         9.06341
     2018.35728         1.75739         9.03619
     2018.36002        -4.43787         9.26514
     2018.36276        -6.89513         9.38041
     2018.36550        -6.53638         8.98336
     2018.36824        -4.05164         8.96735
     2018.37097        -2.10290         9.55813
     2018.37371        -2.92216         9.16267
     2018.37645        -3.02642         9.39482
     2018.37919        -3.67867         8.89530
     2018.38193        -1.42093         8.82005
     2018.38466        -0.36619         8.92252
     2018.38740        -3.17245         9.21871
     2018.39014         3.11929         9.42044
     2018.39288        -2.92296         9.18028
     2018.39561         0.16478         9.18349
     2018.39835        -0.73348         9.09383
     2018.40109        -1.44774         9.11144
     2018.40383        -7.53200         9.27154
     2018.40657        -0.89625         9.14186
     2018.40930         3.67249         9.58054
     2018.41204        -0.26877         8.95134
     2018.41478        -3.47803         9.04900
     2018.42299        -4.26480         9.22671
     2018.42573         3.13494         8.98496
     2018.42847        -2.53232         8.83126
     2018.43121        -1.57958         9.14026
     2018.43394        -4.24383         9.02979
     2018.43668        -0.39509         9.02819
     2018.43942         2.36265         9.15947
     2018.44216         3.27339         8.98176
     2018.44490        -2.02586         8.87129
     2018.44721       -14.33631        10.76370
     2018.45136         7.26373        19.34200
     2018.45311         0.09236         9.15147
     2018.45585         1.79610         9.04740
     2018.45859        -0.78215         9.03299
     2018.46132        -8.29441         9.16587
     2018.46406        -2.30567         9.05060
     2018.46680        -2.58093         9.18509
     2018.46954        12.09481         9.20430
     2018.47227         5.86356         9.25713
     2018.47503         4.41227         8.99617
     2018.47775         0.97104         9.08102
     2018.48049         7.06878         9.12905
     2018.48323        -4.37748         9.22351
     2018.48596         0.54627         9.00577
     2018.48870        -1.65499         9.08903
     2018.49144        -0.17425         8.90971
     2018.49418        -0.43651         9.26994
     2018.49692         5.39523         9.59495
     2018.49965        -1.77002         9.27474
     2018.50239        -7.56228         8.99296
     2018.50513        -8.58954         9.16267
     2018.50787         1.54420         9.06021
     2018.51060        -0.09806         9.46367
     2018.51334        -5.36831         9.30196
     2018.51608        -1.42457         9.21230
     2018.51882         2.22417         9.11464
     2018.52156         3.24791         9.00577
     2018.52429         2.90265         9.03299
     2018.52703        -4.92560         9.29236
     2018.52977         1.72014         9.29075
     2018.53251         1.41388         9.48448
     2018.53525         3.43862         9.09543
     2018.53798         3.10036         9.14666
     2018.54072        -1.20689         9.10504
     2018.54346         1.66485         9.29236
     2018.54620         2.39259         9.19950
     2018.54893         4.48633         9.30516
     2018.55167         2.96608         9.15307
     2018.55441         4.88282         9.18669
     2018.55715        -2.76144         9.31957
     2018.55989        -1.95170         9.52450
     2018.56262        -0.36896         9.24913
     2018.56536         3.05279         9.16427
     2018.56810         1.48053         8.89690
     2018.57084        -1.19073         8.98976
     2018.57357         1.99001         9.46367
     2018.57631        -1.67025         9.66860
     2018.57905         2.49250         9.54692
     2018.58179         1.37824         9.34679
     2018.58453        11.47498         9.19790
     2018.58726        12.27472         9.12905
     2018.59000        13.77346         9.02659
     2018.59274         2.02621         9.25073
     2018.59548         1.34495         9.42524
     2018.59822        -2.06831         9.40283
     2018.60095         0.11143         9.15147
     2018.60369        10.73517         8.92572
     2018.60643         8.84192         9.03619
     2018.60917         3.30766         9.24753
     2018.61190        -0.73160         9.23472
     2018.61464         5.79014         9.12425
     2018.61738        10.01188         9.06661
     2018.62012         9.76563         8.90171
     2018.62286         5.98437         9.43165
     2018.62559        -4.28489         9.48928
     2018.62833         6.38685         9.27955
     2018.63107         6.65059         9.17868
     2018.63381        -1.17366         9.45886
     2018.63655         5.04008         9.11304
     2018.63928         2.04182         9.58374
     2018.64202        -5.55744        10.01922
     2018.64476         9.01430         9.46367
     2018.64750         8.88105         9.10824
     2018.65023        16.19179         9.71022
     2018.65297         4.08153         9.20110
     2018.65571         3.55727         9.27474
     2018.65845         1.56502         9.34199
     2018.66119         5.55276         8.94013
     2018.66392         7.33150         9.11464
     2018.66666         5.98624         9.05060
     2018.66940         7.76198         9.44926
     2018.67214         3.53173         9.62697
     2018.67488         8.13447         9.11624
     2018.67761        10.18521         9.05380
     2018.68035         1.94495         9.20750
     2018.68309        -6.63631         9.81429
     2018.68583         3.65744         9.28915
     2018.68856         2.61918         9.12265
     2018.69130         6.66992         9.24433
     2018.69404         5.40466         9.37721
     2018.69678         1.11240         8.99777
     2018.69952         1.70415         9.18669
     2018.70225        11.30489         9.28595
     2018.70499        -1.81437         9.18989
     2018.70773         6.71637         9.17068
     2018.71047        -2.34889         9.08742
     2018.71321        -0.84714         9.10824
     2018.71594         2.06960         9.20110
     2018.71868        -8.63766         9.30997
     2018.72142        -3.33092         9.05701
     2018.72416         6.25982         9.24913
     2018.72689         3.08057         9.03939
     2018.72963         2.75431         9.05701
     2018.73237        -2.00595         9.14826
     2018.73511        -0.94421         9.26834
     2018.73785         2.90753         9.23792
     2018.74058        -0.56172         9.11784
     2018.74332        14.59502         9.24433
     2018.74606       -11.31724         8.97695
     2018.74880        -0.07450         9.50209
     2018.75154         2.32724         9.51650
     2018.75427        11.06699         9.02659
     2018.75701        14.74373         9.11945
     2018.75975        10.52447         9.10664
     2018.76249         6.01821         8.95934
     2018.76522        -0.66004         9.21070
     2018.76796         7.85370         9.03139
     2018.77070        10.49244         9.06981
     2018.77344         9.24718         9.39002
     2018.77618        12.71792         9.12745
     2018.77891        12.81367         9.08582
     2018.78165         1.79041         9.28915
     2018.78439         5.22115         9.04260
     2018.78713        11.92689         8.87449
     2018.78987         2.11263         9.15307
     2018.79260         7.70138         9.17868
     2018.79534        15.77512         9.10183
     2018.79808         8.07586         9.00897
     2018.80082        12.44260         9.12425
     2018.80355        10.51134         8.95614
     2018.80629         9.22809         9.44285
     2018.80903         8.94383         9.16427
     2018.81177         7.53257         9.50849
     2018.81451         0.26531         9.37401
     2018.81724         9.64705         9.27154
     2018.81998        -1.38420         9.32598
     2018.82272        12.60254         9.27795
     2018.82546         6.49028         9.11144
     2018.82820        12.59502         8.98976
     2018.83093         6.99876         9.08422
     2018.83367        -0.19949         8.98496
     2018.83641         2.72425         9.38842
     2018.83915        15.95499         9.05220
     2018.84188         8.48473         9.32117
     2018.84462        19.92647         9.18669
     2018.84736        12.18722         9.02659
     2018.85010         3.93896         9.03139
     2018.85284         9.91570         9.20270
     2018.85557         4.87244         9.14506
     2018.85831        10.99918         8.99296
     2018.86105        11.81793         8.97695
     2018.86379         6.34767         9.09223
     2018.86653        11.51541         9.19629
     2018.86926        -9.18085         9.30677
     2018.87200         8.26490         9.26034
     2018.87474        10.17664         9.14986
     2018.87748        12.73238         9.08903
     2018.88021        17.46612         9.40603
     2018.88295         8.68786         9.27955
     2018.88569        17.44261         9.16427
     2018.88843        16.31835         9.38201
     2018.89117         5.70009         9.18989
     2018.89390         6.12383         9.18349
     2018.89664        -3.25643         9.65259
     2018.89938         8.11932         9.17388
     2018.90212        -7.13394         9.31797
     2018.90485         6.71080         9.24112
     2018.90759         8.10554         9.27154
     2018.91033         8.60328         9.22031
     2018.91307        10.10503         9.21711
     2018.91581        15.58577         9.19950
     2018.91854        23.52451         9.15627
     2018.92128        15.07425         9.09383
     2018.92402        10.83899         9.01858
     2018.92676         6.51274         9.19469
     2018.92950        11.51848         9.30837
     2018.93223        11.87222         9.33879
     2018.93497        11.84396         9.53091
     2018.93771         9.13770         9.11144
     2018.94045         4.62545         9.22191
     2018.94318         5.28619         8.97535
     2018.94592        13.08893         9.19790
     2018.94866         2.71467         9.20110
     2018.95140        13.87741         9.79668
     2018.95414        18.53216         9.10183
     2018.95687         9.26590         8.95294
     2018.95961        10.35764         9.03779
     2018.96235         5.37038         9.11464
     2018.96509         8.15012         9.31957
     2018.96783        10.03987         9.75185
     2018.97056        12.83261         9.16908
     2018.97330        -2.85765         9.34519
     2018.97604        -0.14391         9.16748
     2018.97878         7.51584         9.08582
     2018.98151         2.33958         8.99937
     2018.98425         6.62932         9.24913
     2018.98699        -3.09594         9.22031
     2018.98973         7.38780         9.53251
     2018.99247        -5.07145         9.60936
     2018.99520        10.76829         9.20590
     2018.99794         1.21803         9.13866
     2019.00068        -5.72423         9.24753
     2019.00338         3.32658         9.43485
     2019.00655        -7.77551        10.84215
     2019.00889         0.28200         9.32278
     2019.01163         7.37074         9.20270
     2019.01437         8.48748         9.12105
     2019.01711        11.03422         9.27474
     2019.01984         6.82897         9.13065
     2019.02258        -3.26229         9.20270
     2019.02532         0.55745         9.18028
     2019.02806         1.56319         9.28115
     2019.03080        -1.17907         9.31637
     2019.03353         1.02268         8.92572
     2019.03627         1.56142         9.14826
     2019.03901         5.88516         9.12905
     2019.04175         3.44590         9.09703
     2019.04449         2.00364         8.84247
     2019.04722        -4.00861         8.98336
     2019.04996        -5.61487         9.36760
     2019.05270        -3.98913         9.47167
     2019.05544         0.70061         9.18669
     2019.05817        -2.66365         9.47007
     2019.06091        -1.87690         9.14986
     2019.06365        -0.79716         9.26354
     2019.06639         6.22158         9.38522
     2019.06913         5.14332         9.31957
     2019.07186        -2.21094         9.24272
     2019.07460         4.47481         8.97535
     2019.07734         5.92955         9.03779
     2019.08008         6.81629         9.09223
     2019.08282         7.77103         9.56613
     2019.08555         3.95078         9.04099
     2019.08829         1.19652         9.13385
     2019.09103        11.46326         8.99777
     2019.09377         6.38600         9.12425
     2019.09650         8.81774         9.11464
     2019.09924         6.50249         9.06341
     2019.10198         3.71323         9.07141
     2019.10472         5.13397         9.12105
     2019.10746         2.64271         9.19309
     2019.11019        -1.30455         9.24272
     2019.11293        10.39120         9.16427
     2019.11567         8.39294         9.35640
     2019.11841        22.46568         9.00257
     2019.12115        19.98442         9.26514
     2019.12388        15.84516         9.01058
     2019.12662        11.47591         9.34999
     2019.12936         5.35965         8.96895
     2019.13210         1.74639         9.07782
     2019.13483         5.85113         9.08262
     2019.14031         8.45362         9.18829
     2019.14305        19.28636         9.16587
     2019.14579         0.31710         8.90811
     2019.14852         9.36584         9.03779
     2019.15126        17.69658         8.98976
     2019.15400         5.82933         9.05380
     2019.15674         2.83907         9.26674
     2019.15948         2.96181         9.16748
     2019.16221         2.17155         9.31637
     2019.16495         3.35429         9.22511
     2019.16769         2.51004         8.94333
     2019.17043         1.90078         9.04099
     2019.17316        -1.42948         9.11945
     2019.17590        -0.20574         9.09543
     2019.17864        -6.24800         8.98176
     2019.18138         9.82175         9.06341
     2019.18412         4.15149         8.88089
     2019.18685         4.19723         8.93533
     2019.18959        -0.73303         9.13706
     2019.19507         4.60146         8.99777
     2019.19780        -2.01780         9.06821
     2019.20054         4.18794         9.25393
     2019.20328        -2.93032         9.16107
     2019.20602        -0.39257         9.51810
     2019.20876        -6.27983         9.11144
     2019.21149        -2.57909         9.04099
     2019.21423         1.37565         8.93052
     2019.21697        -0.61861         9.11784
     2019.21971         4.81014         9.45726
     2019.22245        -2.52012         9.04740
     2019.22518         1.11562         9.11784
     2019.22792        -0.59364         9.09383
     2019.23066        -1.40190         8.93052
     2019.23340        -7.48615         8.97855
     2019.23613        -1.36641         8.98336
     2019.23887        -4.21267         8.97855
     2019.24161        -4.62193         9.40763
     2019.24435        -8.73619         9.43165
     2019.24709         7.26656         9.21711
     2019.24982         7.37230         9.02338
     2019.25256       -10.42196         9.44285
     2019.25530         1.29678         9.04099
     2019.25804        -5.29048         9.30036
     2019.26078         4.94827         9.17388
     2019.26351         0.16701         9.24272
     2019.26625        -2.03525         9.13065
     2019.26899        -7.36951         9.31637
     2019.27173        -1.95877         9.55332
     2019.27446        -5.62802         9.01858
     2019.27720        -0.88228         9.14506
     2019.27994        -1.83654         9.06341
     2019.28268         6.86620         9.35480
     2019.28542         7.51094         9.12265
     2019.28815         4.46369         8.94653
     2019.29089        -4.29157         8.99296
     2019.29363         0.29417         9.28115
     2019.29637        -0.81609         9.28595
     2019.29911        -3.53734         9.17708
     2019.30184       -10.43060         9.09063
     2019.30458       -12.96686         9.10664
     2019.30732        -2.83212         9.21551
     2019.31006        -2.62038         9.36120
     2019.31279        -5.83763         9.38682
     2019.31553         8.29511         9.28595
     2019.31827        -7.71415         9.21871
     2019.32101        -5.89041         9.16748
     2019.32375       -13.09067         9.11624
     2019.32648         0.15608         9.19469
     2019.32922        -4.69218         9.05701
     2019.33196        -5.77744         9.36440
     2019.33470        -2.18670         9.31637
     2019.33744        -7.44496         9.22031
     2019.34017        -0.11421         9.04260
     2019.34291        -5.36147         9.18829
     2019.34565       -13.79273         9.35960
     2019.34839        -9.71799         9.36120
     2019.35112        -8.81325         9.01858
     2019.35386         0.31250         9.04900
     2019.35660         3.94024         9.27154
     2019.35934         3.06598         9.44926
     2019.36208        -1.94028         9.22191
     2019.36481         0.20246         9.18829
     2019.36755         4.32221         9.02018
     2019.37029         9.89895         9.14506
     2019.37303         4.40469         9.12585
     2019.37577         4.46543         9.55332
     2019.37850        -5.65883         9.31157
     2019.38124         2.49992         9.06341
     2019.38398         4.87866         9.00417
     2019.38672         1.94540         9.34679
     2019.38945       -12.54486         9.29876
     2019.39219        -0.77911         9.21391
     2019.39493        -4.63937         8.89850
     2019.39767         5.80937         9.06981
     2019.40041        -4.60689         9.10664
     2019.40314         2.65185         9.17868
     2019.40588         3.07360         9.14186
     2019.40862         1.36634         9.06661
     2019.41136        -4.13592         9.17708
     2019.41410         1.96882         9.14986
     2019.41683        -5.87644         9.49889
     2019.41957         5.13331         9.63658
     2019.42231        -9.45695         9.29716
     2019.42505         2.45579         9.15467
     2019.42778        -4.03247         9.55973
     2019.43052        -4.75373         9.87993
     2019.43326        -5.82298         9.15947
     2019.43586        -6.47497        14.24273
     2019.43876        -5.52755        15.18894
     2019.44147       -11.10376         9.34199
     2019.44421         3.64398         9.16908
     2019.44695        -5.04027         9.54852
     2019.44969        -1.37553         9.82710
     2019.45243         1.96721         9.14826
     2019.45516       -10.99705         9.24272
     2019.45790        -2.60731         9.38682
     2019.46064        -5.99956         9.25713
     2019.46338        -2.17282        10.49473
     2019.46611         1.61492         9.81269
     2019.46885         1.73666         9.46046
     2019.47159         3.73240         9.27955
     2019.47433         3.60915         9.87513
     2019.47707         9.15089         9.30677
     2019.47980        -0.19237         9.40603
     2019.48254        -7.17063         9.44766
     2019.48528         1.17911         9.36440
     2019.48802        -7.86014         9.32278
     2019.49076         1.41460         9.10984
     2019.49349        -0.22966         9.10183
     2019.49623       -10.39192         9.11624
     2019.49897       -16.78817         9.49569
     2019.50171         2.76357         9.06821
     2019.50444        -0.38369         9.57734
     2019.50718        -1.81195         9.11624
     2019.50992        -4.21621         9.15307
     2019.51266       -10.30446         9.06341
     2019.51540        -8.12172         9.22831
     2019.51813        -3.36698         9.32438
     2019.52087        -3.16124         9.27955
     2019.52361        -7.55350         9.32598
     2019.52635        -5.49175         9.17868
     2019.52908       -11.97701         9.57254
     2019.53182       -12.87227         9.48448
     2019.53456         2.86147         9.23472
     2019.53730        -2.98779         9.34519
     2019.54004        -6.20404         9.37241
     2019.54277         7.23670         9.49729
     2019.54551       -13.59256         9.73904
     2019.54825        -7.72282         9.44445
     2019.55099        -1.77108         9.29716
     2019.55373         3.11267         9.34999
     2019.55646         1.31841         9.82069
     2019.55920       -12.96785         9.91195
     2019.56194        -3.61311         9.28755
     2019.56468        -9.29337         9.40763
     2019.56741         0.91738         9.27474
     2019.57015        -3.75588         9.32598
     2019.57289        -4.68114         9.44285
     2019.57563        -4.08240         9.45406
     2019.57837        -8.03266         9.40603
     2019.58110        -5.23291         9.09383
     2019.58384         3.38383         9.93757
     2019.58658        -1.38043         9.42204
     2019.58932         0.05631         9.22191
     2019.59206         3.96605         9.22992
     2019.59479        -5.38520         9.01858
     2019.59753         1.36254         9.54692
     2019.60027         0.92528         9.58534
     2019.60301         1.41302         9.34679
     2019.60574        -6.14123         9.79828
     2019.60848         1.41051         9.43805
     2019.61122         1.26325         9.02178
     2019.61396        -3.77701         9.55973
     2019.61670         4.20873         9.43485
     2019.61943        -2.81552         9.15627
     2019.62217         0.83822         9.34999
     2019.62491         1.71396         8.93853
     2019.62765         6.07070         9.16427
     2019.63039        -1.19956         9.32758
     2019.63312         1.95319         9.40923
     2019.63586         2.23993         9.42364
     2019.63860        10.35367         9.12585
     2019.64134        -9.02259         9.56453
     2019.64407         1.29215         9.75825
     2019.64681        -9.91510         9.26354
     2019.64955        -1.69736         9.28915
     2019.65229         3.68438         9.12105
     2019.65503        -2.91988         9.47487
     2019.65777       -11.13915         9.33879
     2019.66050        -5.98839         9.32758
     2019.66324        -3.35265         9.47487
     2019.66598        -4.08091         9.26514
     2019.66872         4.33383         9.28435
     2019.67145        -7.81543         9.37881
     2019.67419         0.43532        39.26036
     2019.67695        -1.47998         9.60776
     2019.67967        -2.76320         9.62857
     2019.68240        -9.94546         9.34359
     2019.68514       -10.67272         9.46206
     2019.68788         1.31603         9.44605
     2019.69062        -4.39323         9.33078
     2019.69336         0.49151         9.11304
     2019.69609         2.78025         9.37241
     2019.69883       -16.28701         9.69742
     2019.70157        -5.20926         9.30837
     2019.70431        -8.76852         9.32758
     2019.70705        -3.38978         9.39162
     2019.70978        -3.23204         9.30837
     2019.71252        -9.77629         9.18669
     2019.71526        -6.52355         8.85848
     2019.71800         4.10819         9.47327
     2019.72073        -0.04507         9.62537
     2019.72347        -6.78533         9.14506
     2019.72621         4.20442         9.39162
     2019.72895         0.19316         9.38201
     2019.73169        -1.35310         9.25873
     2019.73442        -0.43336         9.38682
     2019.73716         6.67238         9.52771
     2019.73990         1.81013         9.55653
     2019.74264         9.85287         9.68941
     2019.74538         0.51961         9.19469
     2019.74811         6.80135         9.14346
     2019.75085         2.28009         9.54532
     2019.75359        -0.46216         9.54532
     2019.75633         6.81658         9.27314
     2019.75906        -6.81368         9.21871
     2019.76180         0.64006         9.13866
     2019.76454        -0.88820         9.33718
     2019.76728         3.29755         9.38361
     2019.77002         0.39329         9.47167
     2019.77275         5.31303         9.41724
     2019.77549         2.59077        12.13578
     2019.77823        -1.11349         9.12265
     2019.78097         2.63726         9.30997
     2019.78371        -2.79900         9.49088
     2019.78644        -4.48326         9.43004
     2019.78918         4.74248         9.49889
     2019.79192         1.65022         9.43645
     2019.79466         7.27797         9.78867
     2019.79739         5.28271         9.16267
     2019.80013        10.79945         9.32438
     2019.80287        -8.17981         9.40283
     2019.80561       -10.97607         9.53731
     2019.80835         1.27068         9.18189
     2019.81108         0.46742         9.42684
     2019.81382        -6.11784         9.54051
     2019.81656         4.23190         9.34039
     2019.81930        -0.07235         9.11464
     2019.82203        -0.74861         9.35159
     2019.82477        -0.87287         9.34359
     2019.82751        -1.12513         9.37241
     2019.83025         5.93861         9.66860
     2019.83299         1.70336         9.37401
     2019.83572         5.43010         9.22671
     2019.83846         7.79384         9.11464
     2019.84120         2.20758         9.33558
     2019.84394         5.90732         9.59335
     2019.84668        -5.70293         9.30036
     2019.84941         5.32681         9.04740
     2019.85215         5.87655         9.18028
     2019.85489        -4.76771         9.35480
     2019.85763        -7.88197         9.30356
     2019.86036        -1.18322         9.38361
     2019.86310        -5.51348         9.13385
     2019.86584         2.38526         9.43325
     2019.86858         5.73700         9.05380
     2019.87132         4.58274         9.53571
     2019.87405        -0.03851         9.31477
     2019.87679         0.46923         9.36120
     2019.87953        -2.05003         9.26994
     2019.88227         9.89671         9.14186
     2019.88501        11.88645         9.16748
     2019.88774         6.99420         9.39962
     2019.89048        11.37394         9.31637
     2019.89322        10.45568         9.62377
     2019.89596         1.46442         9.51650
     2019.89869         8.36916         9.09543
     2019.90143         2.08691         9.15307
     2019.90417         2.39065         9.73744
     2019.90691         4.80539         9.32598
     2019.90965         1.73013         9.13225
     2019.91238         5.56787         9.06981
     2019.91512        10.27562         9.20590
     2019.91786        19.31136         9.67020
     2019.92060         0.53310         9.15147
     2019.92334         6.11484         9.16427
     2019.92607         6.64559         9.22992
     2019.92881        11.59833         9.34519
     2019.93155         6.87507         9.26034
     2019.93429         2.85581         9.16908
     2019.93702         4.78255         9.18028
     2019.93976         4.97630         9.08582
     2019.94250         1.43904         9.48928
     2019.94524        -8.75222         9.34199
     2019.94798        -0.46848         9.08903
     2019.95071        -3.79474         9.52450
     2019.95345         8.22801         9.09703
     2019.95619         9.88175         9.23952
     2019.95893         5.51349         9.15947
     2019.96167         2.58223         9.21711
     2019.96440         3.93797         9.24112
     2019.96714        -0.93328         9.23632
     2019.96988         3.64446         9.16587
     2019.97262         9.71020         9.41563
     2019.97535         4.87294         9.18189
     2019.97809        -2.69232         9.20590
     2019.98083        -1.15257         9.20430
     2019.98357         0.76317         9.02659
     2019.98631         9.01991         9.11945
     2019.98904        -2.00135         9.19629
     2019.99178        -2.28561         9.00577
     2019.99452        -7.08286         9.30677
     2019.99726         0.10888         9.25393
     2020.00000        17.83662         9.06181
     2020.00273         4.10636         9.02338
     2020.00547        -2.39290         9.44926
     2020.00821        -1.85815         9.48448
     2020.01095        -3.60141         9.47007
     2020.01368        -2.53567        19.56614
     2020.01642        -0.46393         9.20750
     2020.01916         3.69881         9.44926
     2020.02190        -3.61844         9.45406
     2020.02464         1.78230         9.28275
     2020.02737        23.53104         9.03779
     2020.03225        32.36168        12.56485
     2020.03535        26.58971        10.66604
     2020.04340         3.19226        11.34327
     2020.04654         2.50424         9.07141
     2020.04928         0.14698         8.73680
     2020.05201        -4.50028         8.68397
     2020.05475         0.35746         9.05220
     2020.05749        -0.79780         8.92092
     2020.06023        -3.11205         8.95454
     2020.06297        -4.93131         9.07141
     2020.06570         2.08243         9.05380
     2020.06844         3.43717         9.37881
     2020.07118         7.35691         8.87929
     2020.07392         0.35266         8.96254
     2020.07666        -5.41860         9.22671
     2020.07939        -1.29486         9.02338
     2020.08213        -1.26912         9.17708
     2020.08487         4.65362         9.06981
     2020.08761        -0.26363         9.08742
     2020.09034        -3.24389         9.08903
     2020.09308         6.24785         8.95454
     2020.09856         2.38933         8.99937
     2020.10130        -4.18592         8.99617
     2020.10403        -0.58118         9.10504
     2020.10677        -6.60844         9.04740
     2020.10951       -11.70570         8.97855
     2020.11225         3.50304         9.23792
     2020.11498        -1.60921         8.95774
     2020.11772        -2.91047         9.22992
     2020.12046         5.72327         9.34039
     2020.12320        -5.99199         8.90811
     2020.12594        -3.44225         9.09703
     2020.12867        -5.22650         9.06021
     2020.13141        -5.16376         9.12105
     2020.13415        -1.08902         9.15627
     2020.13689        -1.64028         9.27154
     2020.13963        -9.56253         9.33558
     2020.14236        -8.68379         9.23152
     2020.14510        -3.16605         9.23472
     2020.14784        -2.73231         9.07462
     2020.15058        -3.36457         8.96254
     2020.15331        -6.87782         9.11464
     2020.15605       -10.15508         9.18189
     2020.15879        -4.66334         9.19629
     2020.16153        -4.84360         9.06661
     2020.16427         1.42114         9.19149
     2020.16700        -2.34511         9.06341
     2020.16974        -1.35837         9.38682
     2020.17248        -8.74263         9.67020
     2020.17522        -5.58589         9.18669
     2020.17796        -4.95315         8.84247
     2020.18069        -5.28740         9.11624
     2020.18343        -2.46866         8.85848
     2020.18617       -10.34592         9.19149
     2020.18891        -5.67018         9.36440
     2020.19164        -9.73944         9.09863
     2020.19438        -4.76569         9.25553
     2020.19712        -4.07595         9.16587
     2020.19986       -14.09221         9.47327
     2020.20807        -7.92298         9.40123
     2020.21902        -8.52602         9.49889
     2020.22179       -11.77833         9.30837
     2020.22450         4.91847         9.19790
     2020.22724        -1.34879         9.13225
     2020.22997        -6.37505         9.09223
     2020.23271        -3.91231         9.32278
     2020.23545        -8.68656         9.19469
     2020.23819        -7.04982         9.24272
     2020.24093        -4.20808         9.17868
     2020.24366        -3.65134         9.30196
     2020.24640       -13.04159         9.45246
     2020.24914       -17.07085         9.14826
     2020.25189       -12.41714         9.09703
     2020.25462        -1.53937         9.32758
     2020.25735        -0.88163         9.38842
     2020.26009         0.48412         9.20910
     2020.29842         0.43150         9.17228
     2020.32306       -12.25582         8.95774
     2020.43531        -9.85439         9.60776
     2020.44626       -10.94343         9.29236
     2020.45448       -14.55220         9.14186
     2020.45722       -14.74446         9.29075
     2020.45995       -10.82171         9.03139
     2020.47912        -5.61452         9.27635
     2020.48186       -14.01778         9.06021
     2020.48459        -9.86504         9.47968
     2020.48733       -19.69729         9.62537
     2020.49007        -3.30755         9.59495
     2020.49281        -7.32981         9.45086
     2020.49555        -9.07907         9.39642
     2020.49828        -9.09833         8.90171
     2020.50102        -1.98958         8.94333
     2020.50376       -17.82984         9.14346
     2020.50650       -12.90810         9.23472
     2020.50924       -14.21936         9.03939
     2020.51197       -10.10462         8.98016
     2020.51471       -15.93187         8.94493
     2020.51745        -8.92313         9.01858
     2020.52019        -7.59539         9.55492
     2020.52292        -1.83965         9.30036
     2020.52566        -8.39291         9.25233
     2020.52840         0.69684         9.34839
     2020.53114       -12.85842         9.44445
     2020.53388       -11.88968         9.67660
     2020.53661        -2.27594         9.55332
     2020.53935       -14.71720         9.70382
     2020.54209        -6.31845         9.39482
     2020.54483       -11.99571         9.25713
     2020.54757        -6.66597         9.43325
     2020.55030        -9.56223         9.52771
     2020.55304        -8.95548         9.81269
     2020.55578       -11.21374         9.75825
     2020.55852        -9.00100         9.59015
     2020.56125        -3.44626         9.40123
     2020.56399        -7.22652         9.40923
     2020.56673        -2.23577         9.21070
     2020.56947        -1.02103         9.33078
     2020.57221        -1.57329        10.10248
     2020.57494        -3.23955         9.98240
     2020.57768        -3.60581         9.43805
     2020.58042        -5.86406         9.20270
     2020.58316        -1.90532         9.39802
     2020.58590        -5.42358         9.60295
     2020.58863        -5.95284         9.65739
     2020.59137        -4.64110         9.53251
     2020.59411         0.03365         9.57093
     2020.59685        -4.96061         9.51010
     2020.59958        -1.04287         9.45086
     2020.60232        -0.90313         9.19469
     2020.60506         2.09461         9.51170
     2020.60780       -10.71964        10.07846
     2020.61054        -6.07690         9.79348
     2020.61327        -2.39616         9.18989
     2020.61601        -2.55842         9.30196
     2020.61875        -1.56668         9.38041
     2020.62149        -8.82093         9.87513
     2020.62423        -6.41419         9.42524
     2020.62696        -1.50345         9.65579
     2020.62970         0.20029         9.57254
     2020.63244        -0.16897         9.68301
     2020.63518        -1.75222         9.75025
     2020.63791        -7.30048         9.85752
     2020.64065        -3.39874         9.74224
     2020.64339        -4.63500         9.38361
     2020.64613        -3.21326         9.63978
     2020.64887        -1.38051         9.28115
     2020.65160        -7.25777         9.38361
     2020.65434        -6.52603         9.31477
     2020.65708        -4.89729         9.43485
     2020.65982       -11.50754         9.50529
     2020.66256         4.84020         9.37561
     2020.66529         8.41394         9.41083
     2020.66803         0.95868         9.23472
     2020.67077         1.35842         9.48608
     2020.67351        -4.67883         9.51650
     2020.67624         6.75291         9.24112
     2020.67898        -0.15235         9.62857
     2020.68172        -5.26561         9.46527
     2020.68446        -3.60887         9.62377
     2020.68720        -9.42812         9.36280
     2020.68993        -8.10638        13.57830
     2020.69267         5.11536         9.63978
     2020.69541        -4.74790         9.85592
     2020.69815         1.47084         9.41884
     2020.70089         0.49359         9.16587
     2020.70362        -9.83767         9.38361
     2020.70636        -7.43093        10.11048
     2020.70910        -9.06319        10.04324
     2020.71184         0.63555         9.62377
     2020.71457        -1.98670         9.52450
     2020.71731        -3.72996         9.42044
     2020.72008        -7.13328         9.62217
     2020.72279        -6.65148         9.34359
     2020.72553         0.60026         9.79988
     2020.72826        -6.74899         9.69421
     2020.73100        -9.14825         9.50049
     2020.73374         5.66749         9.16267
     2020.73648        10.19223         9.17868
     2020.73921        -8.47403         9.67180
     2020.74195        -4.89428         9.39962
     2020.74469        -3.69654         9.42204
     2020.74743        -4.97880         9.22031
     2020.75017        -0.86506         9.22831
     2020.75290        -7.03332         9.44285
     2020.75564        -7.21957         9.36440
     2020.75838        -5.81283         9.43485
     2020.76112         4.23591         9.34519
     2020.76386        -4.29535         9.21711
     2020.76659         1.09140         9.26514
     2020.76933         1.90214         9.60295
     2020.77207         8.17988         9.32438
     2020.77755        25.83535        23.07559
     2020.78027         6.76113        13.86008
     2020.78575        15.88460        22.41917
     2020.78850         9.60933        11.32086
     2020.79124        -3.46794        12.03491
     2020.79669         2.54960        12.67693
     2020.79943        -1.29767        16.01186
     2020.80218         6.33305        12.45278
     2020.80763         0.68859        12.35512
     2020.81038         3.61331        13.09159
     2020.81477        -1.19512        35.63564
     2020.81862       -16.88452        16.45214
     2020.82136        -2.49577        13.51907
     2020.82409         2.13898        12.10056
     2020.82957        -3.65855        12.89947
     2020.83231        34.12220       869.67385
     2020.83502        -7.50102        13.83607
     2020.84051         6.50445        12.70414
     2020.84470        36.11040      1062.37120
     2020.84873        -3.98134        10.66123
     2020.85145         6.36744        11.30645
     2020.85692         9.73492        12.68973
     2020.85969         1.66462        11.39610
     2020.86241         7.96639        11.84919
     2020.86512         8.76017        13.61993
     2020.86790        16.31684        11.72592
     2020.87063        13.47259        12.58567
     2020.87337         0.05334        16.16716
     2020.87611        -2.89892         9.72944
     2020.87885         3.90182         9.59495
     2020.88158        -0.66344         9.60936
     2020.88432        14.19730         9.33879
     2020.88706        -4.82195         9.73584
     2020.88980        -3.36921         9.42844
     2020.89253         0.87653         9.48288
     2020.89527        -2.25273         9.67980
     2020.89801         9.10201         9.58374
     2020.90075         0.74676         9.41884
     2020.90349         0.50650         9.26194
     2020.90622         8.90124         9.40123
     2020.90896        -3.84202         9.66219
     2020.91170        -8.25628         9.95838
     2020.91444        -3.01653         9.72623
     2020.91718         3.47721         9.18189
     2020.91991        -5.58305         9.57574
     2020.92265        -3.49531         9.51010
     2020.92539        -8.93157         9.61256
     2020.92813        -6.87582         9.34839
     2020.93086        -0.35108         9.29075
     2020.93360        -8.46534         9.77266
     2020.93634        -9.09060         9.32918
     2020.93908        -6.16986         9.36120
     2020.94182        -9.38611         9.40923
     2020.94455        -7.11137         9.11945
     2020.94729        -9.05063         9.15787
     2020.95003       -15.43489         9.37241
     2020.95277       -19.29915         9.09703
     2020.95551       -13.20640         9.79828
     2020.95824        -1.30366        10.20654
     2020.96098        -9.41992        10.51554
     2020.96372       -10.98618         9.28275
     2020.96646        -8.42944         9.47487
     2020.96919        -4.07069         9.33078
     2020.97193         9.56405         9.39642
     2020.98015        14.32128        10.11208
     2020.98288        -8.24298         9.83670
     2020.98562        -5.32124         8.84407
     2020.98836        -4.94650         9.26354
     2020.99110        -5.95876         9.12585
     2020.99384       -10.49901         9.17548
     2020.99657        -7.88127         9.10664
     2020.99931        -9.55853         9.07462
     2021.00205        -8.45879         9.06661
     2021.00479         1.28395         9.92156
     2021.00752        -9.68730         9.23152
     2021.01026        -2.78856         9.16587
     2021.01300       -10.28482         9.33558
     2021.01574       -10.45008         9.42524
     2021.01848        -8.59534         9.34839
     2021.02121       -13.96859         9.20110
     2021.02395       -12.92985         9.40763
     2021.02669       -11.41711         9.37401
     2021.02943       -12.86737         9.41724
     2021.03216       -15.59363         9.27795
     2021.03490       -13.91088         9.46687
     2021.03764        -0.76014         9.22992
     2021.04038       -10.49840         9.28115
     2021.04312       -15.81966         9.19469
     2021.04585       -10.10992         9.22351
     2021.04859       -12.46717         9.18189
     2021.05133       -19.76643         9.63337
     2021.05365         2.50011        11.90843
     2021.05681        -5.60095         9.56773
     2021.05954       -18.30021         9.32758
     2021.06228       -13.02346         9.04260
     2021.06502        -9.70972         9.23632
     2021.06776        -2.84798         9.58855
     2021.07049       -12.62924         9.46847
     2021.07323       -12.66550         9.30837
     2021.07597       -16.10175         9.26994
     2021.07871        -3.25801         9.34039
     2021.08145        -9.56227         9.22511
     2021.08418       -23.85853         9.04900
     2021.08692       -20.16178         9.06021
     2021.08966       -20.94204         9.34519
     2021.09240       -16.94330         9.23632
     2021.09514        -6.75156         9.43485
     2021.09787       -19.10382         9.92796
     2021.10061       -14.05707         9.52130
     2021.10253         9.38025        18.40540
     2021.10609       -15.23959         9.76786
     2021.10882       -11.33785         9.49248
     2021.11156        -6.74511         9.22511
     2021.11431       -17.61737         9.74385
     2021.11704       -20.11162        10.37945
     2021.11978        -8.28388         9.37561
     2021.12251        -9.45314         9.18028
     2021.12525         5.82660         9.12425
     2021.12800       -12.55768         9.27474
     2021.13075       -10.35695         9.14986
     2021.13347       -15.44017         9.63818
     2021.13620       -12.54043         9.65739
     2021.13894       -17.28269         9.05380
     2021.14168       -16.68094         9.40923
     2021.14442       -15.79720        10.04804
     2021.14715        -7.30746         9.52290
     2021.14989       -16.63872         9.37081
     2021.15263         9.54002        10.48832
     2021.15537       -13.64423         9.48128
     2021.15811       -11.19849         9.63658
     2021.16084       -16.91175         9.67660
     2021.16359       -19.89003         9.51970
     2021.16632       -11.07027         9.63337
     2021.16906        -7.42952         9.26834
     2021.17180       -16.88778         9.52450
     2021.17453       -15.51504         9.89754
     2021.17727       -13.53530         9.96959
     2021.18001       -10.52056         9.46046
     2021.18275       -28.99681        10.08807
     2021.18548       -16.18307         9.20910
     2021.18816       -16.05821         9.82710
     2021.19050         1.14630        11.38970
     2021.19370        -7.47884         9.67820
     2021.19644       -18.24710         9.26194
     2021.19917       -20.07036         9.30997
     2021.20191       -21.88962         9.14346
     2021.20465       -10.22188         9.27635
     2021.20739        -9.60713         9.41083
     2021.21013       -11.23139         9.87193
     2021.21286       -21.58865         9.49088
     2021.21560       -18.73191         9.17868
     2021.21834       -16.59717         9.47327
     2021.22108       -12.37242         9.02659
     2021.22381       -16.49768         9.39642
     2021.22655       -12.14794         9.43805
     2021.22929       -11.28120         9.24433
     2021.23175         4.95507        10.44509
     2021.25709       -17.39258        11.38009
     2021.25941       -18.98304         9.31957
     2021.26214       -16.14929         9.65419
     2021.26488       -14.08955         9.08903
     2021.26762       -11.91781         9.36280
     2021.27036        -9.97907         9.91996
     2021.27310       -13.97933         9.45246
     2021.27583       -16.16158         9.50209
     2021.27857       -12.16184         9.39802
     2021.28131       -14.44410         9.40443
     2021.28405       -13.64636         9.29556
     2021.28679       -15.02662         9.73904
     2021.28952       -16.53287         9.79028
     2021.29139        -4.89946        14.83351
     2021.29420         4.86214        14.86393
     2021.29774       -17.45265         9.81269
     2021.30047       -13.48190        10.07206
     2021.30321       -12.81316         9.67820
     2021.30595       -15.81942         9.80629
     2021.30760       -12.54260        25.13611
     2021.31143        -2.56994         9.13546
     2021.31416        -6.97119         9.43965
     2021.31690        -0.14945         9.21871
     2021.32021       -24.70481        13.52227
     2021.32295       -21.88306        13.37657
     2021.32569       -33.12832        12.90747
     2021.32842       -21.54558        13.50946
     2021.33116       -13.35884        12.59047
     2021.33390       -15.61710        12.42877
     2021.33596        -7.28406        32.23026
     2021.33937       -11.82861        12.28147
     2021.34211       -12.53987        12.43197
     2021.34485        -6.51913        12.93149
     2021.35580       -13.01316        12.92188
     2021.35854       -19.54242        12.70734
     2021.36128       -24.62668        12.59207
     2021.36402       -21.91793        13.21007
     2021.36653       -30.29075        11.50177
     2021.36892       -18.73035         9.26354
     2021.37166       -12.39561         9.47487
     2021.37440       -14.13887         9.78387
     2021.37770        -9.99722        12.48640
     2021.38044        -7.90748        13.04036
     2021.38318       -16.54474        13.30773
     2021.38592       -15.10500        13.12841
     2021.38866       -24.35525        12.86905
     2021.39413       -14.09377        12.39194
     2021.39687        -3.90503        13.18285
     2021.39938        -7.76085        11.04388
     2021.40177        -3.40845         9.30516
     2021.40451        -8.53071         9.74385
     2021.40782       -23.89506        12.72336
     2021.41056        -6.84132        12.36473
     2021.41330       -13.55858        12.96031
     2021.41603       -25.58783        12.94910
     2021.41877       -16.46609        13.05317
     2021.42151       -22.31635        13.28051
     2021.42425        -3.16661        13.16844
     2021.42699        -1.76587        12.23024
     2021.42972        -3.07512        12.25906
     2021.43246        -4.07438        12.38554
     2021.43520        -2.22164        12.09735
     2021.43794        -7.13890        12.59207
     2021.44068       -10.41316        12.35672
     2021.44341       -12.28441        13.06597
     2021.44615       -14.06767        12.60648
     2021.44889       -14.17593        12.61449
     2021.45163        -6.55119        13.12041
     2021.45436       -16.86645        13.72880
     2021.45710        -0.86170        13.15243
     2021.45983        -9.75394        12.81301
     2021.46258         1.94078        13.14282
     2021.46528        -2.57141        13.00514
     2021.46805        -6.29174        12.44478
     2021.47079        -5.31499        13.07558
     2021.47353        -2.62425        13.82966
     2021.47627        -1.88951        13.27891
     2021.47901        -2.25477        12.80981
     2021.48174       -16.19302        12.75217
     2021.48448       -15.10828        12.50722
     2021.48722       -18.38654        12.72015
     2021.48996        -4.52680        12.92989
     2021.49269        -5.17106        12.68653
     2021.49520        -2.86388        11.12393
     2021.49817         0.83443        12.92508
     2021.50091        -2.70583        12.63690
     2021.50365       -10.73409        12.42076
     2021.50638       -17.51135        12.83543
     2021.50912       -14.82860        13.47744
     2021.51186        -2.56786        14.93918
     2021.51459         2.00690        13.22928
     2021.51733         6.70762        12.45919
     2021.52007         2.13336        13.54468
     2021.52281        -4.41489        13.04996
     2021.52555         0.24685        12.57926
     2021.52829         0.92759        12.62729
     2021.53102         6.48933        12.36152
     2021.53376         7.54607        12.45758
     2021.53650         3.97082        13.28852
     2021.53924         7.12456        13.40219
     2021.54198         7.01230        12.38554
     2021.54471         0.72804        12.32790
     2021.54745        -2.79822        12.78099
     2021.55019        -0.04447        12.22223
     2021.55293        -1.20173        12.74417
     2021.55566         5.67001        13.02115
     2021.55840         7.39375        13.09639
     2021.56114        10.38649        12.15499
     2021.56388        15.39824        12.16620
     2021.56605       -13.36993         9.43004
     2021.56878        -1.80018         9.74385
     2021.57152        -6.23044         9.87353
     2021.57426       -11.42170         9.53251
     2021.57700         2.39804        10.41147
     2021.57974        -3.05622         9.43805
     2021.58247       -15.84347         9.56133
     2021.58521       -12.37573         9.72944
     2021.58795       -13.43499         9.56293
     2021.59069        -2.98425         9.86072
     2021.59342        -3.73851         9.95678
     2021.59616       -14.18776        10.38906
     2021.59890       -10.13002         9.93597
     2021.60164        -3.16528         9.60135
     2021.60438         0.80946         9.23632
     2021.60711         6.54921         9.39802
     2021.60985         5.96095         9.52771
     2021.61259         9.82469         9.70702
     2021.61533        -0.47257         9.47968
     2021.61807         4.26817         9.30356
     2021.62080         0.11292         9.55332
     2021.62354        -6.60934         9.58534
     2021.62628        -1.30660         9.47487
     2021.62902        -6.63786         9.41563
     2021.63175        -4.94612         9.55172
     2021.63449        -5.71537         9.70062
     2021.63723        -6.14663         9.84951
     2021.63997         2.29411         9.81429
     2021.64271        -1.80015         9.88954
     2021.64544        -1.63441         9.47327
     2021.64818        -0.43566         9.51650
     2021.65092        -9.70892         9.35480
     2021.65366        -4.60718         9.48128
     2021.65639       -11.70344         9.76466
     2021.65913        -3.90570         9.53411
     2021.66187        -3.33895         9.59815
     2021.66461        -6.45521         9.32117
     2021.66735         0.93353         9.24593
     2021.67008        -1.25373         9.46046
     2021.67282         8.71801         9.91836
     2021.67556         0.27176         9.93277
     2021.67830       -14.10250         9.91355
     2021.68104         5.65824         9.47327
     2021.68377         5.38098         9.40123
     2021.68651        -3.77328         9.87353
     2021.68925         1.86947         9.97119
     2021.69199        -2.60779         9.94397
     2021.69472        -3.93305         9.91836
     2021.69746        -4.16131         9.63818
     2021.70020        -6.07257         9.81429
     2021.70294        -4.42782         9.64458
     2021.70568         6.20192        10.10248
     2021.70841         8.65766         9.67020
     2021.71115        -2.42460        10.11528
     2021.71389        -4.24585         9.95038
     2021.71663        -1.70711         9.84471
     2021.71937        -2.22737         9.61897
     2021.72210        -1.53163         9.61576
     2021.72484         2.13311         9.86712
     2021.72758         5.81986        10.05284
     2021.73032        -8.27940        10.19053
     2021.73305         1.72734         9.47167
     2021.73579         1.65508         9.75505
     2021.73855        -1.34121        10.12809
     2021.74127        10.70057         9.93917
     2021.74401        -2.10669         9.94557
     2021.74674        -9.76295        10.13610
     2021.74948        -7.23221         9.54692
     2021.75222        -4.03047         9.78067
     2021.75496         2.46528         9.73264
     2021.75706         0.02624        13.24049
     2021.76043        -0.67824         9.93117
     2021.76317        -3.79850         9.84151
     2021.76591        -4.26676         9.38201
     2021.76865         2.80999         9.84151
     2021.77138         0.39873        10.28339
     2021.77412         5.44747        10.01282
     2021.77686         2.26821         9.43645
     2021.77960        -5.54505         9.56133
     2021.78234        -7.30930         9.60616
     2021.78507         7.25744         9.64778
     2021.78781        -2.97282         9.54372
     2021.79055         0.54092         9.43325
     2021.79329        -1.82134         9.73904
     2021.79603        10.99141         9.52130
     2021.79876         4.37115         9.54852
     2021.80150        11.61289        10.02402
     2021.80424        11.15063         9.99521
     2021.80698         5.88637         9.85752
     2021.80971         6.17512         9.92316
     2021.81245        18.83186         9.59015
     2021.81519        21.56560         9.38041
     2021.81793         0.84434         9.69421
     2021.82067        -3.80991         9.95038
     2021.82340        -6.38017         9.82870
     2021.82614         5.42757         9.69581
     2021.82888         8.62831         9.43485
     2021.83062        -5.77803        24.06663
     2021.83331        17.98080        29.30038
     2021.83709        -5.26846         9.91676
     2021.83983       -12.46172        10.08166
     2021.84257        -0.22498         9.84311
     2021.84531        -4.77424         9.77426
     2021.84804         4.14351         9.73904
     2021.85078        -1.98375        10.36825
     2021.85352        -4.95701        10.72848
     2021.85626         4.74873         9.69742
     2021.85794        -5.14150        32.66894
     2021.86173        -8.84378         9.61897
     2021.86447       -13.85404        10.03043
     2021.86721        -3.16930        10.08166
     2021.86995        -2.44156         9.93917
     2021.87268        -1.98681         9.97760
     2021.87542         2.52693        11.51778
     2021.87816        -0.73433         9.57254
     2021.88090        -1.13059         9.65579
     2021.88364         2.53615         9.93117
     2021.88637        -0.18111         9.72944
     2021.88911        -6.89036         9.53571
     2021.89185       -10.18262         9.82550
     2021.89414         2.30599        11.63786
     2021.90006        -1.75840         9.35159
     2021.90280        -8.63565         9.56133
     2021.90554        -0.87591         9.52130
     2021.90776        -6.23918        12.76018
     2021.91102        -8.55543         9.62697
     2021.91375        -5.15169        11.17997
     2021.91649         3.70606        11.01346
     2021.91862        11.80097        27.76339
     2021.94935         6.02796         9.63017
     2021.95208         4.08470         9.87193
     2021.95482         4.59345         9.91996
     2021.95756         6.70119         9.67500
     2021.95980         0.42588        12.12777
     2021.96303        12.91267         9.95038
     2021.96565        22.25765        10.35224
     2021.97126        -4.97012         9.79508
     2021.97585         0.49306        16.00386
     2021.98220        10.44687         9.86873
     2021.98494         6.56861         9.86072
     2021.98767        -1.11765        12.43037
     2021.99041         6.00109         9.78067
     2021.99315         2.20983         9.61897
     2021.99589        11.03158         9.66860
     2021.99767       -19.40584        19.85913
     2022.00018        -8.22367        27.76019
     2022.00296        39.75999        25.87418
     2022.00684       -12.90046         9.76786
     2022.00958       -26.33071         9.93757
     2022.01156       -17.02852        14.69422
     2022.01779        11.15651        10.14250
     2022.01937         1.13748        34.85114
     2022.02345       -26.07035        10.86136
     2022.02600       -14.69026         9.59975
     2022.02874       -12.89552         9.44285
     2022.03149       -26.59680         9.78067
     2022.03422       -18.53803        10.36184
     2022.03696        -8.16929         9.58214
     2022.03969       -13.44655        10.30260
     2022.04243        -5.07881         9.67980
     2022.04517       -13.36107         9.97760
     2022.04791       -14.20832         9.73904
     2022.05065       -10.74958         9.68781
     2022.05338       -13.22384         9.94397
     2022.05612       -17.06610        10.17932
     2022.05886       -18.50636         9.66540
     2022.06160       -26.84561         9.73104
     2022.06433        -9.68487         9.78707
     2022.06707        -6.98413         9.72623
     2022.06981        -3.05239         9.67980
     2022.07150         7.82337        23.47264
     2022.07529       -16.73990         9.47968
     2022.07802        -8.93516         9.75345
     2022.08076        -8.96042         9.53731
     2022.08250        -2.40876        27.45440
     2022.08528         2.41991        20.20015
     2022.08898        -9.57919         9.64778
     2022.09171        17.72155        10.01922
     2022.09445       -12.21871         9.48448
     2022.09719       -10.78597        10.41788
     2022.09993        -9.17123         9.98240
     2022.10266        -7.42548         9.98880
     2022.10540       -10.15774         9.50849
     2022.10814        -6.71500         9.56293
     2022.11088        -8.30226         9.95518
     2022.11362        -5.79152         9.60776
     2022.11635        -9.40677         9.65899
     2022.11909       -10.70503         9.52450
     2022.12183        -5.64829         9.76466
     2022.12457        -0.21355         9.71343
     2022.12731        -4.12581         9.59655
     2022.13004        -3.66006        10.03363
     2022.13278       -12.73532        14.77107
     2022.13548        -5.14651        10.99585
     2022.13827         6.48614        11.35128
     2022.14059        -0.93432        12.44638
     2022.15064        19.70138       136.07282
     2022.15341         7.87707        44.20593
     2022.15707        -6.42696        11.08711
     2022.16016        -7.50390         9.60616
     2022.16290       -17.91116         9.70222
     2022.16564       -20.89042         9.77907
     2022.16811        -9.32517        10.58759
     2022.18408        -6.84283        14.20270
     2022.18628       -29.74707        73.15889
     2022.19136        15.89617       163.21982
     2022.19301        -6.28000         9.78387
     2022.19575        -9.56625         9.77587
     2022.19849       -13.02551        11.03908
     2022.20123        -7.44877        11.24881
     2022.20397         8.52097        11.40891
     2022.20670        -9.37829         9.95998
     2022.20944        -4.64554         9.95038
     2022.21180        -7.80208        11.12713
     2022.21363       -29.25859       196.66525
     2022.21767       -13.86035         9.61256
     2022.22039        -9.17458         9.68301
     2022.22299       -12.34856        11.07590
     2022.22861       -15.50835         9.92316
     2022.23134        -4.03361         9.65259
     2022.23408        -4.63387         9.66540
     2022.23555        18.62731        50.48196
     2022.23915        -9.35961        12.66572
     2022.24132        -3.13676        23.43422
     2022.24982       -16.57510        21.47296
     2022.25598        -7.23593        10.74449
     2022.25872        -6.44319         9.52450
     2022.26146       -11.35744         9.55813
     2022.26420        -9.52570         9.50209
     2022.26694       -18.77796        10.01602
     2022.26967        -4.35422         9.57574
     2022.27241        -6.02248         9.82069
     2022.27515        -5.73073         9.90715
     2022.27787        -7.12996         9.94878
     2022.28061       -12.09522         9.74705
     2022.28337        -1.38352         9.68461
     2022.28610       -10.74077        11.19438
     2022.28874       -12.72784        10.97824
     2022.29164       -17.69841         9.82069
     2022.29431       -22.08954         9.74064
     2022.29639       -12.76153        16.63626
     2022.29979       -11.52106         9.91836
     2022.30253        16.58169         9.77426
     2022.30527         9.94743         9.80308
     2022.30800        11.41717         9.53411
     2022.31074        17.30091         9.53411
     2022.31348         9.70665         9.75345
     2022.31622        -1.63660         9.63978
     2022.31895        -7.51186         9.77747
     2022.32169        16.16388         9.63818
     2022.32443        18.13762         9.47167
     2022.32717         5.67936         9.53411
     2022.32870        28.80843        27.21264
     2022.33354         8.57712        18.64555
     2022.33538         2.47659        10.22095
     2022.33812         9.09333        10.05605
     2022.34086        10.44407         9.49569
     2022.34360        10.44982         9.56773
     2022.34633        20.15056         9.53731
     2022.34907        20.31030         9.53571
     2022.35181        15.04104         9.44766
     2022.35455        19.40579         9.47327
     2022.35728        13.06953         9.55813
     2022.36002        13.88327         9.57574
     2022.36276        12.53101         9.69421
     2022.36550        11.33075         9.65259
     2022.36824        12.80750         9.57734
     2022.37097         5.09724         9.60776
     2022.37371        12.96398         9.47007
     2022.37645        -2.50528         9.63017
     2022.37919        24.52046         9.75825
     2022.38193         4.19221         9.77907
     2022.38466        13.15495         9.40123
     2022.38740        -1.87431         9.55492
     2022.39014        17.75743         9.60295
     2022.39288        16.73617         9.67980
     2022.39561        13.97392         9.95358
     2022.39835        24.95866         9.57574
     2022.40109         9.56140         9.68781
     2022.40383        20.10914         9.48768
     2022.40657        15.99988         9.40603
     2022.40930         6.82263         9.70382
     2022.41204        21.72837         9.59815
     2022.41478        11.46711         9.55172
     2022.41752        15.36085         9.67020
     2022.42026         6.57659         9.69742
     2022.42299        20.82334         9.44926
     2022.42573         9.78908         9.54372
     2022.42847        17.13182         9.35319
     2022.43121        11.52156         9.57254
     2022.43394        21.24330        10.00161
     2022.43668         1.05105         9.56773
     2022.43942         8.48479         9.65099
     2022.44216        10.90453         9.91836
     2022.44490        20.73227         9.66700
     2022.44763        16.58001         9.60616
     2022.45037        10.97276         9.37561
     2022.45311         9.95850         9.40923
     2022.45585         7.68724         9.58694
     2022.45859         2.05698         9.58054
     2022.46132         6.33473         9.60295
     2022.46406         6.06847         9.60456
     2022.46680         9.80321         9.45566
     2022.46954        11.76695         9.37881
     2022.47227         1.31369         9.48288
     2022.47501        26.28844         9.46046
     2022.47775         5.94018         9.75345
     2022.48049         6.95392         9.51490
     2022.48323        17.44666         9.44766
     2022.48596        32.04840         9.53891
     2022.48870         3.84515         9.97599
     2022.49144         3.75489         9.74224
     2022.49418         6.98663         9.81269
     2022.49692        12.86837         9.48928
     2022.49965        22.72511         9.47007
     2022.50239         1.78186         9.43805
     2022.50513         5.06860        10.11849
     2022.50787        24.45434         9.90235
     2022.51060        15.63608         9.68941
     2022.51334        17.58882         9.72784
     2022.51608         4.40257         9.36440
     2022.51882         5.61531         9.38842
     2022.52156         6.20205         9.41724
     2022.52429        10.49179         9.42844
     2022.52703        21.23553         9.55653
     2022.52977        32.70128         9.53731
     2022.53251        27.14302         9.67660
     2022.53525        11.66776        10.02402
     2022.53798         5.18450         9.54692
     2022.54072        21.29024         9.43165
     2022.54347        17.46897         9.54692
     2022.54620         7.03673         9.99841
     2022.54893        13.51047         9.63818
     2022.55167        12.52721         9.77907
     2022.55441        16.40795         9.54212
     2022.55715        34.80470         9.71182
     2022.55989        18.80544         9.49248
     2022.56262        23.88418         9.62857
     2022.56536         1.25692         9.39002
     2022.56810        11.24967         9.42844
     2022.57084        20.72141         9.51650
     2022.57357        34.38715         9.66379
     2022.57631        22.10689         9.26354
     2022.57905        11.85363         9.60295
     2022.58179        28.38838         9.45726
     2022.58453        25.58512         9.78227
     2022.58726        15.16586         9.45246
     2022.59000        30.68960         9.45726
     2022.59274         7.67234         9.36760
     2022.59548        16.75209         9.58694
     2022.59822        12.07983         9.33238
     2022.60095         8.20857         9.41884
     2022.60369        18.25931         9.54692
     2022.60643        22.70905         9.41724
     2022.60917        23.29880         9.52290
     2022.61190        22.20454         9.91676
     2022.61464        31.38128         9.66860
     2022.61738        22.47702         9.28115
     2022.62012        13.36576         9.47167
     2022.62286        18.39751         9.43965
     2022.62559        22.42125         9.66860
     2022.62833        16.38999         9.42204
     2022.63107        23.64773         9.48288
     2022.63381        19.79347         9.41083
     2022.63655        24.21122         9.33398
     2022.63928        28.13896         9.41403
     2022.64202        17.16970        10.14890
     2022.64476        19.81644         9.99200
     2022.64750        23.42618         9.68621
     2022.65023        24.99593         9.78707
     2022.65297        24.41867         9.67180
     2022.65571        23.59441         9.70222
     2022.65845        25.39915         9.70062
     2022.66119        28.10689         9.26994
     2022.66392        29.26664         9.35800
     2022.66666        23.52638         9.34039
     2022.66940        28.17412         9.66379
     2022.67214        33.63486         9.44285
     2022.67488        27.39461         9.64138
     2022.67761        26.56335         9.46367
     2022.68035        34.36709         9.41884
     2022.68309        30.98483         9.47487
     2022.68583        23.93557         9.60456
     2022.68856        23.67432         9.68141
     2022.69130        26.84106         9.41563
     2022.69404        16.87380         9.57414
     2022.69678        23.66954         9.47007
     2022.69952        21.12228         9.67980
     2022.70225        26.23503         9.79028
     2022.70499        26.25977         9.73424
     2022.70773        25.47251         9.63177
     2022.71047        26.75125         9.27635
     2022.71321        28.42199         9.37401
     2022.71868        28.08848         9.30677
     2022.72142        26.28122         9.39962
     2022.72416        27.05096         9.31317
     2022.72689        27.27370         9.64458
     2022.72963        31.26845         9.43004
     2022.73238        25.28118         9.38842
     2022.73511        28.75593         9.32598
     2022.73785        21.38867         9.40923
     2022.74005        26.21244        11.95646
     2022.74434        37.53219        20.62602
     2022.74606        28.64890         9.46847
     2022.74880        20.08364         9.12265
