# ================= DQRFIT RESULTS ================
# INPUT FILE: series/COAL.rad
# OUTPUT: LDETRENDED
# FILTER FUNCTION: f(t)
# f(t)=+line(t)
# line(t)=+P 1+P 2*t
# heav(t)=(t<0?0:1)
# TOTAL OBSERVATIONS MTOT=  362
# INITIAL TIME INTERVAL= 2015.7317 - 2004.7666 = 10.9651
# TOTAL OBSERVATIONS AFTER PREFILTER M=  362
# TIME-SPAN=    0.0000 -    0.0000 =  0.0000
# OBSERVATIONS: USED M=   362 REJECTED MTOT-M=     0 %USED=  100.0000
# N=  2 PARAMETERS
# MAXSIG= 175.00000
# MAXRES=  21.57197
# SCALE FACTOR FOR LENGTHS: SCL=  10.00000
# SCALE FACTOR FOR SIGMAS: SCLSIG=   1.00000
# CHI^2=    984.722 DOF=   360 CHI^2/DOF=   2.73534
# RMS=      5.721 SDEV=      5.722 MEAN=    0.28298
#  P #       PARAMETER +-    SIGMA %error PARAMETER NAME
# P 1 =     -1306.14780 +-  317.316  24.29 YZERO                              
# P 2 =         0.65048 +-    0.158  24.31 SLOPE                              
#       T            LDETRENDED       SIG_OBS
     2004.76660         4.28223         5.42234
     2004.76934         4.80405         5.54567
     2004.77207        13.14577         5.61738
     2004.77481         7.61475         5.49676
     2004.77755         8.72403         5.55429
     2004.78029         1.03325         5.55052
     2004.78303        15.43887         5.51032
     2004.78576         4.85185         5.65265
     2004.78850         7.23457         5.64726
     2004.79124         7.29364         5.64442
     2004.79398        11.73162         5.89458
     2004.79671         8.02093         5.35247
     2004.79945         8.43781         5.71958
     2004.80219         7.78682         5.64848
     2004.80493       -13.94205         5.45772
     2004.80767         6.89111         5.40623
     2004.81040        -3.29074         5.56159
     2004.81314        -1.59827         5.34997
     2004.81588         6.30816         5.48971
     2005.20739         8.27075         5.47213
     2005.21013        -2.29231         5.38997
     2005.21287        -1.73622         5.49996
     2005.21561         6.27871         5.46179
     2005.21834        -3.49449         5.46335
     2005.22108         4.02550         5.58952
     2005.22382        -0.00849         5.42288
     2005.22656         0.96219         5.46241
     2005.22930         6.96949         5.44797
     2005.23203         3.12768         5.43919
     2005.23477         8.42270         5.43095
     2005.23751         7.82191         5.44941
     2005.24025        10.50091         5.56461
     2005.24298         8.85977         5.43838
     2005.24572         4.41033         5.63131
     2005.24846         5.80652         5.46824
     2005.25120         4.50553         5.43807
     2005.25394         7.95055         5.63890
     2005.25667        10.63571         5.89082
     2005.25941         3.48089         5.56172
     2005.26215         8.33118         5.90392
     2005.26489        10.38973         5.75899
     2005.26762        10.44321         5.67478
     2005.27036         8.90695         5.68022
     2005.27310         9.12634         5.55149
     2005.27584         1.77523         5.54564
     2005.27858         4.86256         5.49783
     2005.28131         8.82237         5.54140
     2005.28405         0.89117         5.78508
     2005.28679         8.49415         5.80581
     2005.28953        10.04345         5.71696
     2005.29227         6.12854         5.67930
     2005.29500         9.18185         5.64357
     2005.29774         6.77363         5.68205
     2005.30048         1.50099         5.46229
     2005.30322         4.41611         5.64974
     2005.30595         5.63587         5.63131
     2005.30869         3.05023         5.54260
     2005.31143         9.05980         5.67272
     2005.31417         4.17332         5.70180
     2005.31691        -1.85996         5.66947
     2005.31964        -4.69809         5.67948
     2005.32238         4.01527         5.75743
     2005.32512         0.76637         5.59666
     2005.32786        -1.28857         5.71785
     2005.33060        -2.86163         5.69826
     2005.33333         0.81309         5.65014
     2005.33607         2.85755         5.81945
     2005.33881         1.06454         5.40270
     2005.34155        -1.40527         5.40551
     2005.34428        -7.81695         5.37862
     2005.34702         0.28397         5.43945
     2005.34976        -0.00567         5.44084
     2005.35250         5.24892         5.39641
     2005.53867        -3.27564         5.50274
     2005.54141        -4.24616         5.39661
     2005.54415         0.47109         5.46127
     2005.54689        -2.32182         5.42711
     2005.54962        -4.14101         5.46386
     2005.55236         0.98579         5.51902
     2005.55510        -6.68164         5.47254
     2005.55784        -1.95599         5.42307
     2005.56057        -3.02485         5.69108
     2005.56331        -2.59461         5.63472
     2005.56605        -5.23729         5.69710
     2005.56879         0.54388         5.72149
     2005.57153        -1.87766         5.73206
     2005.57426        -2.64871         5.83447
     2005.57700        -2.45768         6.44490
     2005.57974         7.80614         5.73106
     2005.58248        -0.58999         5.58633
     2005.58522        -3.45974         5.70771
     2005.58795         5.34138         5.42656
     2005.59069        -1.57489         5.45310
     2005.59343        -3.41211         5.35906
     2005.59617         3.32114         5.62632
     2005.59890         2.43151         5.64800
     2005.60164        -8.16509         5.46922
     2005.60438         2.10568         5.46717
     2005.91650        -4.15987         5.49509
     2005.91923        -5.52763         5.44922
     2005.92197         1.82264         5.46311
     2005.92471        -7.15448         5.46225
     2005.92745        -5.79972         5.42145
     2005.93018        -3.74561         5.79331
     2005.93292        -3.32437         5.55234
     2005.93566         1.56256         5.56165
     2005.93840        -3.31247         5.51101
     2006.30527         0.12065         5.40474
     2006.30801        -9.78243         5.54986
     2006.31075        -3.56576         5.56988
     2006.31348        -1.86412         5.50790
     2006.31622        -4.14431         5.48635
     2006.31896        -6.89755         5.61878
     2006.32170        -8.70967         5.41205
     2006.32444        -6.71243         5.44627
     2006.32717        -8.10301         5.46183
     2006.32991        -8.49361         5.38276
     2006.33265        -3.99951         5.39104
     2006.33539        -6.01264         5.42892
     2006.33812        -5.68123         5.51512
     2006.34086        -3.49950         5.41888
     2006.34360        -6.02954         5.45516
     2006.34634        -0.14324         5.38767
     2006.34908        -3.11541         5.42555
     2006.35181        -7.74539         5.51398
     2006.35455        -6.57531         5.42108
     2006.35729        -9.80808         5.41789
     2006.36003        -3.30329         5.40967
     2006.36277        -9.50378         5.41649
     2006.36550        -9.37594         5.38990
     2006.36824        -7.72244         5.44626
     2006.37098        -3.90819         5.82023
     2006.37372        -7.90329         5.74159
     2006.37645        -6.30518         5.47288
     2006.37919        -8.69939         5.53753
     2006.38193        -6.52858         5.53111
     2006.38467         0.25413         5.52095
     2006.38741        -8.31457         5.54945
     2006.39014        -3.57914         5.47937
     2006.39288        -6.50549         5.48891
     2006.39562       -10.54963         5.69636
     2006.39836        -8.21235         5.73011
     2006.40110         4.16917         5.50069
     2006.40383        -6.62356         5.49205
     2006.40657        -7.88019         5.49184
     2006.40931        -4.60409         5.55557
     2006.41205        -6.26251         5.52133
     2006.41478        -6.15135         5.70003
     2006.41752        -3.46952         5.72848
     2006.42026        -3.44355         5.62506
     2006.42300        -0.31378         5.79756
     2006.42574        -4.03175         5.65029
     2006.42847        -5.34489         5.81964
     2006.43121        -6.92355         5.61093
     2006.43395        -7.45482         5.59037
     2006.43669        -6.02257         5.63348
     2006.43943         4.70408         5.63615
     2006.44216         4.14122         5.61987
     2006.44490         0.91246         5.61800
     2006.44764        -4.62218         5.49081
     2006.45038         0.47386         5.51661
     2006.45311         2.98187         5.56368
     2006.45585        -0.47968         5.52192
     2006.45859        -0.33454         5.50348
     2006.46133         6.88399         5.95030
     2006.46407        -3.10617         5.66745
     2006.46680        -0.16846         5.71241
     2006.94867        -0.19475         5.54554
     2006.95140         3.59609         5.43037
     2006.95414         6.29313         5.48590
     2006.95688         3.96186         5.64315
     2006.95962         1.43460         5.57736
     2006.96235        -0.62620         5.52458
     2006.96509        -0.65285         5.63448
     2006.96783         3.43733         5.70851
     2006.97057         4.65819         5.76135
     2006.97331       -21.97127         5.58096
     2006.97604        -0.79745         5.38172
     2006.97878        -4.94032         5.43997
     2006.98152        -4.99216         5.60711
     2006.98426        -6.93801         5.47480
     2006.98700        -5.75025         5.88999
     2006.98973        -1.90078         5.62748
     2006.99247        -9.58072         5.66703
     2006.99521        -3.21538         5.66104
     2006.99795        -6.36066         5.81710
     2007.00068        -4.15369         5.62194
     2007.00342         1.01275         5.67969
     2007.00616        -1.03738         5.61234
     2007.00890         6.55473         5.55054
     2007.01164         4.85294         5.60242
     2007.01437        -3.84808         5.49482
     2007.01711        -6.12797         5.59416
     2007.01985        -6.06865         5.53940
     2007.02259        -5.72038         5.50588
     2007.02533       -11.34685         5.48220
     2007.02806        -3.70177         5.56232
     2007.03080        -7.71857         5.36034
     2007.03354        -8.01395         5.25390
     2007.03628        -4.62143         5.25371
     2007.03901       -10.02540         5.27807
     2007.04175        -5.55502         5.32121
     2007.04449        -3.66165         5.43672
     2007.04723        -6.59136         5.39394
     2007.04997        -8.97762         5.92544
     2007.05270        -1.38046         5.48317
     2007.05544        -2.64675         5.27443
     2007.05818        -7.38007         5.38129
     2007.06092       -10.51417         5.28805
     2007.06366        -9.57128         5.30148
     2007.06639        -8.19378         5.69937
     2007.06913        -5.78391         5.21846
     2007.07187         0.86038         5.26418
     2007.07461        -0.96508         5.30892
     2007.07734        -3.83243         5.44100
     2007.08008         1.62143         5.56731
     2007.08282        -2.31945         5.37652
     2007.08556         2.70737         5.46883
     2007.08830        -5.42328         5.35148
     2007.09103        -5.78930         5.56986
     2007.09377        -8.05145         5.37530
     2007.09651        -9.05121         5.51006
     2007.66051         1.16987         5.58591
     2007.66324         4.39048         5.57908
     2007.66598         4.14877         5.56189
     2007.66872         1.90508         5.49039
     2007.67146         7.22631         5.57016
     2007.67420         5.53052         5.54741
     2007.67693         6.06878         5.68153
     2007.67967        11.24495         5.57267
     2007.68241         6.83568         5.57692
     2007.68515         3.14756         5.77355
     2007.68789         2.66660         5.66486
     2007.69062        -1.41669         5.61496
     2007.69336         2.75153         5.56298
     2007.69610         0.03586         5.57612
     2007.69884         4.18986         5.52820
     2007.70157         4.19344         5.55656
     2007.70431         5.61784         5.76119
     2007.70705         6.77962         5.52699
     2007.70979         1.26662         5.68930
     2007.71253        -4.84347         5.80264
     2007.71526         7.22380         5.38849
     2007.71800         6.35540         5.27917
     2007.72074         4.14208         5.42009
     2007.72348        -1.22715         5.33584
     2007.72621         3.86767         5.36039
     2007.72895         9.04770         6.14905
     2007.73169         7.55965         5.44155
     2007.73443         3.43082         5.82006
     2007.73717        -6.54955         5.39552
     2007.73990         8.81196         5.69780
     2007.74264         1.39262         5.45699
     2007.74538        -0.46536         5.75569
     2007.74812         8.20112         5.60280
     2007.75086         7.53828         5.76130
     2007.75359        16.91343         5.82961
     2007.75633        21.57197         5.67506
     2007.75907         4.48541         5.78020
     2007.76181        -2.04867         5.44640
     2007.76454         3.97032         5.56399
     2007.76728         5.39088         5.96542
     2007.77002         5.96329         5.90966
     2007.77276         7.79928         5.65363
     2009.48392        -0.02962         5.85752
     2009.48665        -0.43458         6.15918
     2009.48939        -3.10385         6.26978
     2009.49213         0.38724         6.47358
     2009.49487         4.63599         7.27123
     2009.49760        -2.42692         6.41204
     2009.50034        -3.94483         5.37294
     2009.50308        -2.70222         5.55063
     2009.50582        -1.43677         5.92685
     2009.50856        -7.64931         5.93977
     2009.51129         6.78235         6.35182
     2009.51403        -2.95149         5.70060
     2009.51677         1.01929         5.49155
     2009.51951         1.44919         5.84514
     2009.52225        -3.80050         5.55258
     2009.52498        -4.91345         5.40338
     2009.52772         0.23823         5.62671
     2009.53046        -0.97581         5.50375
     2009.53320        -1.59281         5.97996
     2009.53593         1.98353         5.31827
     2009.53867        -0.67721         5.30366
     2009.54141        -0.27232         5.29251
     2009.54415        -0.01122         5.40858
     2009.54689       -11.79766         5.52644
     2009.54962        -0.44149         5.39413
     2009.55236         1.42148         5.30965
     2009.55510         3.31665         5.25536
     2009.55784         0.44973         5.29390
     2009.56057        -4.90294         5.50702
     2009.56331        -3.40574         5.90327
     2009.56605        -0.45073         5.56528
     2009.56879        -0.72060         5.47857
     2009.57153         0.69525         5.39287
     2009.57426         4.57583         5.73194
     2009.57700        10.76770         6.74804
     2009.57974         5.33126         6.01880
     2009.58248         8.73156         5.82250
     2009.58522        -2.38164         5.71013
     2009.58795         4.66998         5.78327
     2009.59069        -2.98970         6.07487
     2009.59343        -2.99639         6.18456
     2010.32444         7.54281         5.45442
     2010.32717         3.13560         5.30301
     2010.32991         3.50786         9.29915
     2010.33265         6.44308         9.41593
     2010.33539         4.20671         9.48338
     2010.33812         4.96926         9.48979
     2010.34086         3.59398         9.19992
     2010.34360         4.32881         9.25619
     2010.34634         2.44338        10.48303
     2010.34908         3.10071         9.23027
     2010.35181         2.54547         9.22351
     2010.35455         0.39214         9.33323
     2010.35729        -3.53742         9.47710
     2010.36003         7.18540         9.37074
     2010.36277         6.12745         9.20309
     2010.36550         2.17366         9.52644
     2010.36824         1.37270         9.47101
     2010.37098         2.92444         9.22817
     2010.37372        -1.20037         9.17056
     2010.37645         0.80543         9.20349
     2010.37919         4.86759         9.73133
     2010.38193        -0.49736         9.59853
     2010.38467         2.75171         9.50676
     2010.38741         1.17435         9.37292
     2010.39014         3.17825         9.36400
     2010.39288        -1.75278         9.34414
     2010.39562         1.30416         9.37953
     2010.39836        -1.81227         9.40804
     2014.02327         1.62512         9.49585
     2014.02601         0.74785        10.28863
     2014.02875         4.89491         9.30099
     2014.03149         3.61753         9.53485
     2014.03422        -6.28807         9.87894
     2014.03696        -6.94647        10.96861
     2014.03970        -0.66526         9.21747
     2014.04244        -1.03118         9.26119
     2014.04517         1.59347         9.76588
     2014.04791         0.04607         9.72740
     2014.05065         2.71067         9.97225
     2014.05339         0.05328         9.51027
     2014.05613        -0.63084         9.58433
     2014.05886        -5.29343        10.55248
     2014.06160         6.08653        10.43002
     2014.06434         1.65791         9.78070
     2014.06708         4.93444        10.01432
     2014.07255         4.63443        10.69053
     2014.07529        -3.86400        14.29170
     2014.07803         5.61871        10.49536
     2014.08898         1.61975        12.12715
     2014.09172        -0.39749        10.76932
     2014.09719         1.69193         9.45988
     2015.71800         8.95295         9.21544
     2015.72074         9.82808         9.19318
     2015.72348         7.84259         9.21212
     2015.72621         4.67917         9.34443
     2015.72895         3.59986         9.41499
     2015.73169         0.91864        10.83812
