# ================= DQRFIT RESULTS ================
# INPUT FILE: series/COAN.rad
# OUTPUT: LDETRENDED
# FILTER FUNCTION: f(t)
# f(t)=+line(t)
# line(t)=+P 1+P 2*t
# heav(t)=(t<0?0:1)
# TOTAL OBSERVATIONS MTOT=  305
# INITIAL TIME INTERVAL= 2022.7488 - 2021.8654 =  0.8834
# TOTAL OBSERVATIONS AFTER PREFILTER M=  303
# TIME-SPAN= 2022.7488 - 2021.8654 =  0.8834
# OBSERVATIONS: USED M=   303 REJECTED MTOT-M=     2 %USED=   99.3443
# N=  2 PARAMETERS
# MAXSIG= 175.00000
# MAXRES=  31.38218
# SCALE FACTOR FOR LENGTHS: SCL=  10.00000
# SCALE FACTOR FOR SIGMAS: SCLSIG=   1.00000
# CHI^2=    848.578 DOF=   301 CHI^2/DOF=   2.81920
# RMS=     10.391 SDEV=     10.408 MEAN=   -0.04363
#  P #       PARAMETER +-    SIGMA %error PARAMETER NAME
# P 1 =    -42859.68066 +- 4749.702  11.08 YZERO                              
# P 2 =       -23.31886 +-    2.349  10.07 SLOPE                              
#       T            LDETRENDED       SIG_OBS
     2021.86540        -6.88795        18.79356
     2021.86721       -10.09583        10.51922
     2021.86995         2.06801        10.79962
     2021.87269         8.15386        10.97425
     2021.87542         4.31770        10.11961
     2021.87816         0.18354         9.82578
     2021.88090         7.16939         9.77876
     2021.88364        -6.96977         9.70657
     2021.88637        -0.66393         9.95339
     2021.88911        -6.06208         9.83753
     2021.89185       -16.95424        10.44031
     2021.89459         1.63061         9.85768
     2021.89733        -1.60855         9.71328
     2021.90006       -10.64871         9.79220
     2021.90280        -7.97186         9.89294
     2021.90554        -5.08102        10.00879
     2021.90828         7.57082        10.28080
     2021.91102         3.74567         9.93492
     2021.91375         2.92851         9.76197
     2021.91649         5.24235        10.05413
     2021.91923         6.40020        10.52426
     2021.92197        -6.21096        10.35804
     2021.92470        -6.14412         9.99536
     2021.92744        -6.08427        10.07260
     2021.93018        -5.93343        10.28919
     2021.93292         3.31042        10.62836
     2021.93566         9.29426        10.67370
     2021.93839         7.96910        10.16830
     2021.94113        10.68595        10.38490
     2021.94387        11.01579        10.19013
     2021.94661        -0.28537        10.28416
     2021.94935         1.93448        10.17502
     2021.95208         2.25932        10.05077
     2021.95482         3.32116        10.05413
     2021.95756         7.93601        10.25226
     2021.96030       -10.47915        10.13808
     2021.96303        -6.63131        10.06420
     2021.96577         3.78554        10.37147
     2021.96737         6.64378        23.12886
     2021.99863         9.07766         9.84593
     2022.00136         5.29050         9.78380
     2022.00410         1.20935         9.93324
     2022.00684       -12.18581         9.90637
     2022.00958       -16.11397        10.14144
     2022.01232       -23.61812        10.29423
     2022.01505        -6.67328        10.29759
     2022.01779        -0.15343        10.17502
     2022.01937        -5.97764        28.01153
     2022.02345        -8.22554        11.47964
     2022.02600        -8.50890        10.15319
     2022.02874        -5.68206        10.32781
     2022.03148       -17.81822        10.69720
     2022.03422       -16.45137        10.23211
     2022.03696       -16.55453        10.16494
     2022.03910       -22.74043        13.38368
     2022.04243       -11.21484        10.02223
     2022.04517         1.80700        10.25729
     2022.04791       -14.52116        10.13304
     2022.05065       -13.67531        10.21196
     2022.05338       -12.59047        10.01887
     2022.05612       -14.06562         9.86775
     2022.05886       -17.10478        10.00879
     2022.06160       -17.60194        10.03566
     2022.06433        -7.01309        10.17166
     2022.06707        -6.98725        10.06084
     2022.06981         2.66659         9.92652
     2022.07255        -8.65656         9.76701
     2022.07529        -2.73272         9.66123
     2022.07748         2.72438        13.11839
     2022.08124        13.25905        12.08409
     2022.08350         3.52781         9.88790
     2022.08624        -5.77735         9.89462
     2022.08898        -1.07550         9.71664
     2022.09171       -14.17366         9.79891
     2022.09445        -5.61081         9.99872
     2022.09719        -5.77297         9.86775
     2022.09993       -12.43613        10.12465
     2022.10266        -3.52028        10.41848
     2022.10540        -4.68544         9.69481
     2022.10814         2.36640         9.64612
     2022.11088         5.22225         9.86440
     2022.11362         5.50209         9.68977
     2022.11635         1.37393         9.74854
     2022.11909         6.40378         9.82074
     2022.12183         3.21962         9.79723
     2022.12457        -2.47154         9.97018
     2022.12731         2.93231         9.76869
     2022.13004       -10.56385         9.80563
     2022.13278         3.06700        10.09275
     2022.13552         3.94184         9.80899
     2022.13826         5.74068         9.81067
     2022.14099         3.42453         9.73511
     2022.14373        -5.09263         9.63269
     2022.14647        -0.03179         9.68642
     2022.14921         1.72706        10.01887
     2022.15195         1.73190         9.96010
     2022.15468         2.54574         9.68138
     2022.15742         1.05259         9.91980
     2022.16016        -7.38757         9.75190
     2022.16290         0.29427         9.93659
     2022.16564         2.02412         9.75862
     2022.16837        -3.83504         9.69313
     2022.17111        -2.27820         9.85600
     2022.17385         0.19365         9.75190
     2022.17659        -3.26751         9.89630
     2022.17932        -2.59566         9.81570
     2022.18206        -5.69882         9.74518
     2022.18480        -6.92998         9.96178
     2022.18754         0.71687         9.75694
     2022.19028         0.62471         9.91813
     2022.19301         4.51855         9.68642
     2022.19575         6.85040         9.75862
     2022.19849        -3.58276         9.81067
     2022.20123         4.57408        10.10114
     2022.20397         9.81793         9.62765
     2022.20670         2.60577        10.07260
     2022.20944         7.95061        10.08603
     2022.21201         7.43647        10.41848
     2022.21492        -2.96370         9.74015
     2022.21765        -4.05185         9.92652
     2022.22039         0.57499         9.93156
     2022.22313         4.58483         9.95506
     2022.22587       -15.49832        10.07428
     2022.22861         3.36852         9.84928
     2022.23134        10.47836         9.80059
     2022.23408         6.31821         9.74183
     2022.23682         7.11505        10.01047
     2022.23956         3.05589         9.98865
     2022.24230         0.55385        10.12633
     2022.24755        11.26422        11.55520
     2022.25051        -0.56773        10.25393
     2022.25325         6.81511        13.05962
     2022.25598         4.47596        10.05581
     2022.25905         7.13734        11.14383
     2022.26146         0.97364         9.73343
     2022.26420         7.71949         9.83249
     2022.26694         0.52133        10.67537
     2022.26967         3.05417        10.02055
     2022.27241         2.57402         9.93995
     2022.27515         7.93586        10.16830
     2022.27789        11.60770         9.90301
     2022.28062         3.46755         9.94667
     2022.28336        12.30239        10.13808
     2022.28610         3.58623        10.10114
     2022.28884         3.04708         9.98865
     2022.29158        -3.34308         9.80731
     2022.29431         4.18277         9.96346
     2022.29705         4.97761         9.77205
     2022.29979        15.02945         9.75862
     2022.30253         7.84430        10.22707
     2022.30527        -1.76986        10.04573
     2022.30795         4.69765         9.92484
     2022.31074         4.72083         9.98529
     2022.31348         4.79767         9.71160
     2022.31622         7.92851         9.74854
     2022.31895       -12.11864        10.09778
     2022.32169         9.61120        10.14648
     2022.32443         5.84504         9.77037
     2022.32717        -1.17411         9.94163
     2022.32991         6.55973         9.68138
     2022.33264        -8.47643        10.06588
     2022.33538        -1.22258        10.27744
     2022.33812         3.06226        10.32949
     2022.34086         4.61811        10.03230
     2022.34260         5.84878        19.19150
     2022.35268        14.88387        17.28410
     2022.35455         2.26132        10.04909
     2022.35728         2.11817         9.79723
     2022.36002         1.67001         9.85096
     2022.36276         8.95985         9.74015
     2022.36550         3.72870         9.95171
     2022.36824         1.39854         9.90133
     2022.37097        -2.38762        10.03062
     2022.37371        -1.20777         9.71496
     2022.37645        -0.48393         9.93492
     2022.37919         1.30892        10.30934
     2022.38193        -0.28724        10.18341
     2022.38466        -1.68540        10.13304
     2022.38740       -10.20955         9.92820
     2022.39014         7.67329         9.97018
     2022.39288         0.68713         9.91477
     2022.39561         1.12398         9.98865
     2022.39835         2.43282        10.02726
     2022.40109         5.21166        10.29087
     2022.40383         6.66551         9.82746
     2022.40657         7.95435         9.83753
     2022.40930         0.41519        10.02055
     2022.41204         2.94204        10.30766
     2022.41478         5.83388         9.89966
     2022.41752         2.68073        10.21196
     2022.42026         0.31957        10.22203
     2022.42299         6.31541         9.84593
     2022.42573         0.29726        10.06588
     2022.42847         5.67910         9.94835
     2022.43121         4.16394        10.19181
     2022.43394        12.68779        10.60653
     2022.43668        -4.62337         9.94499
     2022.43942        -1.17053        10.42520
     2022.44216         9.22732        10.15991
     2022.44490        12.34316        10.20356
     2022.44763        10.52900         9.83753
     2022.45037         5.31685         9.92988
     2022.45311         5.76669         9.81067
     2022.45585         4.24754         9.76197
     2022.45859       -10.10262         9.91813
     2022.46132         4.47822         9.68474
     2022.46406         2.53207         9.92148
     2022.46680         3.13691         9.73847
     2022.46954         1.49075         9.70824
     2022.47227        -7.87840         9.81402
     2022.47501        10.08444         9.89294
     2022.47775         5.86028        10.14144
     2022.48049         6.91213         9.91477
     2022.48323        11.35997         9.88622
     2022.48596        18.06881         9.95003
     2022.48870         4.02666        10.21700
     2022.49144         6.60750         9.93492
     2022.49418         6.57834        10.12801
     2022.49692         3.80319         9.92652
     2022.49965         5.88703         9.85264
     2022.50239       -13.41712        10.09778
     2022.50513         4.72672        10.57631
     2022.50787        13.20956        10.45878
     2022.51060         4.31541        10.32445
     2022.51334         3.15625        10.22371
     2022.51608        -0.13091        10.06252
     2022.51882        -1.97206         9.99368
     2022.52156        -4.36222        10.08435
     2022.52429         8.99562        10.12297
     2022.52703        10.51847        10.12129
     2022.52977        23.20431        10.12129
     2022.53251         8.85515        10.75933
     2022.53525         5.49200        10.68377
     2022.53798         4.18284        10.18174
     2022.54072         2.97269         9.91309
     2022.54347         8.84375        10.17334
     2022.54620        12.69437        10.19181
     2022.54893        10.81022        10.21364
     2022.55167        16.06006        10.05749
     2022.55441        14.39790         9.97857
     2022.55715        24.19175        10.20860
     2022.55989        12.42759        10.10114
     2022.56262         6.56543        10.04573
     2022.56536         0.72628        10.35300
     2022.56810         9.30112        10.11457
     2022.57084        15.10996        10.01383
     2022.57357        18.18881        10.20692
     2022.57631         8.75165        10.06252
     2022.57905         4.24650        10.37650
     2022.58179        21.82434        10.43191
     2022.58453        31.38218        10.65691
     2022.58726        13.10903         9.95506
     2022.59000        20.01387        10.34124
     2022.59274        14.03971        10.12801
     2022.59536         9.74690        10.56456
     2022.62123        25.48997        26.33920
     2022.62286        16.67999        10.07763
     2022.62559        18.69884        10.23211
     2022.62833        20.54368         9.91477
     2022.63107        19.93452        10.13976
     2022.63381        28.06837        10.00879
     2022.63655        26.44921        10.07092
     2022.63928         2.42405        10.04741
     2022.64202       -21.10110        10.43191
     2022.64476       -16.62426        14.65304
     2022.64750       -20.12242        10.14312
     2022.65023       -25.95057        10.26569
     2022.65297       -20.61873        10.14815
     2022.65571       -22.60689        10.09778
     2022.65845       -13.23704         9.86104
     2022.66119       -17.30020         9.96850
     2022.66392       -11.37035        10.37483
     2022.66666       -17.94051         9.90469
     2022.66940       -19.22767         9.65955
     2022.67214       -21.03782         9.74854
     2022.67488       -19.26198         9.76029
     2022.67761       -18.53714         9.87111
     2022.68035       -13.82940         9.88958
     2022.68311       -20.22301        11.47796
     2022.68583       -22.34961        11.01286
     2022.68856       -12.23176        10.14312
     2022.69130       -10.75492        10.77108
     2022.69402       -20.31352        11.02797
     2022.69680       -14.31979        10.62500
     2022.69952       -17.88639        10.50915
     2022.70225       -11.67654        11.21939
     2022.70499        -9.51270        10.45710
     2022.70773       -19.16686        11.03805
     2022.71047       -15.62101        11.52497
     2022.71321       -10.92317        10.53769
     2022.71594       -10.08133        10.23714
     2022.71868       -16.21548        10.51754
     2022.72142       -10.59564        10.07092
     2022.72416       -14.44480        10.25058
     2022.72689        -7.66295        11.63411
     2022.72963        -8.42011        11.06491
     2022.73238       -17.84315        10.33789
     2022.73511       -18.82642        10.29255
     2022.73785       -16.85047        10.88358
     2022.74058       -11.17973        10.99104
     2022.74332        -1.63989        10.46717
     2022.74606       -15.57205        11.19420
     2022.74880       -15.93320        10.93899
