# ================= DQRFIT RESULTS ================
# INPUT FILE: series/COBO.rad
# OUTPUT: LDETRENDED
# FILTER FUNCTION: f(t)
# f(t)=+line(t)+annual(t)
# line(t)=+P 1+P 2*t
# annual(t)=+P 3*sin(2*pi*t+P 4)
# heav(t)=(t<0?0:1)
# TOTAL OBSERVATIONS MTOT=  869
# INITIAL TIME INTERVAL= 2020.7556 - 2011.9571 =  8.7985
# TOTAL OBSERVATIONS AFTER PREFILTER M=  868
# TIME-SPAN= 2020.7556 - 2011.9571 =  8.7985
# OBSERVATIONS: USED M=   868 REJECTED MTOT-M=     1 %USED=   99.8849
# N=  4 PARAMETERS
# MAXSIG= 175.00000
# MAXRES=  28.36873
# SCALE FACTOR FOR LENGTHS: SCL=  10.00000
# SCALE FACTOR FOR SIGMAS: SCLSIG=   1.00000
# CHI^2=    887.113 DOF=   864 CHI^2/DOF=   1.02675
# RMS=      7.767 SDEV=      7.766 MEAN=   -0.29132
#  P #       PARAMETER +-    SIGMA %error PARAMETER NAME
# P 1 =      3397.75125 +-  151.323   4.45 YZERO                              
# P 2 =        -1.68579 +-    0.075   4.46 SLOPE                              
# P 3 =         4.34047 +-    0.382   8.81 ANNUAL AMPLITUDE                   
# P 4 =        -3.00558 +-    0.124   4.11 ANNUAL PHASE                       
#       T            LDETRENDED       SIG_OBS
     2011.95713        -0.57080        11.00025
     2011.95893         2.38223         5.98650
     2011.96167         2.33084         6.26009
     2011.96440         5.56746         6.38371
     2011.96714         0.87408         6.38067
     2011.96988         3.62169         6.06149
     2011.97262         0.40831         6.19727
     2011.97535         4.23592         6.12330
     2011.97809         0.54754         6.29860
     2011.98083        -0.65685         6.33305
     2011.98357         2.49777         6.13951
     2011.98631         1.55138         6.25502
     2011.98904         8.05300         6.22969
     2011.99178        13.14161         6.07669
     2011.99452        10.34323         6.28441
     2011.99726         6.82685         6.17599
     2012.00273         0.74308         6.14458
     2012.00547         6.88069         6.03615
     2012.00821         6.76131         6.06757
     2012.01095        -2.19008         6.13748
     2012.01368         2.01854         6.05237
     2012.01642        10.44915         6.09188
     2012.01916         7.78577         6.00575
     2012.02190         7.95538         6.13748
     2012.02464         4.99100         6.05135
     2012.02737        -0.24738         6.07567
     2012.03011         7.47223         6.22463
     2012.03285         0.57385         6.19929
     2012.03559         4.47346         6.02399
     2012.03833         5.79908         6.12836
     2012.04106        14.36769         6.00677
     2012.04380         5.51931         6.24590
     2012.04654        11.38992         6.14356
     2012.04928        15.58154         6.12938
     2012.05201         4.93915         6.05135
     2012.05475        10.20777         6.06351
     2012.05749         7.24439         5.94394
     2012.06023         0.59600         5.95509
     2012.06297        -4.97438         6.00373
     2012.06570         5.96823         6.06250
     2012.06844       -10.77215         6.16687
     2012.07118         2.71946         5.96522
     2012.07392        -3.79992         5.79296
     2012.07666         1.52569         5.95813
     2012.07939         3.20831         5.94394
     2012.08213         6.82292         6.01386
     2012.08487        11.76154         6.00373
     2012.08761        -3.25484         6.09087
     2012.09034        -1.60623         6.22463
     2012.09308         2.35339         6.00069
     2012.09582         4.12800         5.98853
     2012.09856        11.16462         5.99258
     2012.10130         2.61723         6.21855
     2012.10403         2.22785         6.20233
     2012.10677        -0.37954         6.07162
     2012.10951         4.35008         6.28238
     2012.11225         4.01669         6.17295
     2012.11498         2.95431         6.04831
     2012.11772         6.53093         6.09492
     2012.12046         3.99054         6.11620
     2012.12320         4.82616         6.11519
     2012.12485         6.67894        12.13513
     2012.14616       -18.90213        13.53144
     2012.14784        -6.64430         5.95306
     2012.15058         6.38931         5.97536
     2012.15331        -0.25207         5.98448
     2012.15605         1.53054         6.31278
     2012.15879         7.62616         6.32190
     2012.16153         4.77477         6.04527
     2012.16427        -1.48561         6.01994
     2012.16700        -1.45400         6.03615
     2012.16974        -3.91838         5.90341
     2012.17248        -1.26377         5.96624
     2012.17522        -8.00915         6.10202
     2012.17796        -1.67054         6.12330
     2012.18069        -1.20492         6.03514
     2012.18343        -7.32330         6.04527
     2012.18617        -3.34869         6.23881
     2012.18891        -6.72507         6.55597
     2012.19147        -0.15075         6.43944
     2012.19358       -17.60219         9.89779
     2012.19712        -3.46023         5.92571
     2012.19986        -0.38461         5.90949
     2012.20260         3.97100         5.90848
     2012.20533         5.44562         5.95914
     2012.20807         0.98723         5.84768
     2012.21081         4.57085         6.03007
     2012.21355        -2.50953         5.87909
     2012.21629        -3.98392         6.03413
     2012.21902       -11.34330         5.91355
     2012.22176       -11.51769         5.87403
     2012.22450        -5.13607         5.84160
     2012.22724        -2.55346         5.84566
     2012.22997         3.09016         6.05845
     2012.23271         3.98377         6.59346
     2012.23545         4.16639         6.02906
     2012.23819         9.87100         5.93077
     2012.24093         4.10062         5.86997
     2012.24366         2.58624         6.00170
     2012.24640         5.52585         5.90240
     2012.24914        -0.02553         5.92165
     2012.25188        -8.50392         6.03818
     2012.25462        -2.90730         6.01893
     2012.25735        -2.52569         5.83856
     2012.26009        -3.90707         5.91456
     2012.26283        -7.82446         6.03717
     2012.26557        -1.27284         6.40702
     2012.26830        -3.43223         6.03615
     2012.27104        -7.03761         6.16889
     2012.27378         5.51601         6.09188
     2012.27635        -0.18567         6.94203
     2012.27857       -15.77292         9.43675
     2012.28120        -2.23149         9.67588
     2012.28473        -6.38753         6.06554
     2012.28747       -14.05892         6.11823
     2012.29021        -2.81630         5.98144
     2012.29295        -9.83069         6.22057
     2012.29568       -10.36607         6.10100
     2012.29842        -4.94346         6.28137
     2012.30116       -11.05184         6.08580
     2012.30390        -6.18222         6.07061
     2012.30663        -3.50561         6.08378
     2012.30937        -3.68799         6.01893
     2012.31211        -1.01538         6.12127
     2012.31485        12.18524         6.06250
     2012.31759        -3.29815         6.05946
     2012.32032        -4.48053         6.02703
     2012.32306        -8.35592         6.00373
     2012.32580        -6.26130         6.19321
     2012.32854        -5.14969         6.14863
     2012.33128        -1.41907         6.16180
     2012.33401        -5.83745         6.09188
     2012.33675        -3.14184         5.94800
     2012.33949        -7.72522         5.93989
     2012.34223        -2.18661         6.50835
     2012.34496       -14.82299         5.96117
     2012.34770        -4.68038         6.46781
     2012.35050        -0.80367         6.16991
     2012.35295        -9.51153         6.84172
     2012.35500        -0.84307        11.69131
     2012.35774        -6.94945        11.18365
     2012.36139        -0.95730         5.99968
     2012.36413        -2.82768         6.00575
     2012.36687         1.61193         6.09087
     2012.36961         0.85955         5.99461
     2012.37234        -1.54684         6.17193
     2012.37508        -7.85222         6.13748
     2012.37782        -5.53161         6.23881
     2012.38056        -6.43299         6.21348
     2012.38329         2.37062         6.35230
     2012.38603        -5.76776         6.17193
     2012.38877        -6.05915         6.31582
     2012.39151        -4.03253         6.06858
     2012.39425        -6.56491         6.21551
     2012.39698        -5.28830         6.04933
     2012.39972        -8.51168         5.96826
     2012.40246         0.54293         6.00879
     2012.40520        -5.83445         6.00981
     2012.40794        -8.92384         5.98549
     2012.41067        -3.39123         6.14863
     2012.41342       -12.72160         6.17295
     2012.41615         5.89201         6.12938
     2012.41889        -3.21738         6.28745
     2012.42162         3.72024         6.94102
     2012.42448        -0.63695         6.37966
     2012.42693       -13.63582         6.50936
     2012.45448        -6.40438         7.62195
     2012.45722       -12.42476         7.73341
     2012.45995       -10.51514         7.52366
     2012.46269        -9.60653         8.31504
     2012.46543        -7.79591         7.90770
     2012.46817        -5.03830         7.63816
     2012.47091        -1.28868         7.60067
     2012.47364       -14.17307         7.88743
     2012.47638       -10.17445         7.70808
     2012.47912         0.56216         7.52873
     2012.48186       -16.82522         7.74557
     2012.48459        -4.29661         7.59256
     2012.49387         2.66603        15.69582
     2012.49555        -8.00314         7.59560
     2012.49828       -11.70653         7.71517
     2012.50102        -4.00491         7.44462
     2012.50376        -0.23530         7.57635
     2012.50650        -9.70868         7.69795
     2012.50924        -4.11007         7.60472
     2012.51197        -9.64945         7.81346
     2012.51471       -12.30484         7.69491
     2012.51745        -2.33922         7.68579
     2012.52019        -4.99560         7.75266
     2012.52292       -14.76099         7.75266
     2012.52566         1.53563         7.71618
     2012.52840        -8.07776         7.63411
     2012.53114         1.18386         7.60371
     2012.53388         0.51947         8.86424
     2012.53659        -4.61294         8.03334
     2012.53947         6.44790         7.99281
     2012.54209        -2.15268         7.80941
     2012.54483        -0.07307         7.61587
     2012.54757        -3.14045         7.52163
     2012.55030        -3.56283         7.80738
     2012.55304        -7.05522         7.71821
     2012.55578         0.74540         7.70504
     2012.55852        -5.17999         7.46894
     2012.56125         1.59963         7.62701
     2012.56399         5.95724         7.65640
     2012.56673         0.08086         7.56014
     2012.56947        -3.33753         7.69288
     2012.57221        -3.26491         7.48009
     2012.57494         3.20170         7.56419
     2012.57768         1.76032         7.63411
     2012.58042         2.59894         7.69693
     2012.58316        -6.08845         7.70098
     2012.58584        -3.76493         7.80130
     2012.58863        -2.28922         7.74456
     2012.59137         2.94640         7.63512
     2012.59411         5.43601         7.74456
     2012.59685        12.28063         7.80941
     2012.59958         6.43624         7.68680
     2012.60238         9.50695         9.66575
     2012.60506        -1.88453         7.52265
     2012.60780        -1.97691         7.69997
     2012.61054         4.70171         7.65437
     2012.61327         3.16232         7.57230
     2012.61601         9.81294         7.46590
     2012.61875        -3.08145         7.58851
     2012.62149         6.40617         7.58648
     2012.62423         9.02078         7.59459
     2012.62696        -1.27260         7.67059
     2012.62970        -5.61199         7.72936
     2012.63244         0.14163         7.79421
     2012.63518         0.47624         7.65741
     2012.63791        -2.02314         7.77901
     2012.64065         4.24748         9.36379
     2012.64339         5.99509         7.72125
     2012.64613         7.32671         7.59763
     2012.64887         8.83032         7.38180
     2012.65160        14.15894         7.59560
     2012.65428       -12.51154        11.66091
     2012.65714         7.60426        11.73488
     2012.65982        10.49678         8.53593
     2012.66256         7.76740         7.50441
     2012.66529        13.22601         7.47806
     2012.66803        -1.88537         7.47300
     2012.67077         7.40024         7.61688
     2012.67351         2.48586         7.58648
     2012.67624        -4.42752         7.33417
     2012.67898        11.59709         7.28554
     2012.68172        15.96271         7.55102
     2012.68446         4.72432         7.58243
     2012.68720         3.94294         7.64120
     2012.68993         5.24455        10.78341
     2012.69267        -0.02783         9.94846
     2012.69541         5.66978         7.54190
     2012.69815        12.95240         7.63107
     2012.70089         1.31901         7.75165
     2012.70362         4.59863         7.59966
     2012.70636         8.44825         7.49529
     2012.70910         0.45586         7.39396
     2012.71184        11.89348         7.40105
     2012.71457        11.87509         7.46692
     2012.71731        13.53371         7.48617
     2012.72005         7.09332         7.53987
     2012.72279         7.22894         7.45273
     2012.72553         7.36555         7.37268
     2012.72826        18.07517         7.48819
     2012.73100         8.46978         7.58851
     2012.73374         5.54240         7.96241
     2012.73648         8.07702         7.55912
     2012.73921         3.29663         7.63411
     2012.74195         8.02325         7.56520
     2012.74469         9.09086         7.47806
     2012.74669         3.77023        11.37517
     2012.75108        -8.21337        14.90749
     2012.75290         7.83871         7.59864
     2012.75564         6.20732         7.49529
     2012.75838        13.84494         7.36356
     2012.76112         7.60255         7.50339
     2012.76386        12.14717         7.52366
     2012.76659        12.28579         7.61182
     2012.76933        13.90040         7.49731
     2012.77207        17.30302         7.34735
     2012.77481        15.61163         7.42942
     2012.77754         6.84225         7.55102
     2012.78028        -1.34714         7.65133
     2012.78302         2.83648         7.65539
     2012.78576         2.75809         7.50643
     2012.78850         7.80371         7.62296
     2012.79123         5.52832         7.90567
     2012.79397         3.39794         7.48009
     2012.79671         6.75756         7.61283
     2012.79945         4.98317         7.78407
     2012.80219         5.36379         7.69997
     2012.80492        12.33740         7.34735
     2012.80766         4.96202         7.54595
     2012.81040         6.21363         7.60574
     2012.81314        -3.06875         7.61587
     2012.81587        -3.48614         7.58040
     2012.81861        -2.10652         7.55203
     2012.82135         5.41109         7.44260
     2012.82409       -10.66229         7.83170
     2012.82683        -5.97967         7.61283
     2012.82956        -3.52906         7.68173
     2012.83230        -2.37644         7.44361
     2012.83504        -1.57783         7.86818
     2012.83778         3.66679         7.49630
     2012.84052         1.27040         7.62701
     2012.84325        -2.39098         9.42459
     2012.84599        -7.96237         7.59358
     2012.84873        -1.14575         7.56520
     2012.85147        -0.97614         7.92188
     2012.85420        -1.25452         7.59054
     2012.85694        -2.25490         7.69896
     2012.85968        -4.06229         7.62398
     2012.86242        -7.13167         7.74050
     2012.86516        15.18694         7.44665
     2012.86789         6.69556         7.80941
     2012.87063        -3.90683         7.55304
     2012.87337        -3.29221         7.59459
     2012.87611        -4.40460         7.64221
     2012.87885         2.99702         7.50542
     2012.88158        -3.16237         7.56723
     2012.88432        16.20125         7.47502
     2012.88706        -0.27813         7.97457
     2012.88980        -0.21152         7.74557
     2012.89253         0.73610         7.54899
     2012.89527         2.57971         7.51049
     2012.89801        -2.86467         7.69693
     2012.90075        -8.51606         7.50745
     2012.90349       -10.20044         7.62701
     2012.90622        -3.93883         7.67869
     2012.90896         5.06179         7.53177
     2012.91170         6.79840         7.45678
     2012.91444        -0.07398         7.61790
     2012.91718         3.18463         7.53886
     2012.91991        -6.85875         7.55102
     2012.92265        -6.62413         7.53379
     2012.92539        -0.10252         7.81853
     2012.92813         0.07410         7.54697
     2012.93086        -9.11829         7.85298
     2012.93360        -3.74267         7.64221
     2012.93634       -10.42006         7.59459
     2012.93908        -7.55144         7.65437
     2012.94182         2.88217         7.43652
     2012.94455         6.20779         7.33316
     2012.94729         1.76740         7.56115
     2012.95003         0.82702         7.68477
     2012.95277         8.12664         7.44260
     2012.95551        10.26425         7.46489
     2012.95824         6.32587         7.51555
     2012.96098         1.60248         7.76685
     2012.96372        11.44410         7.75570
     2012.96646         4.62371         7.43348
     2012.96919        -2.15067         7.47705
     2012.97193         4.26994         7.61080
     2012.97467        -1.78744         7.52366
     2012.97741         3.68017         7.54393
     2012.98015        -4.96021         7.46185
     2012.98288        -0.09859         7.36356
     2012.98562         1.31002         7.42638
     2012.98836         1.84664         7.47097
     2012.99110         7.87525         7.58952
     2012.99384         0.22087         7.40207
     2012.99657         0.16048         7.46590
     2012.99931       -13.77090         7.42942
     2013.00205         1.41971         7.46489
     2013.44558       -13.88458         7.62499
     2013.44832       -17.08297         7.65640
     2013.45106        -8.04235         7.48617
     2013.45379        -5.53674         7.52670
     2013.45653        -0.17112         7.39903
     2013.45927       -21.86751         7.71922
     2013.46201        -3.21189         7.58142
     2013.46475        -8.47528         7.65741
     2013.46748        -4.69366         7.50238
     2013.47022        -9.89105         7.49225
     2013.47296       -12.08543         7.51859
     2013.47570       -14.13681         7.51961
     2013.47843        -2.63720         7.80941
     2013.48117        -1.84858         7.54393
     2013.48391        -9.17097         7.49225
     2013.48665        -6.05035         7.46894
     2013.48939        -7.92174         7.39801
     2013.49212        -7.35212         7.48110
     2013.49486       -10.31251         7.53683
     2013.49760        -3.35389         7.65032
     2013.50034         3.69772         7.45070
     2013.50308         2.93134         7.46084
     2013.50581        -0.06404         7.45577
     2013.50855        -3.41043         7.48009
     2013.51129         3.20019         7.34633
     2013.51403        -3.95620         7.43652
     2013.51676        -5.00158         7.43652
     2013.51950        -6.43997         7.36761
     2013.52224         1.32465         7.36559
     2013.52498         2.46226         7.69592
     2013.52772         6.71388         7.44665
     2013.53045         6.40449         7.45881
     2013.53319        -3.30389         7.50238
     2013.53593         9.68673         7.45577
     2013.53867       -17.15666        10.15010
     2013.54141         8.37196         7.69997
     2013.54414         1.47857         7.35647
     2013.54688         4.71219         7.44766
     2013.54962         7.16080         7.35849
     2013.55236         6.23442         7.46590
     2013.55509         4.44203         7.37572
     2013.55783         4.18065         7.88338
     2013.56057         1.38226         7.58547
     2013.56331         6.58488         7.47806
     2013.56605         3.40950         7.45881
     2013.56878         0.12511         7.39801
     2013.57152        10.41273         7.34836
     2013.57426        15.34234         7.42740
     2013.57700         8.27496         7.56723
     2013.57974         0.56957         7.49833
     2013.58247         7.40919         7.37369
     2013.58521        13.50780         7.33113
     2013.58795         6.79242         7.55912
     2013.59069         2.05903         7.48921
     2013.59342        10.83165         7.36761
     2013.59616         8.04227         7.42436
     2013.59890         5.98988         7.46996
     2013.60164         8.00850         7.62195
     2013.60438         8.29511         7.47300
     2013.60711        -1.33927         7.72936
     2013.60985        11.91434         7.42537
     2013.61259         7.05396         7.36153
     2013.61533        12.08657         7.59256
     2013.61807         2.82719         7.62296
     2013.62080         7.42980         7.56318
     2013.62263        10.06488        12.97008
     2013.63275         7.11094        16.94825
     2013.63449        -4.25312         7.80839
     2013.63723         8.70050         7.49731
     2013.63997        23.36111         8.69705
     2013.64271        14.78373         7.36660
     2013.64544         4.37334         7.54494
     2013.64818         4.65296         7.57027
     2013.65092         5.09057         7.59966
     2013.65366        10.18919         7.55912
     2013.65639        17.09880         7.41017
     2013.65913         9.09842         7.79725
     2013.66187         0.34204         7.45070
     2013.66461         5.65865         7.45678
     2013.66735        10.78927         7.59560
     2013.67008        15.91588         7.40409
     2013.67282         5.08150         7.67667
     2013.67556         7.75011         7.50846
     2013.67830         2.81573         7.37673
     2013.68104         1.96234         7.53379
     2013.68377        10.16096         7.45577
     2013.68651        -3.16143         7.38788
     2013.68925        12.59819         7.56622
     2013.69199        20.25481         7.41422
     2013.69472         5.28342         7.47300
     2013.69746         4.32404         7.53177
     2013.70020        16.63665         7.47502
     2013.70294        12.33927         7.42841
     2013.70568        16.59888         7.49123
     2013.70841         1.96150         7.34431
     2013.71115        -6.43989         7.50846
     2013.71389         1.08573         7.37369
     2013.71663         6.84234         7.50745
     2013.71937         4.22696         7.63816
     2013.72210        10.72958         7.44361
     2013.72484        14.67019         7.49630
     2013.72758        -5.02719         7.56216
     2013.73032         4.00242         7.64019
     2013.73305         9.19804         7.34329
     2013.73579        -1.52735         7.41828
     2013.73853        13.47227         7.41422
     2013.74127        -3.40012         7.57635
     2013.74401       -10.37250         7.79421
     2013.74674         7.42711         7.80637
     2013.74948       -11.25627         7.67160
     2013.75222        -1.05565         7.42841
     2013.75496        -9.38704         7.39193
     2013.75770        -8.81842         7.52467
     2013.76043        -9.49081         7.47198
     2013.76317        -5.04219         7.49022
     2013.76591         2.21442         8.05969
     2013.76865        -3.13696         7.48009
     2013.77138        -6.74635         7.59358
     2013.77412         9.03927         7.39497
     2013.77686        -3.69612         7.44057
     2013.77960         2.45750         7.39801
     2013.78234        -6.51288         7.33215
     2013.78507        -5.88327         7.33519
     2013.78781        -6.55765         7.36761
     2013.79055       -10.20504         7.42942
     2013.79329        -1.17742         7.39700
     2013.79603         2.64619         7.29871
     2013.79876         5.51981         7.33924
     2013.80150         1.37042         7.45172
     2013.80424         3.06704         7.40916
     2013.80698         4.01865         7.40814
     2013.80971         9.08427         7.41118
     2013.81245         9.84589         7.30884
     2013.81519         8.48450         7.26223
     2013.81793        -0.89388         7.32100
     2013.82067        -1.59327         7.89250
     2013.82340        -1.70465         7.50441
     2013.82614         3.79296         7.41929
     2013.82888         7.99158         7.45678
     2013.83162        -2.73481         7.44868
     2013.83436        -1.31219         7.56115
     2013.83709         1.02042         7.54190
     2013.83983        -7.92196         7.92391
     2013.84257         3.31566         7.33519
     2013.84531       -16.46773         7.57736
     2013.84804        -2.91111         7.77293
     2013.85078         0.65050         7.44057
     2013.85352        -7.48288         7.45577
     2013.85626        -2.17227         7.39497
     2013.85900        -6.73965         7.43145
     2013.86173        -3.74604         7.40916
     2013.86447       -11.52942         7.43956
     2013.86721        -3.24481         7.47097
     2013.86995        -2.07419         7.41422
     2013.87269        -0.46957         7.43956
     2013.87542        -1.56296         7.53379
     2013.87816         2.32666         7.38889
     2013.88090         9.82927         7.47806
     2013.88364         4.88689         7.75266
     2013.88637         2.50150         7.59763
     2013.88911        -6.06988         7.35951
     2013.89185        -8.66327         7.37167
     2013.89459       -12.76465         7.30175
     2013.89733        -7.59104         7.84487
     2013.90006        -7.56642         7.42942
     2013.90280        -5.44781         7.39700
     2013.90554        -6.01719         7.53379
     2013.90828        -4.20357         7.44158
     2013.91102        -8.03696         7.32506
     2013.91375        -7.18634         7.33316
     2013.91649        -6.84573         7.33417
     2013.91923        -2.33511         7.54899
     2013.92197        -0.22050         7.73341
     2013.92470        -7.67488         7.36660
     2013.92744        -7.66127         7.38180
     2013.93018        -5.10865         7.21663
     2013.93292        -0.60104         7.22474
     2013.93566        -6.79742         7.37673
     2013.93839       -13.20980         7.33417
     2013.94113        -6.20619         7.29770
     2013.94387        -2.35557         7.26324
     2013.94661        -2.10596         7.38281
     2013.94935         2.57366         7.26628
     2013.95208         2.42227         7.41017
     2013.95482       -14.46611         7.50238
     2013.95756       -10.01750         7.33113
     2013.96030       -10.52688         7.37268
     2013.96303         0.60773         7.51657
     2013.96577         0.81735         7.43145
     2013.96851        -6.54403         7.50035
     2013.97125        -0.33242         7.41321
     2013.97399       -14.79480         7.51251
     2013.97672       -13.11819         7.38281
     2013.97946       -10.98157         7.41422
     2013.98220        -6.54396         7.45070
     2013.98494        -9.59834         7.52670
     2013.98767       -13.07673         7.52771
     2013.99041       -14.88311         7.48921
     2013.99315       -14.91250         7.45374
     2013.99589        -5.16388         7.38687
     2013.99863       -11.27626         7.41017
     2019.69609         0.56748         7.92492
     2019.69883         1.06209         8.33834
     2019.70157         6.16671         7.61790
     2019.70431         4.91032         7.92087
     2019.70705         0.33894         7.91479
     2019.70978        12.17055         7.97964
     2019.71252         3.48917         8.02929
     2019.71526         3.24778         7.69288
     2019.71800        -1.48760         8.16608
     2019.72073        -0.03599         8.10833
     2019.72347         8.66663         7.74861
     2019.72621        14.25225         7.84690
     2019.72895        14.68986         7.81954
     2019.73169         8.49548         7.52771
     2019.73442         1.51709         7.93505
     2019.73716         9.15971         7.86919
     2019.73990         7.01532         8.05361
     2019.74264         1.44194         7.86818
     2019.74538         1.35755         8.04550
     2019.74811         3.84317         7.72328
     2019.75085        10.02678         7.78509
     2019.75359         4.34940         8.15291
     2019.75633         4.27002         7.98572
     2019.75906       -11.25937         8.08705
     2019.76180        -5.63975         7.63208
     2019.76454         2.91386         7.72328
     2019.76728        -7.85552         7.85196
     2019.77002         7.70409         7.76584
     2019.77275        -9.07029         7.93708
     2019.77549         2.33832         7.92796
     2019.77823         7.11394         7.71720
     2019.78097        12.28655         7.66856
     2019.78371         2.28317         7.79117
     2019.78644         2.57379         7.78407
     2019.78918         8.98640         8.02726
     2019.79192        -0.08398         7.74456
     2019.79466        20.40963         7.67464
     2019.79739        12.69225         7.73645
     2019.80013         1.49286         7.63208
     2019.80287         1.48448         7.77293
     2019.80561       -11.39091         8.05057
     2019.80835        -3.02329         7.62904
     2019.81108         2.75832         7.62398
     2019.81382        -1.44506         8.11542
     2019.81656         2.07456         7.57635
     2019.81930        -1.50483         7.48110
     2019.82203        -5.90421         7.59763
     2019.82477         0.82240         7.64019
     2019.82751        -1.96798         7.71314
     2019.83025         1.34163         7.81143
     2019.83299         6.10425         7.75368
     2019.83572        -7.26914         7.41828
     2019.83846         5.82948         7.47401
     2019.84120         5.21009         7.76482
     2019.84394         1.65571         8.00598
     2019.84668        -5.07567         7.75976
     2019.84941        -0.73206         7.74354
     2019.85215         1.72756         7.58446
     2019.85489         2.19117         7.67971
     2019.85763        -0.84721         7.64627
     2019.86036         0.10440         7.64424
     2019.86310        -7.53898         7.75570
     2019.86584         7.61363         7.86007
     2019.86858         5.97525         7.75874
     2019.87132        -0.15814         7.68680
     2019.87405        -1.21752         7.67869
     2019.87679       -10.75791         9.22193
     2019.87953        13.40871         7.84082
     2019.88227        13.65533         8.08705
     2019.88501         7.35994         7.54089
     2019.88774         3.67056         7.97457
     2019.89048         9.82417         7.60067
     2019.89322        12.50379         7.64120
     2019.89596         2.38540         7.89756
     2019.89869        -4.86898         7.76685
     2019.90143         0.94563         7.62195
     2019.90417        -0.73075         7.61486
     2019.90691         0.28486         7.50846
     2019.90965         3.02248         7.68579
     2019.91238         1.17910         7.70098
     2019.91512         6.51371         7.74050
     2019.91786        14.16533         7.61182
     2019.92060        -0.17106         7.68680
     2019.92334         9.75256         7.56622
     2019.92607         6.18117         7.65437
     2019.92881         0.77879         7.61790
     2019.93155        10.04740         7.64627
     2019.93429         4.45902         7.56723
     2019.93702         1.65763         7.53075
     2019.93976        13.90025         7.88946
     2019.94250        -6.43513         7.84589
     2019.94524        -4.64052         7.76381
     2019.94798        -3.31890         7.56419
     2019.95071         1.32971         7.92999
     2019.95345         2.04233         7.53785
     2019.95619        12.91894         7.71517
     2019.95893         1.27256         7.66147
     2019.96167        -4.06283         7.58750
     2019.96440        -0.71921         7.89655
     2019.96714        15.03440         7.79319
     2019.96988        -3.75198         7.73544
     2019.97262        -1.24236         7.70402
     2019.97535        -1.55275         7.70909
     2019.97809        -2.60713         7.70402
     2019.98083        -6.52152         7.62803
     2019.98357        -3.98290         7.54190
     2019.98631        -5.08929         7.71314
     2019.98904        -8.48867         7.73138
     2019.99178         2.87294         7.78610
     2019.99452         8.00956         7.82055
     2019.99726         3.95617         7.70200
     2020.00000         4.65879         7.59662
     2020.00273        -2.58859         7.64931
     2020.00547        -4.83098         8.15392
     2020.00821        -2.09436         7.91783
     2020.01095         1.56625         7.82663
     2020.01368       -10.29813         7.67363
     2020.01642        -2.16052         7.76584
     2020.01916        -2.03290         7.53886
     2020.02190        -8.13429         7.81954
     2020.02464        -2.44867         7.89554
     2020.02737        -7.49706         7.56520
     2020.03011        -9.83944         7.51251
     2020.03285       -10.62482         7.44564
     2020.03559        -6.22521         7.42638
     2020.03833         1.21641         7.38079
     2020.04106        -0.03798         7.66248
     2020.04380        -3.69436         7.66957
     2020.04654        -6.13475         7.45982
     2020.04928        -9.65913         7.38079
     2020.05201        -8.47652         7.43753
     2020.05475        -4.68990         7.63107
     2020.05749         6.58371         7.35444
     2020.06023        -5.29767         7.65640
     2020.06297        -3.88905         7.53785
     2020.06570        -8.38044         7.58750
     2020.06844         0.09718         7.49123
     2020.07118        12.49579         7.52366
     2020.07392        -0.95359         7.68275
     2020.07666        -1.52898         7.49731
     2020.07939        -6.46336         7.44462
     2020.08213        -7.50575         7.48414
     2020.08487         0.37387         7.59155
     2020.08761        -1.51552         7.35545
     2020.09034        -2.24490         7.36457
     2020.09308        -0.16728         7.45273
     2020.09582       -12.47167         7.42233
     2020.09856         5.44995         7.45172
     2020.10130       -10.48044         7.39193
     2020.10403        -5.39682         7.49326
     2020.10677        -3.96421         7.40207
     2020.10951       -12.53259         7.38281
     2020.11225        -9.23298         7.45070
     2020.11498        -8.45036         7.64323
     2020.11772       -11.86775         7.69085
     2020.12046        -5.47513         7.65640
     2020.12320       -14.06152         7.47705
     2020.12594        -6.18090         7.50947
     2020.12867       -13.87328         7.52366
     2020.13141       -15.36667         7.37065
     2020.13415        -8.20705         7.48718
     2020.13689         3.02256         7.62701
     2020.13963        -0.87282         8.02321
     2020.14236        -0.58921         7.46692
     2020.14510        -6.96259         7.72429
     2020.14784       -17.12598         7.40814
     2020.15058       -19.67336         7.70605
     2020.15331        -3.52675         7.52265
     2020.15605       -17.94413         7.51555
     2020.15879       -13.29451         7.56318
     2020.16153       -16.75990         7.44969
     2020.16427        -5.09028         7.36863
     2020.16700        -4.53967         7.47401
     2020.16974       -11.51905         7.54393
     2020.17248        -8.39144         7.45374
     2020.17522        -8.59282         7.40916
     2020.17796       -10.08121         7.48921
     2020.18069        -6.37459         7.49225
     2020.18343        -4.04998         7.39092
     2020.18583       -11.06694         8.80851
     2020.41987       -61.91339        17.05363
     2020.42162       -19.79743         8.30389
     2020.42436       -12.96982         8.81357
     2020.42710         2.96480         8.55417
     2020.42984         0.41241         8.79838
     2020.43258        -2.41697         8.60180
     2020.43531        -7.44735         8.34138
     2020.43805        -8.25474         8.51871
     2020.44079       -14.96112         8.51465
     2020.44353         1.10549         8.56937
     2020.44626        -8.14289         8.21168
     2020.44900         0.79572         8.64841
     2020.45174         6.06034         8.47108
     2020.45448         4.10295         8.32922
     2020.45722       -14.59843         8.39407
     2020.45995        -6.08282         8.15392
     2020.46269        -7.46120         8.33429
     2020.46543       -19.14958         8.41029
     2020.46817        -2.56197         8.59065
     2020.47091        -0.26135         8.43055
     2020.47364        -5.72974         8.66766
     2020.47638        -1.59912         8.37279
     2020.47912        10.46549         8.31098
     2020.48186        -5.63389         8.36570
     2020.48459       -18.56228         8.56532
     2020.48733        -5.95066         8.67171
     2020.49007         8.96395         8.32517
     2020.49281         7.17457         8.37279
     2020.49555         5.52119         8.60180
     2020.49828         6.18780         8.22485
     2020.50102         1.96942         8.26032
     2020.50376         8.47803         8.13265
     2020.50650        -0.26135         8.25627
     2020.50924        12.32926         8.15392
     2020.51197        -0.77112         8.48020
     2020.51471         5.16249         8.27349
     2020.51745        -4.20589         8.17824
     2020.52019        26.01472         8.26133
     2020.52292        16.48334         8.06678
     2020.52566        13.66396         8.43258
     2020.52840        24.10357         8.45284
     2020.53114         1.58219         8.23093
     2020.53388        11.06780         8.11745
     2020.53661        13.83242         8.40015
     2020.53935         8.88903         8.34138
     2020.54209        24.28165         8.23600
     2020.54483         0.80426         8.34746
     2020.54757        -0.89012         8.19446
     2020.55030        14.39549         8.17926
     2020.55304        10.71011         8.39813
     2020.55578         8.05873         8.59774
     2020.55852        15.02334         8.56025
     2020.56125         1.17496         8.28261
     2020.56399         8.37757         7.97356
     2020.56673         7.08019         7.90364
     2020.56947         7.28680         8.14075
     2020.57221        11.03642         8.34442
     2020.57494         9.85003         8.21168
     2020.57768         9.02565         8.31504
     2020.58042         5.39526         8.22688
     2020.58316         6.63988         8.22587
     2020.58590         7.00850         8.16811
     2020.58863        14.95711         8.27147
     2020.59137        -0.43027         8.45183
     2020.59411        17.31834         8.13265
     2020.59685        10.73596         8.42346
     2020.59958         7.15557         8.22992
     2020.60232        23.96219         7.97761
     2020.60506        13.44780         8.17622
     2020.60780        10.62642         8.01510
     2020.61054        10.31803         8.20560
     2020.61327         2.67565         8.46298
     2020.61601        13.33326         8.29274
     2020.61875        13.79888         8.09819
     2020.62109       -11.35418         9.57962
     2020.62696         4.65573         8.27451
     2020.62970        -6.27766         8.38090
     2020.63244         3.77196         8.22891
     2020.63518        13.31457         8.48223
     2020.63791        -2.73381         9.09426
     2020.64065         1.11280         8.25728
     2020.64339        20.84942         8.23701
     2020.64613        13.25403         8.12859
     2020.64887        15.36865         8.27451
     2020.65160         7.76327         8.15392
     2020.65434         7.05488         8.04348
     2020.65708        19.24750         8.01510
     2020.65982         7.68811         8.18838
     2020.66256         1.46173         8.11643
     2020.66529        15.38034         8.30794
     2020.66803         3.09695         8.43055
     2020.67078        25.65860         7.94620
     2020.67351        21.21019         8.04449
     2020.67624         1.84080         8.40927
     2020.67898        10.20742         8.10731
     2020.68172         5.17904         8.18838
     2020.68446        21.31765         8.26336
     2020.68720        32.56527        10.22306
     2020.69267        30.64850         8.41738
     2020.69541         7.61311         8.63524
     2020.69815        10.43073         8.46196
     2020.70089        20.31834         8.20864
     2020.70362         7.93996         8.60686
     2020.70636        14.61157         8.63017
     2020.70910       -10.70081         8.98381
     2020.71184        21.32781         8.30997
     2020.71457         6.55242         8.65652
     2020.71731        16.37504         8.17824
     2020.72005         7.63465         8.24917
     2020.72279         0.57827         8.40421
     2020.72553         3.49488         8.38698
     2020.72826         6.01450         8.53796
     2020.73100        10.67311         8.65449
     2020.73374         5.14173         8.18331
     2020.73648         2.68934         8.36570
     2020.73921       -13.05404         8.12555
     2020.74195         9.22358         9.74681
     2020.74469         3.23919         7.97660
     2020.74743        10.00981         8.03030
     2020.75017         4.27642         8.06070
     2020.75290        -9.20896         8.20763
     2020.75564       -10.83335         8.09921
