# ================= DQRFIT RESULTS ================
# INPUT FILE: series/COND.rad
# OUTPUT: LDETRENDED
# FILTER FUNCTION: f(t)
# f(t)=+line(t)+annual(t)
# line(t)=+P 1+P 2*t
# annual(t)=+P 3*sin(2*pi*t+P 4)
# heav(t)=(t<0?0:1)
# TOTAL OBSERVATIONS MTOT= 3798
# INITIAL TIME INTERVAL= 2022.7488 - 2011.8718 = 10.8770
# TOTAL OBSERVATIONS AFTER PREFILTER M= 3794
# TIME-SPAN= 2022.7488 - 2011.8718 = 10.8770
# OBSERVATIONS: USED M=  3794 REJECTED MTOT-M=     4 %USED=   99.8947
# N=  4 PARAMETERS
# MAXSIG= 175.00000
# MAXRES=  33.21498
# SCALE FACTOR FOR LENGTHS: SCL=  10.00000
# SCALE FACTOR FOR SIGMAS: SCLSIG=   1.00000
# CHI^2=   2758.084 DOF=  3790 CHI^2/DOF=   0.72773
# RMS=      4.844 SDEV=      4.844 MEAN=    0.01231
#  P #       PARAMETER +-    SIGMA %error PARAMETER NAME
# P 1 =      3366.12014 +-   50.190   1.49 YZERO                              
# P 2 =        -1.67032 +-    0.025   1.49 SLOPE                              
# P 3 =         4.32015 +-    0.108   2.51 ANNUAL AMPLITUDE                   
# P 4 =        -2.88889 +-    0.034   1.19 ANNUAL PHASE                       
#       T            LDETRENDED       SIG_OBS
     2011.87177         0.73699         5.80684
     2011.87405        -4.28020         4.66629
     2011.87953         2.74595         4.76610
     2011.88227        -0.53548         4.68847
     2011.88501        -0.25990         4.70468
     2011.88774        -5.99233         4.71321
     2011.89048        -2.05076         4.75074
     2011.89322         2.01782         4.74733
     2011.89869         1.86096         4.77036
     2011.90143        -2.16647         4.82069
     2011.90417        -5.60389         4.71321
     2011.90691        -3.58232         4.75842
     2011.90965        -3.13075         4.69444
     2011.91238         1.76383         4.82410
     2011.91786         1.04097         4.97339
     2011.92060        -8.41145         4.72856
     2011.92607        -9.68731         5.01519
     2011.92881        -4.54573         4.91624
     2011.93155        -0.51216         4.82410
     2011.93702        -1.86502         4.74477
     2011.93976        -3.95144         4.77377
     2011.94250         0.69513         4.73197
     2011.94524        -0.93230         4.71918
     2011.94798         1.26228         4.73197
     2011.95071        -1.21915         4.66458
     2012.02863        -5.37901        16.28423
     2012.03182        -1.18567        19.06183
     2012.03559        -1.08538         4.86335
     2012.03833         0.25519         4.81302
     2012.04106         5.14376         4.78060
     2012.04380        -0.38467         4.89150
     2012.04654         0.00991         5.00922
     2012.05201        -4.21095         4.94865
     2012.05475         5.63763         5.17642
     2012.05749         1.82720         4.90259
     2012.06023        -4.10823         4.96571
     2012.06297        -0.18565         4.93074
     2012.06570        -6.15408         4.66714
     2012.07118        -5.39093         4.56989
     2012.07392        -3.39536         4.58780
     2012.07666         0.52521         4.62619
     2012.07939         2.43679         4.65605
     2012.08213         3.94036         4.55368
     2012.08458         2.03245         5.15339
     2012.09034        -4.18792         4.60572
     2012.09308        -5.15435         4.61766
     2012.09582        -5.77578         4.73197
     2012.09856        -2.76620         4.58439
     2012.10130        -8.03363         4.67994
     2012.10392        -9.61025         4.74733
     2012.10951        -8.03391         4.73368
     2012.11225        -6.11334         4.96401
     2012.11498        -1.00776         4.61510
     2012.11772         1.16081         4.61169
     2012.12046         0.80938         4.64411
     2012.12320         0.61095         4.64667
     2012.12867        -5.62590         4.83946
     2012.13141        -9.91333         4.77036
     2012.13415        -1.22675         4.63472
     2012.13689        -4.97318         4.67652
     2012.13963         3.92639         4.84884
     2012.14236        -5.51103         4.93927
     2012.14784        -8.39289         4.55283
     2012.15058        -1.35331         4.61425
     2012.15331        -5.76174         4.58525
     2012.15600        -4.84826         4.81216
     2012.15828        -7.71445         6.08835
     2012.16153         2.16998         4.62363
     2012.16700        -5.92988         4.66714
     2012.16974        -2.02230         4.61852
     2012.17248       -11.74473         4.62193
     2012.17522        -4.30216         4.74648
     2012.17796         0.09442         4.61510
     2012.18069        -5.67001         4.58183
     2012.18617        -7.35686         4.62790
     2012.18891        -3.03929         4.65946
     2012.19164        -0.61672         5.45538
     2012.19438         1.41285         4.65690
     2012.19712         7.15443         4.60572
     2012.19986        -1.15500         4.83946
     2012.20533         0.26615         4.76780
     2012.20807         3.19572         4.64752
     2012.21081         3.98829         4.64325
     2012.21343        -1.32132         4.77207
     2012.21902       -11.80999         4.62961
     2012.22450       -10.27384         4.59548
     2012.22724        -5.05627         4.71491
     2012.22997        -2.76370         4.88723
     2012.23271        -0.53512         4.66287
     2012.23545        -4.28355         4.90429
     2012.23813        -3.45907         5.34277
     2012.24366        -1.22583         4.62449
     2012.24640        -8.52026         4.62961
     2012.24914        -1.43268         4.66117
     2012.25188        -6.10911         4.64752
     2012.25462        -8.20454         4.61937
     2012.25735        -4.00096         4.58866
     2012.26283        -7.93582         4.59292
     2012.26557        -8.23825         4.60060
     2012.26819       -10.99186         7.74757
     2012.27110        -3.21400         4.80363
     2012.27378        -3.23853         4.60998
     2012.27652        -1.68195         4.60657
     2012.28199         1.96819         4.65861
     2012.28473        -0.66523         4.61596
     2012.28747        -6.00266         4.59889
     2012.29021        -7.02209         4.71406
     2012.29295        -8.17651         4.60657
     2012.29568        -8.19694         4.65520
     2012.30116       -12.97079         4.66714
     2012.30390       -15.34622         4.66202
     2012.30663        -5.76665         4.66629
     2012.30937        -3.58008         4.67908
     2012.31211        -3.84650         4.80704
     2012.31485       -11.21193         4.71150
     2012.32032        -2.86578         4.73197
     2012.32306        -8.15821         4.59634
     2012.32580       -13.39064         4.60145
     2012.32854       -13.40906         4.76866
     2012.33128        -2.09649         4.67567
     2012.33401        -3.15692         4.73283
     2012.33995        -2.87201         5.54836
     2012.34274        -9.73534         5.70021
     2012.34548       -13.33277         5.63708
     2012.34770        -8.36405         4.60316
     2012.35044        -8.10348         6.92436
     2012.35318        -6.32691         4.99131
     2012.35837        -9.68624         8.06918
     2012.36145        -6.64409         6.59252
     2012.36413        -3.54961         5.27708
     2012.36687        -6.87404         4.56477
     2012.36961        -3.87247         4.62619
     2012.37234        -2.64989         4.66117
     2012.37782        -2.88975         4.65178
     2012.38056        -9.26218         4.65264
     2012.38329        -2.17860         4.68505
     2012.38603        -6.33403         4.72003
     2012.38877        -8.37446         4.95036
     2012.39151        -3.14388         4.67567
     2012.39698        -6.70874         4.66287
     2012.39972        -1.27316         4.54003
     2012.40246        -2.44059         4.55965
     2012.40520        -3.71602         4.59207
     2012.40794        -8.30844         4.61254
     2012.41067        -3.81987         4.60487
     2012.41615        -4.12173         4.56989
     2012.41889        -1.31315         4.65093
     2012.42162        -6.01958         5.36751
     2012.42442        -5.26991         4.65093
     2012.42710        -7.75543         4.59975
     2012.42989        -4.80676         4.67055
     2012.43531        -6.29871         4.60828
     2012.43805        -5.00514         4.58013
     2012.44079       -11.09057         4.58439
     2012.44353        -9.84199         4.59207
     2012.44626        -4.46242         4.56221
     2012.44900        -6.37785         4.59975
     2012.45448        -5.45570         5.71215
     2012.45722        -3.96413         4.65008
     2012.45995         8.87644         4.83178
     2012.46269         4.40102         5.02202
     2012.46543        -6.17641         4.60572
     2012.46817        -3.45084         4.64837
     2012.47364        -1.74369         4.65520
     2012.47638        -5.54912         4.64155
     2012.47912        -1.89454         4.56904
     2012.49384        -0.09096         9.22338
     2012.49555        -3.71611         4.57586
     2012.49828        -7.23353         4.70723
     2012.50102        -1.84796         4.67141
     2012.50376         9.49161         4.69956
     2012.50650        -4.04681         4.54600
     2012.51197        -1.45667         4.72600
     2012.51471        -1.72509         4.59634
     2012.51745        -0.68352         4.68591
     2012.52019         3.06805         4.64240
     2012.52292         0.05863         5.44002
     2012.52566        -0.96780         4.55795
     2012.53114         5.75834         4.61254
     2012.53388        -0.13208         4.68335
     2012.53639        -2.82189         5.42040
     2012.53947        -1.71375         5.31377
     2012.54209         7.13864         5.19007
     2012.54483        -0.56379         4.63728
     2012.55030         5.65636         4.70126
     2012.55304         0.54593         4.57501
     2012.55578        -1.57950         4.60316
     2012.55852        -0.76092         4.60913
     2012.56125         0.36165         4.55624
     2012.56399        -0.89978         4.58780
     2012.56947         1.18137         4.60657
     2012.57221         3.48194         4.60231
     2012.57494         2.21851         4.58183
     2012.57768        -4.83691         4.65008
     2012.58042        -1.60434         4.61084
     2012.58316        -3.69577         4.55027
     2012.58863         5.51838         4.56563
     2012.59137         2.95295         5.77357
     2012.59411         2.80253         4.57671
     2012.59685        -2.04790         4.96571
     2012.59964         2.18477         4.68591
     2012.60238         2.08634         5.17557
     2012.60780         1.99739         4.57245
     2012.61054         6.01496         4.56648
     2012.61327         3.19254         4.56307
     2012.61601         0.50011         4.56818
     2012.61875         6.02668         4.57245
     2012.62149         5.08126         4.61852
     2012.62696         4.15940         5.28732
     2012.62942         2.94550         5.08770
     2012.63752         7.55503         5.31718
     2012.64065         7.64927         4.61169
     2012.64550         8.65137         6.23593
     2012.64887         6.73699         4.57671
     2012.65160         9.84956         4.60572
     2012.65434         6.47413         4.85908
     2012.65708         9.84971         5.32997
     2012.65982         1.65428         8.94357
     2012.66529         8.83243         4.59548
     2012.66803         4.08000         4.60316
     2012.67077         6.01357         4.57842
     2012.67351         5.58115         4.59548
     2012.67624         0.37372         4.87444
     2012.67898         8.62729         4.57586
     2012.68446         2.56444         4.57160
     2012.68720         5.57801         4.54686
     2012.68993         6.22558         4.74903
     2012.69273         2.13925         5.83840
     2012.69541         3.73773         4.62875
     2012.69815         2.71230         4.62022
     2012.70362         1.40645         4.64667
     2012.70636         4.81202         4.65605
     2012.70910         1.27860         4.58866
     2012.71184         6.09317         4.55539
     2012.71457         3.58774         4.55454
     2012.71731         9.03131         4.68079
     2012.72279         7.73246         4.55539
     2012.72553         9.07903         4.57501
     2012.72826         7.07061         4.61340
     2012.73100         7.29918         4.71918
     2012.73374         3.08275         4.64496
     2012.73648         2.94033         4.58439
     2012.74195         8.28347         4.66885
     2012.74469         6.68905         4.60743
     2012.74669        11.04838         6.75119
     2012.75017         2.13819         4.83008
     2012.75290         8.51576         4.90173
     2012.75564         2.03334         4.60913
     2012.76112         6.27248         4.52724
     2012.76386         5.03206         4.53918
     2012.76659         7.86363         4.63387
     2012.76933         6.38820         4.65008
     2012.77207         6.17578         4.62961
     2012.77481         3.59135         4.59804
     2012.79397         1.92636         4.61340
     2012.79671         3.25093         5.14401
     2012.79945         9.51851         5.49376
     2012.80219         9.08208         5.83329
     2012.80492         6.80365         4.65690
     2012.80766         6.67123         4.86846
     2012.81040         2.48880         4.66202
     2012.81314        -0.87463         4.66287
     2012.81587        -3.70705         4.63643
     2012.81861        -4.43748         4.73112
     2012.82135         0.80309         4.66117
     2012.82409         0.12666         4.74733
     2012.82683         6.34324         4.73709
     2012.82956        -0.19419         4.63814
     2012.83230         2.76338         4.65178
     2012.83504        -3.75104         4.68335
     2012.83778        -0.57247         4.70382
     2012.84052         1.69310         4.78998
     2012.84257         4.24653         6.64711
     2012.85968        -0.74089         4.66970
     2012.86242        -1.23231         4.64325
     2012.86516         0.28726         4.64923
     2012.86789        -6.16817         4.79339
     2012.87063        -1.52459         4.65605
     2012.87337        -4.73602         4.66543
     2012.87611         2.70055         4.63131
     2012.87885         4.41513         4.62363
     2012.88158         0.25870         4.55454
     2012.88432         3.06027         4.65434
     2012.88706         0.72385         4.80619
     2012.88980         3.94442         4.74477
     2012.89253        -1.43901         4.58610
     2012.89527        -8.35143         4.60743
     2012.89801         2.71614         4.62705
     2012.90075        -0.51629         4.65008
     2012.90349        -4.21572         5.89727
     2012.90622        -1.74914         4.60913
     2012.90896         2.90743         4.66970
     2012.91170        -0.01400         4.61852
     2012.91444         3.93558         4.62619
     2012.91718         7.80715         4.62193
     2012.91991         5.50472         4.62022
     2012.92231         1.60672         5.53215
     2012.92813        -1.15656         4.58780
     2012.93086         4.61502         4.66629
     2012.93360         1.85659         4.63472
     2012.93634        -0.54384         4.54430
     2012.93908        -5.84027         4.60913
     2012.94156        -3.63812         5.22419
     2012.94455        12.48388         4.56904
     2012.94729         9.73345         4.65093
     2012.95003         5.47103         4.64155
     2012.95277         8.08160         4.52809
     2012.95551         7.12817         4.54942
     2012.95824         5.33875         4.57927
     2012.96098         6.35732         4.69273
     2012.96372         5.24489         4.65349
     2012.96646         3.79347         4.62790
     2012.96919         6.61604         4.61852
     2012.97193        -2.33139         4.67994
     2012.97467         7.88318         4.56307
     2012.97741         4.77776         4.52041
     2012.98015        -0.29167         4.54942
     2012.98288        -3.23910         4.57160
     2012.98562        -7.91152         4.56904
     2012.98836        -7.62995         4.70212
     2012.99110       -13.52038         4.54430
     2012.99384        -9.96880         4.54430
     2012.99657        -8.86123         4.58354
     2012.99931       -10.52766         4.60913
     2013.00205        -9.21108         4.58951
     2013.00479        -9.61551         4.59122
     2013.00752        -5.20394         4.62619
     2013.01026       -11.95037         4.76354
     2013.01300        -0.64779         4.65776
     2013.01574         3.16278         4.64923
     2013.01848         0.30735         4.67311
     2013.02121         1.95693         4.62449
     2013.02395         1.77350         4.68505
     2013.02669         2.91307         4.76610
     2013.02943        -1.17035         4.63984
     2013.03216        -2.82778         4.65776
     2013.03490        -6.69021         4.62961
     2013.03764        -5.30763         4.73197
     2013.04038       -11.47406         4.62619
     2013.04312       -12.08049         4.71918
     2013.04585        -9.86692         4.86079
     2013.04859       -11.04334         4.78145
     2013.05133        -3.22977         4.65605
     2013.05407        -5.73220         4.59889
     2013.05681        -5.31462         4.64837
     2013.05954        -7.91705         4.69700
     2013.06228        -5.21448         4.79169
     2013.06502        -5.22590         4.77975
     2013.06776        -5.12933         4.88382
     2013.07049        -2.50576         4.72088
     2013.07323         0.88282         4.63558
     2013.07597        -2.29161         4.64496
     2013.07871        -0.67604         4.66458
     2013.08145         0.93854         4.66373
     2013.08418        -3.45489         4.65861
     2013.08692       -13.49532         4.65093
     2013.08966       -11.53275         4.65178
     2013.09240        -7.51317         4.68847
     2013.09514         1.00240         4.68250
     2013.09787         3.87497         4.85226
     2013.10061        -3.60345         4.93500
     2013.10335        -3.99588         4.66458
     2013.10609        -3.80231         4.64155
     2013.10882        -5.79473         4.64411
     2013.11156       -12.16916         4.70638
     2013.11430        -3.22459         4.65434
     2013.11704       -10.97701         4.71832
     2013.11978        -5.97944         4.88297
     2013.12251       -10.82287         4.74221
     2013.12525       -17.44430         5.01519
     2013.12799        -8.27672         4.63216
     2013.13073        -5.11615         4.71832
     2013.13347        -3.52858         4.68761
     2013.13620         1.60400         4.71918
     2013.13894         0.75157         4.63728
     2013.14168        -1.90086         4.65605
     2013.14442         3.09572         4.80534
     2013.14715        -2.11671         4.85737
     2013.14989        -7.81314         4.61937
     2013.15263        -9.42656         4.67141
     2013.15537       -15.04099         4.56648
     2013.15811        -8.00742         4.59719
     2013.16084       -11.89785         4.59719
     2013.16358       -11.51627         4.82837
     2013.16632        -9.64070         4.64837
     2013.16906        -1.14813         4.60487
     2013.17180        -5.00955         4.61084
     2013.17453        -2.53598         4.58610
     2013.17727        -4.71441         4.70126
     2013.18001        -6.83983         4.68761
     2013.18275        -3.61226         4.62961
     2013.18548        -4.52069         4.55965
     2013.18822        -7.03311         4.61425
     2013.19096        -7.15054         4.60145
     2013.19370        -8.76797         4.60913
     2013.19644        -1.49940         4.63899
     2013.19917        -1.54282         4.61681
     2013.20191        -0.32025         4.73880
     2013.20465        -3.74068         4.61084
     2013.20739        -2.57710         4.68335
     2013.21013         1.24247         4.56818
     2013.21286        -4.59196         4.58695
     2013.21560        -5.18938         4.66799
     2013.21834        -0.66481         4.65776
     2013.22108        -5.44924         4.53150
     2013.22381        -6.43366         4.58610
     2013.22655        -9.70609         4.61596
     2013.22929        -6.90552         4.63728
     2013.23203        -3.60395         4.60657
     2013.23477        -5.43937         4.63046
     2013.23750        -4.90080         4.66799
     2013.24024        -7.01523         4.77377
     2013.24298        -5.08265         4.70212
     2013.24572         1.98192         4.69956
     2013.24846         1.80849         4.69273
     2013.25119        -1.71793         4.65776
     2013.25393        -6.33036         4.77463
     2013.25667        -5.40179         4.92050
     2013.25941         6.11079         4.74818
     2013.26214         5.39036         4.72941
     2013.26488        -3.56007         4.71577
     2013.26762         0.16951         4.71235
     2013.27036        -6.28692         4.73112
     2013.27310        -0.44535         4.89917
     2013.27583        -6.16878         4.79510
     2013.27857         2.17280         4.74477
     2013.28131         6.65337         4.74818
     2013.28405         0.91794         4.72174
     2013.28679        -0.37848         4.70212
     2013.28952        -5.99891         4.68932
     2013.29226        -5.71734         4.65264
     2013.29500        -6.20376         4.66032
     2013.29774        -8.23619         4.72771
     2013.30047        -8.29562         4.78060
     2013.30321       -11.18104         4.72430
     2013.30595        -7.93647         4.70638
     2013.30869        -9.50490         4.76524
     2013.31143        -6.71833         4.67396
     2013.31416        -1.03475         4.69017
     2013.31690        -4.11518         4.69273
     2013.31964         0.00439         4.71918
     2013.32238        -5.66503         4.76183
     2013.32512         2.60854         4.76098
     2013.32785        -4.21289         4.74306
     2013.33059        -8.35131         4.65605
     2013.33333        -8.75774         4.65264
     2013.33607        -8.60217         4.69700
     2013.33880        -4.12259         4.70809
     2013.34154        -2.32202         4.67652
     2013.34428        -5.65245         4.70126
     2013.34702        -0.97388         4.70809
     2013.34976         0.01070         4.82752
     2013.35249        -2.77473         4.65690
     2013.35523        -4.51716         4.79339
     2013.35803         1.49151         4.87273
     2013.36076        -3.65291         4.83605
     2013.36350        -0.41434         4.86079
     2013.36624        -3.95077         5.03652
     2013.36892         5.00971         4.64837
     2013.37166        -2.18972         4.69359
     2013.37440        -2.32914         4.66373
     2013.37713        -4.23057         4.68250
     2013.37987        -4.37400         4.69700
     2013.38261        -9.63943         4.63728
     2013.38535        -3.92485         4.73283
     2013.38809        -0.90628         4.68250
     2013.39082        -4.22771         4.81216
     2013.39356        -4.52413         4.66885
     2013.39630        -3.82056         4.66543
     2013.39904        -1.94199         4.63302
     2013.40177        -3.14041         4.68932
     2013.40451         3.96216         4.69614
     2013.40725         3.97573         4.77377
     2013.40999        -4.74569         4.71747
     2013.41273        -5.16912         4.68676
     2013.41546        -5.33255         4.78998
     2013.41820        -0.73398         4.72686
     2013.42094        -1.73240         4.68932
     2013.42368        -8.83683         4.71747
     2013.42642         2.49074         4.68932
     2013.42915         1.68132         4.66714
     2013.43189         9.06989         4.80363
     2013.43463         2.17846         4.76012
     2013.43737         3.13404         4.71321
     2013.44010        -1.49239         4.70382
     2013.44284        -1.47282         4.69956
     2013.44558        -4.35224         4.73965
     2013.44832        -7.35867         4.67908
     2013.45106        -4.90310         4.77292
     2013.45379        -1.65253         4.66543
     2013.45653        -5.55495         4.70297
     2013.45927        -0.76838         4.73794
     2013.46201        -2.68481         4.77292
     2013.46475        -2.07323         4.66458
     2013.46748        -1.86066         4.65008
     2013.47022        -2.22409         4.67055
     2013.47296        -3.15751         4.63899
     2013.47570         3.03606         4.60998
     2013.47843        -0.35537         4.66287
     2013.48117         0.55821         4.67482
     2013.48391        -6.12822         4.66629
     2013.48665        -3.41865         4.65861
     2013.48939        -2.21507         4.64411
     2013.49212         1.32150         4.76524
     2013.49486         1.14107         4.64070
     2013.49760        -0.26736         4.63984
     2013.50034        -0.63578         4.72174
     2013.50308        -0.90921         4.65434
     2013.50581         3.06136         4.59804
     2013.50855         1.42894         4.60231
     2013.51129        -1.20749         4.57416
     2013.51403        -0.75492         4.67396
     2013.51676        -2.15234         4.67055
     2013.51950        -0.78677         4.62534
     2013.52224         2.53880         4.62193
     2013.52498         1.68138         4.75074
     2013.52772         1.05195         4.65946
     2013.53045        -2.65948         4.64240
     2013.53319         8.16009         4.66458
     2013.53593         1.73167         4.62961
     2013.53867         1.24124         4.69444
     2013.54141         0.33481         4.73453
     2013.54414         1.29439         4.65690
     2013.54688        -1.59304         4.63643
     2013.54962         2.92353         4.62619
     2013.55236         4.35511         4.63814
     2013.55509         3.52468         4.64581
     2013.55686         1.30663         8.40785
     2013.57529         5.78141        10.27180
     2013.57700         5.02526         4.65434
     2013.57974         3.60984         4.66032
     2013.58247         9.49941         4.84373
     2013.58521         2.96798         4.64325
     2013.58795         3.72456         4.64581
     2013.59069         2.03313         4.63984
     2013.59342         6.57570         4.67738
     2013.59616         4.24128         4.72600
     2013.59890         2.17085         4.67567
     2013.60164         5.31942         4.71832
     2013.60438        -0.95101         4.75586
     2013.60711        -0.63743         4.93671
     2013.60985         2.24814         4.77804
     2013.61259         4.92371         4.69870
     2013.61533         9.28529         4.80790
     2013.61807         9.94786         4.77463
     2013.62080        10.57843         4.70126
     2013.62257         2.87339         8.36008
     2013.63529         0.66663         7.42767
     2013.63723        13.76587         4.65434
     2013.63997         8.20844         5.37945
     2013.64271         1.66502         4.72515
     2013.64544         5.51859         4.68335
     2013.64818        10.77016         4.79681
     2013.65092        -1.74726         4.72430
     2013.65366         2.32231         4.64070
     2013.65639         5.37188         4.69785
     2013.65913         9.68346         4.86761
     2013.66187         5.64403         4.77121
     2013.66461         3.71160         4.66885
     2013.66735         9.11018         4.67652
     2013.67008        11.10175         4.80278
     2013.67282         9.52132         4.83264
     2013.67556         6.26390         4.77719
     2013.67830         8.76847         4.74989
     2013.68104        12.60804         4.78316
     2013.68377         3.94961         4.62363
     2013.68651        -0.11981         4.61340
     2013.68925         3.95276         4.58269
     2013.69199         8.27833         4.56136
     2013.69472         4.44091         4.60487
     2013.69746         6.32148         4.64411
     2013.70020         9.80305         4.61596
     2013.70294         8.55263         4.59889
     2013.70568        20.30120         4.71747
     2013.70841         5.16777         4.69785
     2013.71115         2.97735         4.62107
     2013.71389         5.91792         4.67482
     2013.71663         7.43949         4.62875
     2013.71937         5.94506         4.57671
     2013.72210        11.13164         4.65861
     2013.72484        13.65021         4.72003
     2013.72758         9.67878         4.65008
     2013.73032         8.94536         4.61510
     2013.73305        10.33193         4.56563
     2013.73579         7.22550         4.55454
     2013.73853         0.31608         4.58610
     2013.74127         6.28965         4.59036
     2013.74401         8.40022         4.71747
     2013.74674         8.60780         4.70553
     2013.74948         3.49737         4.65264
     2013.75222         1.12594         4.58610
     2013.75496        -0.86049         4.55283
     2013.75770        -6.26691         4.57330
     2013.76043        -5.60234         4.58695
     2013.76317         1.71323         4.59292
     2013.76591         4.26581         4.63728
     2013.76865         3.74638         4.60743
     2013.77138         3.14795         4.61340
     2013.77412         9.48353         4.65349
     2013.77686         1.39210         4.59378
     2013.77960         0.76367         4.59548
     2013.78234        -3.78275         4.60998
     2013.78507        -8.14418         4.59634
     2013.78781        -5.14161         4.58695
     2013.79055        -2.60304         4.59122
     2013.79329        -4.99946         4.59207
     2013.79603         2.09711         4.55624
     2013.79876        -4.50832         4.56563
     2013.80150         8.25026         4.65520
     2013.80424         4.18083         4.70212
     2013.80698         3.63740         4.56477
     2013.80971         4.27398         4.55027
     2013.81245         3.95155         4.58439
     2013.81519        -0.53088         4.60060
     2013.81793        -2.92530         4.60743
     2013.82067         0.87727         4.72003
     2013.82340         4.12084         4.59548
     2013.82614         5.11041         4.65605
     2013.82888         5.79899         4.58780
     2013.83162         5.44556         4.60572
     2013.83436        -0.92487         4.73709
     2013.83709         2.11471         4.76268
     2013.83983         5.13428         4.66373
     2013.84257         4.19285         4.64325
     2013.84531         1.55743         4.72259
     2013.84804        -0.58700         4.59548
     2013.85078        -1.97243         4.78998
     2013.85352         7.46915         4.64837
     2013.85626         0.32972         4.61425
     2013.85900        -2.15971         4.55965
     2013.86173        -2.22813         4.56904
     2013.86447        -1.59456         4.65008
     2013.86721        -5.91299         4.57330
     2013.86995        -1.63042         4.61084
     2013.87269         3.44216         4.56648
     2013.87542        12.00173         4.66714
     2013.87816         6.07230         4.56989
     2013.88090         9.73488         4.70212
     2013.88364         7.75945         4.85140
     2013.88637         3.43302         4.63387
     2013.88911        -2.12040         4.56563
     2013.89185        -9.95583         4.59463
     2013.89459        -7.38026         4.57842
     2013.89664         1.68517         6.48759
     2013.90006        -1.17811         4.64667
     2013.90280        -6.76254         4.60487
     2013.90554        -1.61697         4.57671
     2013.90828         4.63461         4.60487
     2013.91102         0.83618         4.59548
     2013.91375        -1.35025         4.63472
     2013.91649         0.46533         4.58695
     2013.91923        -2.84710         4.70553
     2013.92197        -1.56553         4.67994
     2013.92470         0.77105         4.55709
     2013.92744        -0.66738         4.65605
     2013.93018         0.34219         4.56392
     2013.93292        -2.53723         4.52212
     2013.93566        -1.74566         4.54003
     2013.93839        -3.04909         4.55709
     2013.94113        -3.49752         4.58269
     2013.94387        -3.37794         4.56904
     2013.94661        -2.37337         4.65605
     2013.94935         3.78820         4.61852
     2013.95208        -1.23022         4.57757
     2013.95482        -0.93865         4.77121
     2013.95756         5.27892         4.58866
     2013.96030        -0.16450         4.56904
     2013.96303         1.32507         4.61254
     2013.96577         4.02264         4.56818
     2013.96851         4.57022         4.62022
     2013.97125         8.63379         4.60572
     2013.97399         2.27136         4.61084
     2013.97672        -4.78207         4.60572
     2013.97946        -2.82649         4.63387
     2013.98220        -1.57192         4.74306
     2013.98494        -1.12335         4.55454
     2013.98767        -8.39877         4.55880
     2013.99041        -2.07420         4.67567
     2013.99315        -9.52663         4.62449
     2013.99589        -1.51705         4.59292
     2013.99863        -4.20248         4.61340
     2014.00416        -5.20924         4.66543
     2014.00684         2.36324         4.78828
     2014.00958        -2.82319         4.61766
     2014.01232        -7.12762         4.62363
     2014.01505        -6.36404         4.69273
     2014.01779        -4.69147         4.71150
     2014.02053         0.11210         4.60401
     2014.02327        -3.41032         4.79851
     2014.02600         3.66325         4.78401
     2014.02874         3.50382         4.67908
     2014.03148         9.12740         4.59463
     2014.03422         7.01097         4.63302
     2014.03696        -7.21546         4.56818
     2014.03969        -1.83488         4.60145
     2014.04243         1.38369         4.93586
     2014.04517         0.63026         4.70638
     2014.04791        -4.71716         4.53406
     2014.05065         1.10041         4.55965
     2014.05338        -2.78502         4.55965
     2014.05612        -5.50545         4.57927
     2014.05886        -4.06387         4.61425
     2014.06160        -2.29930         4.70553
     2014.06433         4.39227         4.70212
     2014.06707         4.69885         4.70212
     2014.06981         6.60442         4.60828
     2014.07255         4.93899         4.57074
     2014.07529         5.37957         4.60913
     2014.07802        -1.32986         4.66287
     2014.08076         5.72771         4.63558
     2014.08350         3.60629         4.64155
     2014.08624        -1.81714         4.65178
     2014.08898        -2.69557         4.75671
     2014.09171        -6.06200         4.76780
     2014.09445        -3.61242         4.61084
     2014.09719        -7.78485         4.67738
     2014.09993         3.53272         4.62193
     2014.10266         0.61330         4.66885
     2014.10540         3.27887         4.60401
     2014.10814         0.90444         4.60316
     2014.11088        -0.14798         4.72515
     2014.11362         1.06459         4.60060
     2014.11635        -2.27384         4.59036
     2014.11909         1.46674         4.59634
     2014.12183        -4.03369         4.65264
     2014.12457         3.98788         4.68250
     2014.12731         4.30745         4.60316
     2014.13004         0.06203         4.55709
     2014.13278        -1.12340         4.71662
     2014.13552         1.60917         4.69273
     2014.13826        -2.20125         4.56818
     2014.14099         4.01632         4.58098
     2014.14373         0.48889         4.63472
     2014.14647         1.28747         4.64240
     2014.14921         0.89604         4.66117
     2014.15195        -1.66339         4.65605
     2014.15468         6.88219         4.69444
     2014.15742         6.56276         4.67652
     2014.16016         5.70933         4.80534
     2014.16290         0.22990         4.68932
     2014.16564        -6.86552         4.89235
     2014.16837        -9.74995         4.80278
     2014.17111        -0.92338         4.75074
     2014.17385         0.29720         4.83434
     2014.17659         5.13177         4.76524
     2014.17932         1.53834         4.86335
     2014.18206        -4.11008         4.73283
     2014.18480         3.17049         4.94609
     2014.18754        -2.21994         4.64923
     2014.19028        -4.59336         4.63899
     2014.19301        -0.55379         4.64155
     2014.19575         0.78178         4.64155
     2014.19849        -1.13265         4.70382
     2014.20123        -1.43807         4.66629
     2014.20397        -3.37350         4.62619
     2014.20670         0.98307         4.70638
     2014.20944         1.37165         4.64240
     2014.21218        -0.47278         4.66117
     2014.21492         1.55379         4.77548
     2014.21765         1.98437         4.71662
     2014.22039        -1.10006         4.62619
     2014.22313        -1.15949         4.60487
     2014.22587        -2.58391         4.70809
     2014.22861         1.85866         4.80704
     2014.23134         8.92923         4.66885
     2014.23408         2.88480         4.69103
     2014.23682        -1.41562         4.62449
     2014.23956        -3.09705         4.75415
     2014.24230         0.25952         4.71491
     2014.24503        -6.05290         4.66885
     2014.24777         1.07867         4.88211
     2014.25051        -4.12776         4.64070
     2014.25325        -4.06718         4.69017
     2014.25598         0.87839         4.83008
     2014.25872        -0.38804         4.71321
     2014.26146        -1.02346         4.85823
     2014.26420        -9.21789         4.70297
     2014.26694        -1.35132         4.68932
     2014.26967        -0.47574         4.81984
     2014.27241        -4.50817         4.80619
     2014.27515        -5.72560         4.77889
     2014.27789        -6.42103         4.71918
     2014.28062        -0.01645         4.67823
     2014.28336        -4.18888         4.74818
     2014.28610        -0.52531         4.79084
     2014.28884        -5.34473         5.21140
     2014.29158        -5.60116         4.65434
     2014.29431        -0.12159         4.73027
     2014.29705        -1.17501         4.77292
     2014.29979        -8.65344         4.74903
     2014.30253        -2.61687         4.70382
     2014.30527         0.85071         4.65861
     2014.30800        -3.30572         4.69444
     2014.31074         2.04085         4.78401
     2014.31348         0.62942         4.66970
     2014.31622        -2.72400         4.65946
     2014.31895        -4.00743         4.70297
     2014.32169        -8.43686         4.75757
     2014.32443       -11.76628         4.76268
     2014.32717        -9.85971         4.72515
     2014.32991        -1.51914         4.67055
     2014.33264       -10.66356         4.69273
     2014.33538        -2.88299         4.69359
     2014.33812        -1.57842         4.79851
     2014.34086         1.86316         4.62961
     2014.34360        -1.22427         4.76780
     2014.34633        -3.24770         4.62875
     2014.34907        -0.75813         5.05358
     2014.35181        -2.65655         4.86505
     2014.35455         2.42302         4.64070
     2014.35728        -5.77741         4.60316
     2014.36002       -12.30483         4.62449
     2014.36276        -9.39826         4.62107
     2014.36550        -4.50169         4.64070
     2014.36824        -3.92611         4.68591
     2014.37097        -3.21154         5.03652
     2014.37371         4.01603         4.67396
     2014.37645        -1.33139         4.67567
     2014.37919        -0.06582         4.69956
     2014.38193        -5.56125         4.71491
     2014.38466        -4.91268         4.71577
     2014.38740        -2.43010         4.73112
     2014.39014        -0.55853         4.75671
     2014.39288        -2.35196         4.75927
     2014.39561         5.72662         4.82325
     2014.39835        -3.55581         4.81899
     2014.40109        -7.33124         4.73368
     2014.40383        -5.92066         4.72174
     2014.40657        -3.36509         4.72686
     2014.40930        -5.87452         4.71747
     2014.41204        -5.81994         4.80790
     2014.41478        -4.01537         4.64496
     2014.41752        -2.64880         4.64240
     2014.42026         5.05377         4.72856
     2014.42299        -7.53165         4.72003
     2014.42573        -2.03408         4.67226
     2014.42847        -3.31551         4.81557
     2014.43121       -11.16793         4.63984
     2014.43394        -4.58436         4.72174
     2014.43668         1.07521         4.75330
     2014.43942        -2.87721         4.72686
     2014.44216        -3.10364         4.69273
     2014.44490        -2.26307         4.81643
     2014.44763         2.29351         4.90429
     2014.45037        -4.79892         4.63728
     2014.45311        -2.97235         4.66629
     2014.45585        -0.56377         4.62961
     2014.45859        -4.34020         4.62619
     2014.46132        -2.83863         4.60913
     2014.46406        -1.33306         4.63472
     2014.46680         0.08952         5.37092
     2014.46954        -2.74791         4.66799
     2014.47227         2.66766         4.62961
     2014.47501         2.47624         4.62790
     2014.47775        -4.91319         4.66117
     2014.48049        -2.24162         4.64837
     2014.48323        -0.49204         4.64923
     2014.48596         4.72653         4.79254
     2014.48870        -1.76890         4.72088
     2014.49144         0.66368         4.61852
     2014.49418        -4.57175         4.61852
     2014.49692        -4.21018         4.57416
     2014.49965         1.46639         4.68420
     2014.50239         2.54997         4.70382
     2014.50513         0.56854         4.71662
     2014.50787        -6.40889         4.64411
     2014.51060        -2.96631         4.63302
     2014.51334         1.15326         4.60060
     2014.51608         4.47883         4.61169
     2014.51882         6.39841         4.69956
     2014.52156         3.02698         4.69785
     2014.52429         3.67855         4.55880
     2014.52703         3.86613         4.58098
     2014.52977        -0.48030         4.62107
     2014.53251        -1.05373         4.68420
     2014.53525         4.83484         4.68079
     2014.53798         5.41942         4.60487
     2014.54072         7.56899         4.71150
     2014.54346         2.20556         4.59292
     2014.54620         6.19614         4.84287
     2014.54893        12.70271         4.81131
     2014.55167         6.55628         4.75245
     2014.55441        -1.75514         4.80448
     2014.55715         3.10743         4.91197
     2014.55989        -2.22500         4.73197
     2014.56262         3.62058         4.70041
     2014.56536        -1.10285         4.67738
     2014.56810         1.93872         4.69529
     2014.57084        -3.26571         4.72088
     2014.57357        -1.23413         4.71065
     2014.57631         2.70644         4.71577
     2014.57905         0.24801         4.81728
     2014.58179         2.61359         4.75757
     2014.58453         0.25516         4.76268
     2014.58726         5.32973         4.99216
     2014.59006         1.61140         4.85993
     2014.59274         5.74888         4.79425
     2014.59548         0.33745         4.80960
     2014.59822         3.94903         4.75586
     2014.60095         3.89860         4.81046
     2014.60369         1.11817         4.74136
     2014.60643        -3.68926         4.74477
     2014.60917         1.91032         4.77889
     2014.61190         7.82189         4.98789
     2014.61464        10.74946         5.08770
     2014.61738         8.62304         4.94353
     2014.62012         2.21661         4.88382
     2014.62285         2.07718         4.73709
     2014.62559         2.91576         4.73709
     2014.62833         1.88733         4.75074
     2014.63107         8.51390         4.88382
     2014.63381        -1.22552         4.99984
     2014.63655        10.50505         4.76268
     2014.63928        -1.79938         4.87700
     2014.64202        -3.72680         4.70126
     2014.64476         2.27177         4.70041
     2014.64750         7.59134         4.74989
     2014.65023         1.63191         4.68250
     2014.65252         9.52373         5.75224
     2014.65942         2.22225         9.35817
     2014.66119         4.06921         4.92818
     2014.66392         9.60178         4.73112
     2014.66666         9.59635         4.67311
     2014.66940         8.85993         4.76524
     2014.67214         8.65550         4.78828
     2014.67488         1.33007         4.68761
     2014.67761         1.24665         4.68761
     2014.68035         3.61022         4.66202
     2014.68309        -1.18821         4.65178
     2014.68583         7.99936         4.65434
     2014.68856         1.52994         4.70723
     2014.69130        -2.38449         4.67994
     2014.69404        -0.12992         4.65520
     2014.69678        -2.16034         4.62790
     2014.69952         4.43823         4.64667
     2014.70225         4.82980         4.65434
     2014.70500         3.13138         4.66287
     2014.70773         9.11595         4.72515
     2014.71047         7.79652         4.69273
     2014.71321         8.96410         4.63899
     2014.71594         4.29967         4.69614
     2014.71868         5.38624         4.73709
     2014.72142         6.07981         4.61425
     2014.72416         8.42239         4.65264
     2014.72689        13.08596         4.71491
     2014.72963        10.58753         4.63558
     2014.73237         5.31211         4.71321
     2014.73511         3.04868         4.65264
     2014.73785         2.76325         4.69444
     2014.74058         4.91983         4.65264
     2014.74332        11.93940         4.72174
     2014.74606         6.53497         4.78401
     2014.74880         2.30455         4.65690
     2014.75154         2.13112         4.78486
     2014.75427         2.60869         4.81472
     2014.75701         3.12126         4.68676
     2014.75975         6.23884         4.67908
     2014.76249         7.64641         4.70723
     2014.76522         6.43598         4.68250
     2014.76796         6.37856         4.62534
     2014.77070         1.94313         4.64496
     2014.77344         0.48970         4.67141
     2014.77618        17.12328         4.85652
     2014.77891         4.68985         4.67823
     2014.78165         8.89742         4.65008
     2014.78439         3.55900         4.67396
     2014.78713         5.63257         4.67055
     2014.78987        -0.15086         4.66714
     2014.79260         7.91471         4.68250
     2014.79534         7.21629         4.68761
     2014.79808         5.60486         4.75586
     2014.80082         4.19943         4.66970
     2014.80355         8.18201         4.76951
     2014.80629        -0.59942         4.74050
     2014.80903         7.53015         4.77804
     2014.81177         7.81573         4.66543
     2014.81451        17.37330         4.67141
     2014.81724         6.82087         4.68847
     2014.81998         6.69745         4.65349
     2014.82266         4.90892         4.87529
     2014.82449         7.67097         9.02462
     2014.82820         4.48116         4.62193
     2014.83093         5.03074         4.72856
     2014.83367         4.52331         4.71577
     2014.83641         4.66288         4.67396
     2014.83915         5.86146         4.67994
     2014.84188         3.19503         4.93500
     2014.84462        -4.44540         4.80960
     2014.84736        -0.33482         4.74221
     2014.85010        -1.20625         4.75586
     2014.85283         1.65131         4.71321
     2014.85557         4.89390         4.89917
     2014.85831         1.32347         4.75501
     2014.86105        -0.28796         4.89320
     2014.86379        -3.15038         4.72344
     2014.86653        -0.53581         4.69700
     2014.86926        -3.73724         4.68676
     2014.87200        -3.34167         4.70638
     2014.87474        -7.22609         4.69785
     2014.87748        -4.88552         4.71321
     2014.88021        -1.82095         5.05699
     2014.88296         3.69563         4.76098
     2014.88569         3.77320         4.88809
     2014.88843         2.20977         4.96316
     2014.89117        14.79335         5.09538
     2014.89390        -1.10308         4.92733
     2014.89664        -0.52451         4.87700
     2014.89938        -2.32993         5.03823
     2014.90212        -7.79036         4.89491
     2014.90485         0.07021         4.86932
     2014.90759       -11.60722         4.90003
     2014.91033         3.40836         4.77975
     2014.91307         4.61493         4.68932
     2014.91581         3.82150         4.76780
     2014.91854         0.73707         4.86591
     2014.92128         2.62065         4.71150
     2014.92402         2.75322         4.73197
     2014.92676        -7.04320         4.69700
     2014.92950        -8.22063         4.67226
     2014.93223        -8.00807         4.70809
     2014.93497        -0.73048         4.75159
     2014.93771        -4.58291         4.74648
     2014.94045         7.32066         4.78998
     2014.94318         7.24523         4.94439
     2014.94592         3.51480         4.66885
     2014.94866        -6.37362         4.62534
     2014.95140        -5.16505         4.63472
     2014.95414         0.54453         4.59889
     2014.95687         4.95510         4.62961
     2014.95961         7.18667         4.59463
     2014.96235        -4.57875         4.61425
     2014.96509         3.03182         4.80704
     2014.96783        -3.64161         4.63046
     2014.97056        -1.57003         4.63387
     2014.97330        -3.97746         4.80363
     2014.97604        -4.84889         4.59463
     2014.97878        -4.55132         4.70638
     2014.98151         5.24826         4.70553
     2014.98425        -4.79017         4.58098
     2014.98699        -2.62260         4.65434
     2014.98973        -3.99502         4.61596
     2014.99247        -8.17345         5.00240
     2014.99520        -8.04888         4.61425
     2014.99794        -3.65730         4.59975
     2015.00068        -5.83773         4.59378
     2015.00342        -7.49016         4.59889
     2015.00616        -9.25858         4.60572
     2015.00889        -5.04501         4.73368
     2015.01163       -10.54844         4.70723
     2015.01437        -4.79287         4.63216
     2015.01711        -8.42929         4.68591
     2015.01984        -2.36172         4.65264
     2015.02259         0.04586         4.75330
     2015.02532         4.54943         4.65520
     2015.02806        -3.91700         4.64155
     2015.03080        -3.34143         4.90771
     2015.03353        -7.19085         4.65349
     2015.03627        -2.24428         4.62107
     2015.03901         0.80029         4.65178
     2015.04175         5.91487         4.66543
     2015.04449        -3.01956         4.70638
     2015.04722        -3.03599         4.86249
     2015.04996        -1.79941         4.80278
     2015.05270        -2.80484         4.62449
     2015.05544        -3.21927         4.64240
     2015.05817        -0.31570         4.65520
     2015.06091        -1.93112         4.69017
     2015.06365        -0.28655         4.77207
     2015.06639        -2.15698         4.60743
     2015.06913         1.34260         4.56904
     2015.07186        -5.03483         4.66032
     2015.07460        -6.90926         4.69529
     2015.07734        -8.56168         4.61169
     2015.08008        -7.57011         4.59804
     2015.08282        -3.59154         4.57927
     2015.08555        -2.21096         4.59975
     2015.08829         3.14661         4.73880
     2015.09103        -0.34382         4.64240
     2015.09377        -0.42625         4.63643
     2015.09650        -5.01167         4.76866
     2015.09924         8.18590         4.77975
     2015.10198         5.22247         4.74903
     2015.10472        -0.26095         4.70638
     2015.10746         7.15962         4.67567
     2015.11019        -1.95681         4.74306
     2015.11293        -7.23423         4.70723
     2015.11567        -6.95966         4.69785
     2015.11841        -6.59809         4.64667
     2015.12115         0.51749         4.75757
     2015.12388        -4.13794         4.63984
     2015.12662        -4.17837         4.65008
     2015.12936        -6.71580         4.97254
     2015.13210        -1.48722         5.18837
     2015.13483        -5.94965         4.75501
     2015.13757        -5.48408         4.68079
     2015.14031        -3.67050         4.63216
     2015.14305        -4.48493         4.64667
     2015.14579        -4.56836         4.64070
     2015.14853        -5.25878         4.68591
     2015.15126         1.02279         4.59207
     2015.15400        -0.92164         4.85737
     2015.15674         2.22794         4.62705
     2015.15856         2.68398         8.49145
     2015.16614        12.11265        13.24645
     2015.16769        -3.68776         4.56648
     2015.17043        -3.32420         4.60913
     2015.17316        -3.02563         4.68079
     2015.17590        -3.86305         4.77633
     2015.17750        -0.09339        11.78429
     2015.18685         0.98324         4.56733
     2015.18959         0.60381         4.56051
     2015.19233        -5.46261         4.71577
     2015.19507        -0.28104         4.67652
     2015.19780         1.26153         4.59634
     2015.20054        -0.60390         4.58354
     2015.20328        -4.87932         4.55283
     2015.20602        -6.06475         4.58695
     2015.20876        -8.03318         4.77377
     2015.21149        -6.71860         4.58695
     2015.21423        -4.47703         4.84543
     2015.21697        -0.98746         4.52297
     2015.21971        -5.90088         4.57074
     2015.22245        -3.83531         4.53236
     2015.22518        -2.21574         4.62193
     2015.22792        -2.39216         4.59463
     2015.23066        -2.40359         4.53833
     2015.23340        -5.50102         4.68164
     2015.23613         1.09256         4.67652
     2015.23887        -3.99687         4.78486
     2015.24161         3.49370         4.85482
     2015.24435         0.70027         4.84628
     2015.24709        -5.00115         4.68847
     2015.24982        -2.50758         4.56136
     2015.25256        -1.28701         4.56051
     2015.25530        -2.75043         4.56392
     2015.25804        -0.31486         4.59378
     2015.26078         0.01671         4.62534
     2015.26351         2.84729         4.58354
     2015.26625         2.24586         4.57927
     2015.26899        -5.20757         4.65776
     2015.27173         5.41501         4.69273
     2015.27446         1.32758         4.72174
     2015.27720         0.27015         4.59804
     2015.27994        -1.70428         4.66117
     2015.28268        -3.59370         4.65264
     2015.28542        -2.11413         4.72771
     2015.28815        -5.37356         4.76354
     2015.29089         1.18802         4.64155
     2015.29363        -3.68041         4.65776
     2015.29637        -0.08884         4.67055
     2015.29911         3.13874         4.67055
     2015.30184         5.56031         4.78316
     2015.30458         1.38687         4.58951
     2015.30732        -3.23554         4.53747
     2015.31006         2.18603         4.58098
     2015.31279        -1.70640         4.53491
     2015.31553        -4.25283         4.51444
     2015.31827        -4.51125         4.62619
     2015.32101        -1.56368         4.47691
     2015.32375        -2.77211         4.52638
     2015.32648        -3.38153         4.64240
     2015.32922        -1.54396         4.66373
     2015.33196         0.23261         4.58866
     2015.33470         1.59519         4.49567
     2015.33744        -2.85624         4.52041
     2015.34017        -3.84467         4.52894
     2015.34291        -4.18609         4.54259
     2015.34565        -0.52652         4.53662
     2015.34839        -0.34795         4.51871
     2015.35112        -2.57838         4.46496
     2015.35386        -1.22880         4.47691
     2015.35660        -2.61523         4.52980
     2015.35934        -3.67766         4.65776
     2015.36208        -0.86108         4.59207
     2015.36481        -4.75251         4.47947
     2015.36755         2.39206         4.50676
     2015.37029         0.38864         4.51188
     2015.37303        -5.55679         4.54942
     2015.37577        -5.20322         4.51529
     2015.37850        -6.61964         4.67226
     2015.38124        -3.34207         4.56221
     2015.38398         0.44550         4.52468
     2015.38672        -0.28893         4.54430
     2015.38945        -2.73135         4.62022
     2015.39219        -6.35078         4.54942
     2015.39493         0.07679         4.58013
     2015.39767        -2.46163         4.53747
     2015.40041        -3.74706         4.58951
     2015.40315        -1.19448         4.71406
     2015.40588        -5.68991         4.64411
     2015.40862         0.79766         4.64752
     2015.41136        -2.67977         4.60487
     2015.41410        -2.70819         4.66543
     2015.41684        -0.38361         4.62278
     2015.41957        -4.41705         4.61340
     2015.42231        -1.76048         4.66032
     2015.42505        -6.87890         4.61596
     2015.42778        -3.38233         4.54174
     2015.43052         2.54724         4.56904
     2015.43326         1.24982         4.55965
     2015.43600        -0.10661         4.56904
     2015.43874         0.00296         4.63046
     2015.44147         1.09354         4.68591
     2015.44421         2.65911         4.63131
     2015.44695        -0.53132         4.58525
     2015.44969        -2.10874         4.57671
     2015.45243        -1.83016         4.61254
     2015.45516         0.86840         4.58780
     2015.45790        -1.22902         4.73112
     2015.46064         3.17455         4.73539
     2015.46338        -0.45788         4.85396
     2015.46611         5.08969         4.63387
     2015.46885         5.87826         4.58951
     2015.47159         5.86084         4.52041
     2015.47433        -1.76359         4.66714
     2015.47707         1.46399         4.71065
     2015.47980        -0.20444         4.65605
     2015.48254         1.77413         4.72259
     2015.48528         1.19071         4.60572
     2015.48802         4.69628         4.56136
     2015.49076         4.18885         4.73965
     2015.49349         5.74743         4.68591
     2015.49624         7.80501         4.70126
     2015.49896         5.50356         4.68420
     2015.50171         5.99014         4.54259
     2015.50444         7.79072         4.57501
     2015.50718         0.63729         4.54259
     2015.50992         6.65086         4.60998
     2015.51266         5.19944         4.59548
     2015.51540         5.94301         4.59292
     2015.51802         2.98439         4.90344
     2015.52087        11.05816         4.60743
     2015.52361         9.91773         4.67311
     2015.52635         2.06730         4.58780
     2015.52908        10.73288         4.66799
     2015.53182         9.13745         4.65434
     2015.53456         5.74502         4.62705
     2015.53730         1.23859         4.65946
     2015.54004         1.97217         4.71321
     2015.54277         2.62074         4.63216
     2015.54551        11.85931         4.66885
     2015.54825         4.76189         4.72344
     2015.55099        10.28946         4.84543
     2015.55378        11.39013         4.77463
     2015.55646        11.62361         4.70894
     2015.55920         9.62218         4.67652
     2015.56194         8.11175         4.72686
     2015.56468         3.91333         4.67823
     2015.56741         7.79690         4.72686
     2015.57015         7.15247         4.77975
     2015.57289         6.94404         4.73880
     2015.57563         5.91362         4.65178
     2015.57837         7.07119         4.73794
     2015.58110        10.14376         4.67738
     2015.58384         7.86734         4.78145
     2015.58658        14.29891         4.64325
     2015.58932         7.78648         4.75842
     2015.59206         3.71306         4.73880
     2015.59479         8.81863         4.69273
     2015.59753        14.64220         4.65349
     2015.60027         9.30478         4.80278
     2015.60301        14.75135         4.81387
     2015.60574         9.70792         4.67482
     2015.60848        14.27649         4.67055
     2015.61122        11.04607         4.64070
     2015.61396        12.89264         4.66117
     2015.61670        11.86921         4.70553
     2015.61943         8.13479         4.60060
     2015.62217        11.28536         4.55368
     2015.62491        12.59593         4.55880
     2015.62765        13.27751         4.56733
     2015.63039        10.46508         4.54515
     2015.63312        10.99565         4.63302
     2015.64494        21.33940        10.41171
     2015.64681         6.14352         4.66543
     2015.64955        10.96409         4.58780
     2015.65229        10.96466         4.54089
     2015.65503        13.41624         4.56818
     2015.65776        14.27181         4.78828
     2015.66050        10.40238         4.57757
     2015.66324        10.38696         4.56221
     2015.66598        10.64753         4.65349
     2015.66872        13.18410         4.70723
     2015.67145         6.69168         4.55027
     2015.67419         7.59925         4.52894
     2015.67693         7.40182         4.54174
     2015.67967         5.72140         4.57245
     2015.68240         2.38597         4.54686
     2015.68514         8.48454         4.55112
     2015.68788         5.73011         4.62705
     2015.69062        11.15969         4.54600
     2015.69336         6.37326         4.71832
     2015.69609         7.82983         4.55624
     2015.69883        11.20441         4.64325
     2015.70157        12.56398         4.55454
     2015.70431         7.28455         4.58780
     2015.70705        10.43113         4.55112
     2015.70978        10.78570         4.57842
     2015.71252         6.26827         4.55112
     2015.71526        10.14785         4.53150
     2015.71800        12.73742         4.56818
     2015.72073         8.29799         4.63046
     2015.72307         6.15790         5.43576
     2015.72992         5.52833         8.61002
     2015.73169         7.29928         4.50420
     2015.73363         7.64052         7.21867
     2015.73716         3.58343         4.56392
     2015.73990        13.18600         4.62363
     2015.74264        12.12358         4.61340
     2015.74538        12.02815         4.71662
     2015.74811         8.58072         4.71321
     2015.75085         3.77330         4.54600
     2015.75359         0.09387         4.63814
     2015.75633         7.11244         4.53150
     2015.75906         9.26401         4.52894
     2015.76180         5.98959         4.49311
     2015.76454         6.78416         4.56307
     2015.76728         0.26373         4.65946
     2015.77053        10.91916        17.89142
     2015.77275         6.03188         4.61510
     2015.77549         9.50445         4.49397
     2015.77823        13.61803         4.51700
     2015.78097        10.58560         4.54942
     2015.78371         8.76117         4.50079
     2015.78644        11.47775         4.52041
     2015.78918         7.42232         4.49397
     2015.79192         8.81789         4.53491
     2015.79466         7.39346         4.49823
     2015.79739         6.69204         4.59292
     2015.80013         5.42161         4.75501
     2015.80287         3.60118         4.53150
     2015.80561         6.73776         4.52894
     2015.80835         3.84433         4.50164
     2015.81108         6.33490         4.60401
     2015.81382         5.15548         4.56221
     2015.81656         5.36005         4.56904
     2015.81930         2.30762         4.53150
     2015.82203         3.67920         4.56051
     2015.82477        10.81577         4.59804
     2015.82751        -2.15266         4.56136
     2015.83025         9.02992         4.73965
     2015.83299         4.08849         4.65178
     2015.83572         5.40206         4.59292
     2015.83846         4.82563         4.61340
     2015.84120         2.18221         4.61510
     2015.84394         0.68778         4.64496
     2015.84668         0.20135         4.61169
     2015.84941         6.42593         4.67311
     2015.85215         5.65050         4.74562
     2015.85489         8.38707         4.60231
     2015.85763         0.84965         4.65008
     2015.86036         4.34322         4.62619
     2015.86310         4.95079         4.62363
     2015.86584         6.48237         4.60743
     2015.86858         4.15694         4.66202
     2015.87132         5.95751         4.65264
     2015.87405         1.70308         4.65861
     2015.87679        -1.82334         4.70638
     2015.87953         7.34923         4.83093
     2015.88227         1.40580         4.59975
     2015.88501        -3.50062         4.62534
     2015.88774        -2.87405         4.65434
     2015.88997         2.03567         6.03290
     2015.89423         6.60578         9.03144
     2015.89596         5.92867         4.59804
     2015.89869         1.30424         4.57330
     2015.90143        -1.57318         4.54600
     2015.90417        -2.84361         4.58866
     2015.90691         0.27496         4.63984
     2015.90965         2.18253         4.63984
     2015.91238         0.04611         4.62449
     2015.91512        -1.36232         4.62107
     2015.91786        -6.02875         4.66117
     2015.92060       -11.30417         4.71235
     2015.92334         3.78640         4.67738
     2015.92607         2.76797         4.65349
     2015.92881         0.99355         4.67908
     2015.93155        -0.67688         4.83861
     2015.93429         4.86069         5.18069
     2015.93702         7.42327         4.82240
     2015.93976         1.70684         4.96316
     2015.94250         6.61241         4.78657
     2015.94524         3.03198         4.72686
     2015.94798         5.66956         4.75842
     2015.95071         7.32013         4.55709
     2015.95345         0.74470         4.59548
     2015.95619         4.62628         4.63984
     2015.95870        -6.52953         5.17386
     2015.96988         5.45814         4.60743
     2015.97262        13.98472         4.61169
     2015.97535         7.93429         4.62449
     2015.97809         4.79586         4.59719
     2015.98083         1.00043         4.57671
     2015.98357        -9.17599         4.61340
     2015.98631        -3.74942         4.61766
     2015.98904        -3.56385         4.62022
     2015.99178        -7.36127         4.59122
     2015.99452        -5.75270         4.75245
     2015.99726        -5.52313         4.68250
     2016.00000        -0.10455         4.59634
     2016.00273         6.40902         4.65776
     2016.00547        10.60759         4.64411
     2016.00821        13.05017         4.61766
     2016.01368        15.60131         4.63302
     2016.01642        11.23688         4.71747
     2016.01916         0.01246         4.84031
     2016.02190        -3.47297         4.68591
     2016.02464        -2.26940         4.69870
     2016.02737        -3.77982         4.62875
     2016.03011        -3.44625         4.62022
     2016.03285         0.19632         4.60828
     2016.03559         5.44990         4.59719
     2016.03833         3.06947         4.67396
     2016.04106         1.96904         4.57757
     2016.04380         0.93962         4.57842
     2016.04654         1.52119         4.56477
     2016.04928         1.40776         4.52894
     2016.05201        -3.58466         4.54174
     2016.05475        -1.00309         4.52212
     2016.05749        -1.33052         4.56136
     2016.06023        -0.57195         4.57671
     2016.06297        -0.21737         4.52894
     2016.06570        -2.14980         4.61852
     2016.06844        -3.70023         4.65690
     2016.07118        -6.73165         4.65178
     2016.07392         0.46792         4.65008
     2016.07666        -0.26551         4.81387
     2016.07939         7.24307         4.65520
     2016.08219        -1.98527         4.89576
     2016.08487        -1.35879         4.59634
     2016.08761        -7.17121         4.63643
     2016.09034        -2.69964         4.58866
     2016.09308        -3.68307         4.61681
     2016.09542        -8.69616         5.45282
     2016.10483       -14.52944         7.15895
     2016.10677       -14.37520         4.57330
     2016.10951       -14.54163         4.60401
     2016.11225        -8.90306         4.57927
     2016.11498        -5.27548         4.62534
     2016.11772       -10.80991         4.62961
     2016.12046       -10.56234         4.60231
     2016.12320        -4.93176         4.62278
     2016.12594        -4.57819         4.56477
     2016.12867         2.73538         4.57501
     2016.13141         6.99395         4.59036
     2016.13415         3.82253         4.62790
     2016.13689        -1.56890         4.54515
     2016.13963        -2.88033         4.62278
     2016.14236       -14.12675         4.55283
     2016.14510        -6.73318         4.57160
     2016.14784        -8.29061         4.57074
     2016.15058        -6.71203         4.56818
     2016.15274        -2.90141         6.17963
     2016.15879        -6.77631         4.65008
     2016.16153        -7.88574         4.65349
     2016.16427        -3.16017         4.68250
     2016.16700        -0.37360         4.61254
     2016.16974        -7.68802         4.60231
     2016.17248        -4.83245         4.67226
     2016.17522         0.11112         4.57160
     2016.17796         6.34570         4.56989
     2016.18069         0.95527         4.68250
     2016.18343        -1.63116         4.75074
     2016.18617        -2.01858         4.56307
     2016.18891        -0.18301         4.52127
     2016.19164         1.56556         4.51188
     2016.19438         4.15014         4.46667
     2016.19712        -2.64129         4.51529
     2016.19986         5.06828         4.60060
     2016.20260        -5.99715         4.59804
     2016.20533        -3.60857         4.68164
     2016.20807        -0.20600         4.64240
     2016.21081        -8.33343         4.79595
     2016.21355        -5.02985         4.58354
     2016.21629        -7.57328         4.49226
     2016.21902        -0.94771         4.52212
     2016.22176         0.30187         4.49141
     2016.22450        -6.07356         4.49397
     2016.22724        -7.93299         4.54600
     2016.22997         0.26359         4.46923
     2016.23271        -3.03284         4.45387
     2016.23545        -5.07027         4.53662
     2016.23819        -0.28169         4.49141
     2016.24093        -2.75112         4.52724
     2016.24366        -4.28955         4.52041
     2016.24640         1.34402         4.46496
     2016.24914        -0.17940         4.47776
     2016.25188         0.43317         4.50506
     2016.25462        -2.80726         4.58866
     2016.25735        -4.60868         4.62449
     2016.26009        -6.60011         4.62449
     2016.26283        -6.77354         4.49909
     2016.26557         0.14604         4.50847
     2016.26830        -1.15739         4.50506
     2016.27104         3.30618         4.54259
     2016.27378         4.68976         4.52041
     2016.27652        -3.77767         4.51359
     2016.27926         3.05490         4.53406
     2016.28142        -1.24448         5.96466
     2016.28815        -5.73824         6.43214
     2016.29021        -7.06781         4.51018
     2016.29295        -4.85823         4.52553
     2016.29568        -4.68966         4.54771
     2016.29842         1.52691         4.58610
     2016.30116         2.12049         4.66117
     2016.30390         0.32906         4.58866
     2016.30663         4.90563         4.58013
     2016.30937        -1.53379         4.55112
     2016.31211        -1.46122         4.55198
     2016.31485         0.46635         4.55198
     2016.31759        -2.04608         4.54771
     2016.32032        -2.84550         4.50762
     2016.32306        -6.25793         4.51359
     2016.32580        -5.86636         4.50932
     2016.32854        -1.47878         4.51615
     2016.33128        -9.23121         4.53747
     2016.33401        -0.45064         4.54089
     2016.33675        -3.08406         4.60913
     2016.33949         0.20351         4.91794
     2016.34223        -2.46892         4.62534
     2016.34496        -2.46334         4.66714
     2016.34770         0.71223         4.62619
     2016.35044         3.28480         4.67823
     2016.35318         1.92237         4.53236
     2016.35592        -5.91205         4.50420
     2016.35865        -7.34548         4.52212
     2016.36139        -6.05591         4.50762
     2016.36413         3.35567         4.52297
     2016.36687         4.70024         4.56051
     2016.36961         6.17281         4.48885
     2016.37234         7.09439         4.50676
     2016.37508        -1.61104         4.50079
     2016.37782        -6.66447         4.51871
     2016.38056         6.91611         4.61169
     2016.38329         2.52468         4.49738
     2016.38603        -0.29075         4.49397
     2016.38877         8.46282         4.49482
     2016.39151        -0.87560         4.46326
     2016.39396        -2.32551         5.27794
     2016.41404        -6.00997         7.90539
     2016.41615        -5.85744         4.54942
     2016.41889        -3.79287         4.55368
     2016.42162        -3.24030         4.60913
     2016.42436        -4.20672         4.51871
     2016.42710         3.48585         4.51359
     2016.42984         0.31642         4.52041
     2016.43258         3.76999         4.55795
     2016.43531         1.70757         4.63728
     2016.43805         0.33214         4.54515
     2016.44079        -0.05829         4.51871
     2016.44353        -3.46971         4.48032
     2016.44626        -5.71914         4.50506
     2016.44900        -0.59457         4.53491
     2016.45174         1.58101         4.51956
     2016.45448        -0.07142         4.48629
     2016.45722        -2.80185         4.50420
     2016.45995         2.96673         4.53577
     2016.46269        -0.32270         4.53491
     2016.46543        -7.57413         4.50506
     2016.46822         2.73554         4.57671
     2016.47096         4.13811         4.68847
     2016.47370         3.26169         4.55454
     2016.47644         7.87526         4.63984
     2016.47918        -0.06717         4.70297
     2016.48191        -5.27359         4.58866
     2016.48465         2.16898         4.57416
     2016.48739        -0.02645         5.05017
     2016.49013         5.25412         4.63131
     2016.49287         1.30670         4.59122
     2016.49560         3.52127         4.61084
     2016.49828         2.44175         4.56392
     2016.50102        -0.25968         4.56648
     2016.50376        -0.76411         4.72003
     2016.50650         3.12447         4.62193
     2016.50924         0.50904         4.56904
     2016.51197         3.20261         4.56136
     2016.51477         2.48428         4.60487
     2016.51751         0.24386         4.72003
     2016.52024         4.81743         4.97083
     2016.52298         3.12200         4.61681
     2016.52572        -3.10543         4.60743
     2016.52846         2.61615         4.57501
     2016.53120        -3.84328         4.60316
     2016.53393         4.02129         4.53065
     2016.53667         3.86287         4.59634
     2016.53941         0.14944         4.53918
     2016.54215         3.73901         4.57757
     2016.54488         7.98559         4.78572
     2016.54762         2.19016         4.69273
     2016.55036         0.90373         4.66629
     2016.55310         1.45731         4.59719
     2016.55584         3.14988         4.77548
     2016.55852        -0.23464         4.87017
     2016.56131         4.49802         4.63814
     2016.56405         6.08060         4.61766
     2016.56679         2.80017         4.66032
     2016.56953         2.09374         4.85567
     2016.57226         5.57032         4.65946
     2016.57500         7.12689         4.77719
     2016.57774        10.09746         4.61852
     2016.58048         7.05204         4.55283
     2016.58321         2.23461         4.61254
     2016.58595         2.92018         4.66202
     2016.58869         2.60176         4.58525
     2016.59137         1.21923         4.56818
     2016.59365        12.61204         5.54068
     2016.60862         5.29505         7.63155
     2016.61054         4.67024         4.50506
     2016.61327         0.50682         4.52468
     2016.61601         4.97439         4.53918
     2016.61875         5.15696         4.56733
     2016.62149         2.25954         4.61169
     2016.62423         5.49011         4.60231
     2016.62696         4.54368         4.47179
     2016.62970         1.56626         4.48970
     2016.63244         3.37983         4.53918
     2016.63518         5.84340         4.46582
     2016.63791        10.57198         4.53150
     2016.64060        21.17345         4.80875
     2016.64339         5.17812         4.87188
     2016.64613         4.15370         4.49653
     2016.64887         0.49727         5.18325
     2016.65160         6.61084         4.60572
     2016.65434         1.40641         4.54089
     2016.65708         2.23099         4.60657
     2016.65982         2.82156         4.53321
     2016.66256         5.53913         4.57671
     2016.66529         6.25371         4.51444
     2016.66803         2.27828         4.54856
     2016.67077         4.15485         4.57842
     2016.67351         4.45843         4.53321
     2016.67624         6.48800         4.48714
     2016.67898         6.21257         4.67567
     2016.68172        12.83515         4.54600
     2016.68446         3.50772         4.68079
     2016.68720         8.68529         4.75159
     2016.68993         4.59886         4.66543
     2016.69267         2.46544         4.48629
     2016.69541         6.53701         4.65349
     2016.69815         7.49558         4.44364
     2016.70089         7.17316         4.44705
     2016.70362         8.96473         4.57501
     2016.70636         3.89630         4.70979
     2016.70910         4.73788         4.67482
     2016.71184        15.70945         4.54515
     2016.71457         9.19802         4.56563
     2016.71731        16.00060         4.48117
     2016.72005         8.82917         4.48458
     2016.72279         7.40474         4.44108
     2016.72553         9.18031         4.54600
     2016.72741         3.10446         7.18625
     2016.73734        15.51404         7.41573
     2016.73921         9.16718         4.45984
     2016.74195         7.87675         4.45217
     2016.74469         4.56133         4.50932
     2016.74743         7.32890         4.47691
     2016.75017         9.30447         4.51018
     2016.75290         6.78105         4.46496
     2016.75564        11.31562         4.58951
     2016.75838        10.34619         4.44620
     2016.76112         8.54576         4.47947
     2016.76386        10.24434         4.49397
     2016.76659         2.36291         4.46411
     2016.76933         6.32648         4.48288
     2016.77207        10.19306         4.54600
     2016.77481         1.19463         4.56904
     2016.77754         3.87220         4.51956
     2016.78028         1.01178         4.46667
     2016.78302         4.01035         4.48800
     2016.78576         3.78092         4.52468
     2016.78850        11.35050         4.51359
     2016.79123         6.63607         4.52980
     2016.79397        11.06564         4.68761
     2016.79677         7.66231         4.58866
     2016.79945        -2.42421         4.44278
     2016.80219         3.08936         4.60145
     2016.80492         0.64993         4.58183
     2016.80766         1.64651         4.63046
     2016.81040        -0.18092         4.50847
     2016.81314        -4.21135         4.47861
     2016.81587        -2.92177         4.46752
     2016.81861        -5.21120         4.50847
     2016.82135        -1.76963         4.52638
     2016.82409        -1.50905         4.59634
     2016.82683         1.95152         4.48117
     2016.82956         5.43009         4.54259
     2016.83230         4.51267         4.46240
     2016.83504         1.55924         4.46496
     2016.83778         0.97881         4.53236
     2016.84052        -5.53362         4.50335
     2016.84325        -0.79904         4.51018
     2016.84599         4.07153         4.49653
     2016.84873         2.35110         4.52724
     2016.85147        -2.73432         4.56477
     2016.85420        -6.31075         4.54771
     2016.85694        -5.91018         4.52724
     2016.85968        -2.74160         4.60060
     2016.86242        -3.01603         4.49994
     2016.86516         3.54654         4.60487
     2016.86789         0.58812         4.54856
     2016.87063        -0.81131         4.55198
     2016.87337         1.26926         4.58269
     2016.87611         5.74483         4.44364
     2016.87885        -3.00259         4.44278
     2016.88158        -5.71902         4.47179
     2016.88432        -0.61245         4.53577
     2016.88706         3.72413         4.49567
     2016.88980         3.39470         4.51956
     2016.89253         2.42527         4.49909
     2016.89527        -0.49815         4.50847
     2016.89801        -1.56358         4.49567
     2016.90075        -2.31501         4.54856
     2016.90349         0.73957         4.65776
     2016.90622         6.85114         4.59036
     2016.90896         3.94671         4.50932
     2016.91170        -0.01772         4.50847
     2016.91444         4.95286         4.50079
     2016.91718        -2.23557         4.73112
     2016.91991        -7.76100         4.57416
     2016.92265        -2.88242         4.53321
     2016.92539        -1.69285         4.52297
     2016.92813        -4.79928         4.48714
     2016.93086        -7.26970         4.46752
     2016.93360        -6.43713         4.84714
     2016.93634        -3.90056         4.48800
     2016.93908        -2.50398         4.59463
     2016.94182         4.15659         4.54515
     2016.94455        -1.62284         4.53833
     2016.94729         2.72073         4.58525
     2016.95003         0.01031         4.54942
     2016.95277        -0.28112         4.56051
     2016.95551        -2.30855         4.52809
     2016.95824        -0.76697         4.51359
     2016.96098        -0.77340         4.48117
     2016.96372        -8.88083         4.54003
     2016.96646        -5.75425         4.52041
     2016.96919        -3.10468         4.72259
     2016.97193        -3.87111         4.53406
     2016.97467         3.71347         4.54856
     2016.97741         5.01104         4.59634
     2016.98015         4.75961         4.51444
     2016.98288         0.61518         4.52212
     2016.98562        -0.94124         4.52980
     2016.98836        -1.33167         4.55709
     2016.99110         1.15390         4.51018
     2016.99384        -0.21452         4.51444
     2016.99657         3.29605         4.52980
     2016.99931        -0.71038         4.50932
     2017.00088        -0.45075        13.05025
     2017.00479         0.34277         4.48202
     2017.00695        -4.72561         6.12845
     2017.01026        -7.11408         4.46070
     2017.01300        -0.22451         4.46496
     2017.01574        -1.65594         4.48373
     2017.01848        -4.37836         4.49482
     2017.02121         0.77921         4.47947
     2017.02395         4.48478         4.48458
     2017.02669        -0.08265         4.53662
     2017.02943         4.05793         4.48970
     2017.03216        -6.26650         4.47605
     2017.03490        -8.23493         4.48288
     2017.03764       -10.36235         4.47349
     2017.04038       -10.17478         4.45729
     2017.04312        -8.05421         4.57074
     2017.04585        -3.91463         4.72856
     2017.04859         2.41294         4.71491
     2017.05133         8.54651         4.52724
     2017.05281         4.70899        17.96137
     2017.06616        -4.89472        10.87236
     2017.06776        -7.70905         4.54600
     2017.07049        -6.30748         4.49482
     2017.07261        -9.10095         6.36219
     2017.08145        -7.64418         4.65434
     2017.08418        -7.92861         4.48288
     2017.08692        -5.59704         4.48629
     2017.08966        -6.11546         4.49141
     2017.09240        -4.63989         4.53150
     2017.09514        -3.27432         4.51273
     2017.09787        -2.00075         4.48714
     2017.10061         0.17983         4.49311
     2017.10335        -6.18960         4.56051
     2017.10609        -6.93703         4.58098
     2017.10882        -2.95445         4.55368
     2017.11156         0.30212         4.61852
     2017.11430        -8.67131         4.48544
     2017.11704       -13.72373         4.83349
     2017.11978       -12.83016         4.49823
     2017.12251        -9.37159         4.48117
     2017.12531        -5.59192         4.67823
     2017.12805         0.69465         4.60572
     2017.13078         2.76323         4.57586
     2017.13347         0.11770         4.50932
     2017.13620        -1.34772         4.52980
     2017.13894        -3.00315         4.53150
     2017.14168        -5.50758         4.49226
     2017.14442        -7.17400         4.49311
     2017.14715        -7.65643         4.47776
     2017.14989        -7.64186         4.50591
     2017.15263        -4.03028         4.51018
     2017.15537         2.55729         4.50847
     2017.15811         1.96886         4.57586
     2017.16084        -1.36656         4.51103
     2017.16358        -6.14699         4.49141
     2017.16632        -6.02742         4.59975
     2017.16911        -5.05875         4.73027
     2017.17185         1.76682         4.68079
     2017.17459         0.18940         4.67141
     2017.17733        -1.08203         4.73453
     2017.18001        -2.79855         4.51018
     2017.18275        -7.66698         4.57330
     2017.18548        -8.51041         4.49482
     2017.18822        -9.08983         4.54259
     2017.19096       -12.98226         4.52127
     2017.19370        -4.98669         4.54174
     2017.19644        -8.14111         4.50079
     2017.19917        -2.71454         4.53406
     2017.20191        -3.76197         4.53577
     2017.20465        -7.66640         4.68591
     2017.20739        -4.79182         4.53406
     2017.21013         1.42375         4.51700
     2017.21286        -2.99868         4.50676
     2017.21560        -4.44610         4.50164
     2017.21834        -2.02553         4.54686
     2017.22108         0.15704         4.54259
     2017.22381        -6.02938         4.60487
     2017.22655        -3.92281         4.58695
     2017.22929        -7.45024         4.49909
     2017.23203        -2.19766         4.49909
     2017.23477        -6.41309         4.54515
     2017.23750        -4.64252         4.51615
     2017.24024        -9.86594         4.48032
     2017.24298        -8.79037         4.50591
     2017.24492        -8.17213         7.08218
     2017.25393        -8.33608         4.53150
     2017.25667        -7.78951         4.47008
     2017.25929        -9.61012         4.73283
     2017.26186        -4.29084         5.06382
     2017.26579         3.99874         8.07515
     2017.26762         0.01279         4.49738
     2017.27036        -2.71364         4.46326
     2017.27310        -7.11307         4.53577
     2017.27566        -9.12978         4.81813
     2017.29312        -9.45363         7.54966
     2017.29500       -11.10348         4.51871
     2017.29871        -7.59929         8.51533
     2017.30008        -8.43900         5.36410
     2017.30321       -12.78676         4.44449
     2017.30595       -10.50819         4.55880
     2017.30869        -9.68562         4.49567
     2017.31143        -5.22804         4.45984
     2017.31416        -4.59347         4.51273
     2017.31690        -5.75790         4.48714
     2017.31964        -4.02533         4.62875
     2017.32238        -8.68975         4.60913
     2017.32512       -11.47718         4.46155
     2017.32785        -9.47461         4.52468
     2017.33059       -10.66603         4.52127
     2017.33333       -14.01446         4.48714
     2017.33607        -9.96189         4.49823
     2017.33880        -8.81831         4.50506
     2017.34154        -1.93474         4.68420
     2017.34428        -9.40217         4.47520
     2017.34702        -8.00259         4.46070
     2017.34976        -5.60602         4.49226
     2017.35249        -8.48745         4.48202
     2017.35523       -10.56188         4.48544
     2017.35797       -10.09330         4.54259
     2017.36071       -10.38973         4.45814
     2017.36344        -8.21816         4.48970
     2017.36618       -12.87158         4.51700
     2017.36835        -5.86496         5.84267
     2017.37254       -18.54797         8.19373
     2017.37440        -7.30686         4.49823
     2017.37713        -8.86829         4.56051
     2017.37907       -18.75205         7.03355
     2017.38809        -6.79900         4.48458
     2017.39082        -7.88443         4.51956
     2017.39356         3.43715         4.55539
     2017.39630        -2.37628         4.50847
     2017.39904        -7.51271         4.45217
     2017.40177        -5.53013         4.47947
     2017.40451        -5.97456         4.59719
     2017.40725        -3.47599         4.50676
     2017.40999        -1.21441         4.61937
     2017.41273        -1.57184         4.58610
     2017.41546        -7.80627         4.54600
     2017.41820        -4.04369         4.58098
     2017.42094        -2.26612         4.50506
     2017.42368        -3.36155         4.58610
     2017.42642        -7.14897         4.50420
     2017.42915        -5.82440         4.48629
     2017.43189        -0.65483         4.53577
     2017.43463         2.92674         4.68676
     2017.43737        -2.34268         4.51956
     2017.44010        -2.17111         4.52809
     2017.44284        -0.05354         4.49909
     2017.44552        -0.66606         4.59889
     2017.44826         0.67051         4.60487
     2017.45191         7.46161         7.74245
     2017.45379         0.77376         4.63131
     2017.45579         5.04009         7.12568
     2017.46469        -0.25005         4.59975
     2017.46830       -17.31102         7.87383
     2017.47022        -3.95081         4.67396
     2017.47296        -1.77323         4.62961
     2017.47501        -1.95080         6.15745
     2017.48475       -12.22754         8.59467
     2017.48665        -0.00637         4.66202
     2017.48939         6.93421         4.60828
     2017.49212        -1.25022         4.57245
     2017.49486        -1.47065         4.51785
     2017.49760        -4.07407         4.64667
     2017.50034        -2.38850         4.54003
     2017.50308         1.12507         4.54259
     2017.50581        -6.03336         4.54515
     2017.50855        -7.17678         4.52297
     2017.51129        -4.56221         4.59036
     2017.51403        -3.69564         4.60145
     2017.51676        -5.98106         4.64581
     2017.51950         2.56951         4.52212
     2017.52224         4.62708         4.56818
     2017.52498        -0.97234         4.56904
     2017.52772        -2.02477         4.60828
     2017.53045        -0.35720         4.53321
     2017.53319        -1.21162         4.61937
     2017.53593         3.37295         4.66458
     2017.53867         0.00552         4.57416
     2017.54141         3.01009         4.52041
     2017.54414        -2.10933         4.51359
     2017.54688         1.67924         4.67567
     2017.54962         1.15681         4.52468
     2017.55162         0.11715         6.44835
     2017.56331         1.76868         4.64155
     2017.56605        -2.63475         4.62875
     2017.56878         0.80083         4.54089
     2017.57152         0.24240         4.56989
     2017.57426        -0.66403         4.53491
     2017.57700        -3.10846         4.52553
     2017.57974        -1.88888         4.56818
     2017.58247         0.06069         4.48800
     2017.58521        -4.44174         4.47435
     2017.58795        -3.42816         4.55454
     2017.59069        -3.44659         4.63899
     2017.59342         1.84498         4.58525
     2017.59616         2.79056         4.48714
     2017.59890         0.01013         4.49397
     2017.60164         2.02670         4.52468
     2017.60438        -1.66172         4.52894
     2017.60711         1.05485         4.57160
     2017.60985        -0.99158         4.65349
     2017.61259         4.85500         4.62278
     2017.61533        14.28357         4.81046
     2017.61727         6.36681         7.03441
     2017.62052         0.33724         5.03140
     2017.62354         5.53429         4.87444
     2017.62628         3.01686         4.70723
     2017.62902         3.05843         4.68250
     2017.63175        -1.36599         4.68079
     2017.63449        -0.47342         4.52212
     2017.63723        -1.00285         4.61596
     2017.63997         4.60273         4.58354
     2017.64271         4.00030         4.61681
     2017.64544        -0.95213         4.58183
     2017.64818         4.82945         4.57671
     2017.65092        -1.05998         4.49226
     2017.65366         4.13459         4.49909
     2017.65639         6.24716         4.52041
     2017.65913         6.93874         4.50847
     2017.66187         5.00331         4.52638
     2017.66461        10.84088         4.65946
     2017.66735         2.40646         4.62875
     2017.67008         6.59203         4.49482
     2017.67282         5.08660         4.63558
     2017.67556         4.88018         4.50164
     2017.67830         3.16775         4.47435
     2017.68104         5.57932         4.50676
     2017.68366         8.17470         4.86505
     2017.69556        11.58358         7.54710
     2017.69746         6.15476         4.59463
     2017.70020         3.33533         4.75757
     2017.70237        13.64695         6.35707
     2017.70651         9.80887         7.36966
     2017.70841        10.54505         4.47264
     2017.71115         4.28063         4.55283
     2017.71389         8.63020         4.66202
     2017.71663        12.21977         4.50847
     2017.71937         3.13435         4.50932
     2017.72210         7.30192         4.50676
     2017.72484         1.02949         4.51871
     2017.72758         6.29506         4.50676
     2017.73032         4.47664         4.51956
     2017.73305         4.98321         4.53918
     2017.73579         2.76978         4.53747
     2017.73853        -0.31064         4.49909
     2017.74127         2.27893         4.52638
     2017.74401        11.45050         4.58013
     2017.74674        -2.78692         4.59719
     2017.74948         7.72365         4.55965
     2017.75222         2.88522         4.51103
     2017.75496        -0.75120         4.54430
     2017.75770         1.18037         4.69103
     2017.76032        -0.29925         4.79851
     2017.77138         1.15023         4.65861
     2017.77412         2.60181         4.65605
     2017.77686        -3.84362         4.73027
     2017.77960        -0.16405         4.67226
     2017.78234         0.62253         4.65178
     2017.78507        -3.38590         4.64325
     2017.78781        -2.06133         4.59463
     2017.79055        -1.81375         4.60913
     2017.79329         5.14582         4.74136
     2017.79603         3.37739         4.64325
     2017.79876         5.13696         4.83519
     2017.80150         7.78654         4.74648
     2017.80424         6.81311         4.66885
     2017.80698        -3.09032         4.76012
     2017.80971        -4.57274         4.73283
     2017.81245        -7.22217         4.67226
     2017.81519        -4.51160         4.73965
     2017.81793        -4.43602         4.71662
     2017.82067        -7.43445         4.73368
     2017.82340        -4.51488         4.70041
     2017.82614        -2.97030         4.61937
     2017.82888        -5.45073         4.71150
     2017.83162         3.45084         4.66458
     2017.83436        -1.71658         4.75415
     2017.83709         1.15199         4.73112
     2017.83983         2.65656         4.74221
     2017.84257        -0.61887         4.64325
     2017.84531        -0.32929         4.73794
     2017.84804        -5.72072         4.71918
     2017.85078        -0.95715         4.63728
     2017.85352        -1.24857         4.68164
     2017.85626         2.44600         4.78998
     2017.85900         1.47957         4.74477
     2017.86173         0.38815         4.75927
     2017.86447        -2.08528         4.68335
     2017.86721         1.44429         4.65264
     2017.86995        -0.59613         4.62363
     2017.87269        -0.25756         4.62449
     2017.87542         0.05101         4.67141
     2017.87816         1.86158         4.65434
     2017.88090        -0.68584         4.58780
     2017.88364         0.12873         4.58269
     2017.88637         5.50130         4.65093
     2017.88911         5.32688         4.63387
     2017.89185        -3.90555         4.70212
     2017.89459        -5.36398         4.85993
     2017.89733         3.83260         4.61937
     2017.90006         2.69617         4.62705
     2017.90280         2.37574         4.61084
     2017.90554         7.51832         4.58098
     2017.90828         4.81589         4.61169
     2017.91102         1.28546         4.70468
     2017.91375        -1.51397         4.59463
     2017.91649         0.92561         4.63984
     2017.91923         2.42618         4.58183
     2017.92197         2.00875         4.59378
     2017.92470        -3.76067         4.63046
     2017.92744        -5.19810         4.56818
     2017.93018        -6.31553         4.60572
     2017.93292        -6.99795         4.67141
     2017.93566        -6.94038         4.64325
     2017.93839        -2.88781         4.61852
     2017.94113        -2.06823         4.66117
     2017.94387         4.90434         4.57160
     2017.94661         9.58491         4.71321
     2017.94935        11.36448         4.64837
     2017.95203        13.22196         4.86249
     2017.95541        18.42362         6.11053
     2017.95756        -9.54880         4.62022
     2017.96030        -0.04922         4.72941
     2017.96303         6.68435         4.68420
     2017.96577         6.18692         4.74903
     2017.96851         4.83250         4.82410
     2017.97125        -3.04293         4.60657
     2017.97399         1.37464         4.63728
     2017.97672        -1.16478         4.60231
     2017.97946        -3.03621         4.63131
     2017.98220        -6.10964         4.66714
     2017.98494       -10.43407         4.69273
     2017.98767        -9.72449         4.66543
     2017.99041       -10.67592         4.70723
     2017.99315        -1.56135         4.67567
     2017.99589        -6.79677         4.66885
     2017.99863        -4.72320         4.63984
     2018.00136        -8.94763         4.71321
     2018.00410        -9.48705         4.65776
     2018.00684        -2.50248         4.60060
     2018.00958         0.73209         4.53662
     2018.01232        -1.21933         4.53747
     2018.01505        -3.53276         4.60828
     2018.01779        -1.28719         4.59207
     2018.02053        -1.02161         4.56477
     2018.02327         4.50196         4.56477
     2018.02600        -0.68047         4.57245
     2018.02874        -3.43590         4.60231
     2018.03148        -8.60132         4.74989
     2018.03422        -8.39775         4.63643
     2018.03696       -10.61618         4.56051
     2018.03969        -8.88360         4.53918
     2018.04243       -12.30703         4.61766
     2018.04517       -14.29246         4.63814
     2018.04791        -5.35488         4.67823
     2018.05065        -0.35031         4.67567
     2018.05338         0.76726         4.63899
     2018.05612        -7.96116         4.67311
     2018.05886        -7.67959         4.64070
     2018.06160        -3.42902         4.67482
     2018.06433        -3.42345         4.76183
     2018.06707         3.51513         4.72600
     2018.06981        -6.46330         4.72088
     2018.07255        -3.98073         4.81472
     2018.07529        -8.46915         4.85737
     2018.07802        -7.40758         4.68932
     2018.08076        -6.51001         4.71918
     2018.08350        -5.95743         4.67738
     2018.08624       -10.40186         4.69017
     2018.08922        -6.99487         5.26685
     2018.09171        -0.54171         4.76695
     2018.09445         5.12286         4.75159
     2018.09719        -0.91557         4.86420
     2018.09993        -7.98500         5.95527
     2018.10266       -12.21842         6.18646
     2018.10540       -11.54685         6.11821
     2018.10814        -5.36028         6.13186
     2018.10974       -12.76461        11.08904
     2018.11723        -7.51210         7.44559
     2018.11909        -9.50398         6.49868
     2018.12183        -0.93041         6.27176
     2018.12457        -5.60684         6.25470
     2018.12731        -3.61326         6.10115
     2018.12890       -13.15360        11.66231
     2018.13913         0.60349         7.43620
     2018.14099        -6.23540         6.15745
     2018.14373        -7.88183         6.16172
     2018.14647        -6.53525         4.88638
     2018.14921        -0.33268         4.70979
     2018.15195        -2.66811         4.69956
     2018.15468        -1.56053         4.64411
     2018.15742        -1.81496         4.67055
     2018.16016         0.05861         4.66799
     2018.16290        -1.24281         4.72600
     2018.16564        -3.76024         4.73368
     2018.16837        -5.70667         4.66543
     2018.17111        -4.78010         4.63728
     2018.17385        -7.95452         4.70297
     2018.17659        -3.71195         4.67482
     2018.17932        -3.27238         4.67311
     2018.18206        -2.66780         4.83690
     2018.18505         0.11318         5.05273
     2018.18754        -2.22166         4.66373
     2018.19028        -6.99508         4.70553
     2018.19301        -3.12551         4.71321
     2018.19575        -0.21494         4.80790
     2018.19849         1.09264         4.73368
     2018.20123         5.77321         4.69785
     2018.20397         2.31478         4.71065
     2018.20670         2.21436         4.64923
     2018.20944        -1.35907         4.68164
     2018.21218        -3.58850         4.65008
     2018.21492       -15.87193         4.59804
     2018.21765         1.43465         4.58013
     2018.22039         4.22722         4.66287
     2018.22313         0.02979         4.64155
     2018.22587        -5.84063         4.56477
     2018.22861        -8.07506         4.53491
     2018.23134        -5.87249         4.53491
     2018.23408        -4.21791         4.65093
     2018.23682        -6.67934         6.04399
     2018.23956        -4.08277         5.80940
     2018.24230        -1.24719         5.93736
     2018.24389        -9.08753        13.11679
     2018.25125         1.07176         6.53621
     2018.25325        -7.70190         6.05679
     2018.25598        -1.44433         5.87423
     2018.25872        -3.11876         4.70723
     2018.26146        -1.07918         4.70553
     2018.26420         1.80239         4.69359
     2018.26694        -4.82504         4.64496
     2018.26967        -7.14046         4.58183
     2018.27241        -2.60689         4.68420
     2018.27515         3.47068         4.55624
     2018.27789         1.17326         4.74392
     2018.28062       -10.18917         4.80790
     2018.28336        -5.37160         4.59463
     2018.28610        -6.19703         4.56307
     2018.28884         0.89655         4.54345
     2018.29158         0.33112         4.82155
     2018.29431        -5.61531         6.25897
     2018.29705        -5.93573         5.91006
     2018.29979        -8.78816         6.29480
     2018.30139         9.03151        14.16350
     2018.30882        -7.17308         7.10265
     2018.31074        -8.25187         5.97148
     2018.31348        -2.52529         6.04996
     2018.31622        -4.69272         4.51871
     2018.31895        -1.24115         4.73794
     2018.32169        -2.63958         4.58354
     2018.32443        -4.94900         4.51188
     2018.32717        -9.16743         4.52297
     2018.32991        -6.93386         4.67567
     2018.33264        -4.29028         4.52894
     2018.33538        -3.40171         4.73368
     2018.33812        -4.60314         4.74392
     2018.34086        -6.86956         4.60145
     2018.34360        -5.52899         4.52724
     2018.34633       -11.83642         4.62278
     2018.34907        -4.94684         4.58866
     2018.35181         0.89573         4.69529
     2018.35455         4.18830         4.62705
     2018.35728        -1.67713         4.50335
     2018.36002        -5.93555         4.49311
     2018.36276        -2.16598         4.59378
     2018.36550        -2.08041         4.56307
     2018.36824         3.82317         4.70638
     2018.37097        -0.83526         6.16769
     2018.37371        -2.22569         6.11736
     2018.37645        -6.62611         6.40484
     2018.37805         9.19755        12.27737
     2018.38546         3.15094         7.06085
     2018.38740        -0.80582         6.04485
     2018.39014         6.33175         6.31186
     2018.39288         0.44132         4.59889
     2018.39561         3.10190         4.52894
     2018.39835         5.12647         4.53747
     2018.40109        -0.63896         4.54942
     2018.40383        -0.53438         4.62022
     2018.40657         1.86619         4.66032
     2018.40930         6.96776         4.79169
     2018.41204         7.90534         4.62107
     2018.41478        -2.95109         4.55283
     2018.42299         1.94263         4.67482
     2018.42573        -0.18380         4.63387
     2018.42847         2.56278         4.65008
     2018.43121         3.63235         4.70041
     2018.43394         0.45392         4.69614
     2018.43668        -0.15251         4.71150
     2018.43942         2.04607         4.62193
     2018.44216         1.47764         4.67482
     2018.44490        -0.47079         4.53662
     2018.44763         1.33879         4.61340
     2018.45037        -1.71364         4.56136
     2018.45311         0.43893         4.57842
     2018.45585         3.75451         4.58951
     2018.45859         3.97808         4.58013
     2018.46132        -7.20835         4.59975
     2018.46406         0.87623         4.59463
     2018.46680        -0.42320         4.58951
     2018.46954        -0.12263         4.72174
     2018.47227         2.65194         4.98619
     2018.47387        23.70161        11.62306
     2018.48145        19.31628        10.48678
     2018.48323         2.32824         6.12589
     2018.48596         1.88181         6.37498
     2018.48864        -3.44471         6.37754
     2018.49224        -9.13570         7.28009
     2018.49304        34.11262        11.29549
     2018.49757        -2.46881         6.53024
     2018.49965         7.57568         4.56136
     2018.50239        -1.79775         4.57416
     2018.50513        -1.54018         4.81899
     2018.50787         0.15639         4.65946
     2018.51060        -1.39003         4.80790
     2018.51334        -3.37546         4.69529
     2018.51608         4.40911         4.59036
     2018.51882         2.58769         4.62534
     2018.52156        -0.98074         4.69359
     2018.52429        -0.92117         4.61852
     2018.52703         1.16341         4.56904
     2018.52977        -0.69302         4.65264
     2018.53251         3.60155         4.59378
     2018.53525         5.72513         4.62107
     2018.53798         0.92770         4.61169
     2018.54072         7.00527         4.56563
     2018.54346        -0.31816         4.59207
     2018.54620         3.63742         4.59036
     2018.54893         4.66499         4.58183
     2018.55167         0.31956         4.57160
     2018.55441         0.86714         4.56818
     2018.55715         0.57171         4.98448
     2018.55989         7.75328         4.72003
     2018.56262         1.82686         4.55624
     2018.56536         1.65943         4.58951
     2018.56810         7.10000         4.72771
     2018.57084         4.73058         4.62193
     2018.57357         0.83715         4.68505
     2018.57631         3.70972         4.70553
     2018.57905         2.53129         5.01007
     2018.58179         4.24787         4.59634
     2018.58453         7.49744         4.67652
     2018.58726         4.55001         4.56051
     2018.59000         3.21259         4.59889
     2018.59274         6.58416         4.58269
     2018.59548         2.37273         4.57245
     2018.59822         5.33431         4.56989
     2018.60095         5.68788         4.59207
     2018.60369         7.85645         4.54089
     2018.60643         7.30403         4.58013
     2018.60917         0.65460         4.59036
     2018.61190         3.63417         4.52894
     2018.61464         4.78675         4.53150
     2018.61738         5.68832         4.53321
     2018.62012        10.12389         4.54942
     2018.62286         8.21746         4.68079
     2018.62559         5.23404         4.69273
     2018.62833         5.16861         4.52468
     2018.63107         1.13418         4.53662
     2018.63381        13.87276         4.65605
     2018.63655         5.34733         4.51785
     2018.63928         6.93890         4.82666
     2018.64202         6.18048         4.84287
     2018.64476        12.22505         4.61852
     2018.64750         6.05062         4.60572
     2018.65023         9.04720         4.71406
     2018.65297         9.16477         5.06467
     2018.65571         3.84434         4.61937
     2018.65845        10.23791         4.62278
     2018.66119         9.60749         4.62961
     2018.66418         8.86248         5.11671
     2018.66666         5.14663         4.60487
     2018.66940         5.58021         4.61340
     2018.67214        -0.85822         4.68420
     2018.67488         3.67735         4.60401
     2018.67761         5.75693         4.61084
     2018.68035         2.82550         4.65434
     2018.68309        -2.59993         4.73453
     2018.68583         2.39465         4.72344
     2018.68856         5.71722         4.67738
     2018.69130         8.09679         4.63814
     2018.69404         7.59136         4.81557
     2018.69678         6.09894         4.62107
     2018.69952        -1.86749         4.63558
     2018.70225        -0.28792         4.82155
     2018.70499        -1.94734         4.65605
     2018.70773         0.07623         4.64837
     2018.71047        -2.04220         4.67226
     2018.71321         0.55038         4.68505
     2018.71594         0.45995         4.62022
     2018.71868        -3.86948         4.61340
     2018.72142        -0.44890         4.65008
     2018.72416         1.56267         4.77292
     2018.72689         7.33224         4.66287
     2018.72963        -1.04219         4.60231
     2018.73237        -0.77061         4.63216
     2018.73511        -1.72304         4.64581
     2018.73785        -0.30447         4.66543
     2018.74058         0.14811         4.63302
     2018.74332         3.99268         4.59036
     2018.74606         2.68225         4.59463
     2018.74880        -0.42817         4.61340
     2018.75154         4.17640         4.64411
     2018.75427         4.51297         4.65008
     2018.75701         1.95555         4.74733
     2018.75975         1.16812         4.58695
     2018.76249         1.09169         4.56136
     2018.76522        -6.85674         4.67311
     2018.76796        -0.37916         4.55880
     2018.77070         8.32141         4.58269
     2018.77344         0.77998         4.50847
     2018.77618         2.19256         4.55112
     2018.77891         2.74413         4.56307
     2018.78165         4.80370         4.71577
     2018.78439         4.95728         4.53747
     2018.78713         2.38985         4.53150
     2018.78987        -2.33558         4.62278
     2018.79260        -1.84200         4.54430
     2018.79534         5.82357         4.56818
     2018.79808        -0.07586         4.51700
     2018.80082         2.67872         4.55965
     2018.80355         2.83529         4.50932
     2018.80629         3.63086         4.66543
     2018.80903        -1.27757         4.53406
     2018.81177        -0.73299         4.76012
     2018.81451         0.44558         4.63558
     2018.81724        -0.37585         4.59292
     2018.81998         6.72473         4.53065
     2018.82272         3.01830         4.58098
     2018.82546         3.85687         4.59122
     2018.82820         1.43845         4.54600
     2018.83093         2.26302         4.56733
     2018.83367         0.56859         4.61169
     2018.83641         0.95217         4.74818
     2018.83915         2.08974         4.61254
     2018.84188         2.55731         4.66202
     2018.84462         4.98788         4.56989
     2018.84736        -3.15754         4.54003
     2018.85010         0.54903         4.52638
     2018.85284         0.59360         4.54686
     2018.85557        -5.76182         4.58269
     2018.85831        -2.01625         4.68505
     2018.86105        -1.37668         4.52724
     2018.86379        -2.93410         4.64240
     2018.86653         1.94647         4.60060
     2018.86926        -7.68896         4.59548
     2018.87200        -0.25438         4.57757
     2018.87474         0.29619         4.60572
     2018.87748        -1.12424         4.65434
     2018.88021         0.02133         4.67226
     2018.88295        -1.09309         4.69359
     2018.88569        -0.08152         4.69614
     2018.88843         4.54705         4.72515
     2018.89117        -0.49337         4.76354
     2018.89390         5.15820         4.82155
     2018.89664        -2.88723         4.79937
     2018.89938        -0.48565         4.72174
     2018.90212        -2.78808         4.73197
     2018.90485         1.09949         4.76695
     2018.90759         7.96007         4.79084
     2018.91033         5.58764         4.72941
     2018.91307         4.51121         4.83093
     2018.91581         1.78778         4.77975
     2018.91854         4.82936         4.67994
     2018.92128         3.92893         4.65861
     2018.92402         1.53550         4.66032
     2018.92676         3.99208         4.65690
     2018.92950         6.18765         4.65008
     2018.93223        -1.04478         4.82155
     2018.93497        -0.35020         4.70382
     2018.93771        -1.39663         4.64837
     2018.94045         2.31294         4.70126
     2018.94318         6.11852         4.63558
     2018.94592         4.11209         4.61425
     2018.94866         6.04966         4.63899
     2018.95140         9.58323         4.75330
     2018.95414        12.53181         4.68250
     2018.95687         5.52338         4.60998
     2018.95961         4.88595         4.63643
     2018.96235         7.81853         4.67226
     2018.96509        -0.57690         4.70297
     2018.96783         2.71767         4.66032
     2018.97056         6.05625         4.68335
     2018.97330        -0.16118         4.61766
     2018.97604        -2.08261         4.73112
     2018.97872         1.07687         4.76780
     2018.98037        -4.07137        11.56506
     2018.98425         4.43911         4.81643
     2018.98699        -1.40832         4.74392
     2018.98973        -3.60974         4.68164
     2018.99247        -2.22017         4.69273
     2018.99520        -8.99660         4.76695
     2018.99794        -8.04202         4.70041
     2019.00068        -9.81345         4.70468
     2019.00342        -9.86288         4.72941
     2019.00616        -4.00030         4.76183
     2019.00889        -2.13873         4.69359
     2019.01163        -0.26316         4.64496
     2019.01437         3.95442         4.70382
     2019.01711         3.20899         4.69188
     2019.01984        -4.06144         4.71150
     2019.02258        -5.79586         4.66629
     2019.02532        -0.91729         4.72088
     2019.02806        -4.05672         4.67908
     2019.03080        -2.25115         4.66543
     2019.03353        -3.91757         4.64581
     2019.03627        -6.21200         4.58951
     2019.03901         6.93457         4.63728
     2019.04175         8.63615         4.66032
     2019.04449        15.43772         4.60316
     2019.04722        -3.16071         4.76268
     2019.04996        -9.48513         4.77121
     2019.05270        -6.05356         4.78657
     2019.05544        -3.82699         4.72003
     2019.05817        -7.26141         4.81387
     2019.06091        -1.16984         4.83264
     2019.06365        -5.57927         4.72259
     2019.06639        -0.57570         4.70468
     2019.06913        -1.13512         4.75927
     2019.07186        -1.40255         4.70212
     2019.07460        -4.14298         4.59634
     2019.07734        -0.94740         4.60231
     2019.08008         0.41417         4.67567
     2019.08282        -2.63026         4.75245
     2019.08555         2.23332         4.63046
     2019.08829         2.80389         4.57416
     2019.09103        11.10246         4.61852
     2019.09377         6.24904         4.62705
     2019.09650         5.87561         4.66032
     2019.09924        -1.47782         4.55027
     2019.10198        -7.57225         4.56733
     2019.10472        -4.01367         4.51103
     2019.10746        -4.03010         4.56904
     2019.11019        -0.75653         4.61425
     2019.11293         7.11305         4.73368
     2019.11567         5.13662         4.87444
     2019.11841        13.73519         4.61766
     2019.12388         8.92534         4.77463
     2019.12662         5.15891         4.64070
     2019.12936         0.05549         4.66458
     2019.13210        -1.46694         4.67311
     2019.13483        -2.89237         4.63302
     2019.13757         2.17520         4.65093
     2019.14031         2.63778         4.59207
     2019.14305        -0.92165         4.68250
     2019.14579        -1.28408         4.60743
     2019.14852         2.34150         4.64155
     2019.15126         2.81607         4.57416
     2019.15400        -8.73336         4.51700
     2019.15674        -4.35778         4.56392
     2019.15948        -7.89921         4.61937
     2019.16221        -6.78764         4.72344
     2019.16495        -5.03306         4.60828
     2019.16769        -8.53449         4.59378
     2019.17043        -9.30892         4.56989
     2019.17316        -6.17635         4.58610
     2019.17590        -3.02677         4.64837
     2019.17864        -1.35120         4.68505
     2019.18138        -4.28563         4.65178
     2019.18412       -13.32005         4.61852
     2019.18685        -8.34948         4.60743
     2019.18959        -8.44791         4.61852
     2019.19233         2.70967         4.63302
     2019.19507        -5.45176         4.63643
     2019.19780       -10.17919         4.69700
     2019.20054       -10.31361         4.77377
     2019.20328       -14.51604         4.71321
     2019.20602       -11.26847         4.65008
     2019.20876       -12.51689         4.62278
     2019.21149       -13.83532         4.62705
     2019.21423        -9.27175         4.63899
     2019.21697        -6.51318         4.59889
     2019.21971        -9.15060         4.85737
     2019.22245        -5.22903         4.59463
     2019.22518        -7.04646         4.62961
     2019.22792        -5.52488         4.74050
     2019.23066        -6.84531         4.56733
     2019.23340        -5.47974         4.55965
     2019.23602        -9.57135         4.86932
     2019.23912       -11.74917         4.95548
     2019.24161       -10.96102         4.75245
     2019.24435        -9.59744         4.81216
     2019.24709        -7.96587         4.72856
     2019.24982        -4.99130         4.46582
     2019.25256        -4.69373         4.67908
     2019.25530        -9.45015         4.60145
     2019.25804        -1.55858         4.63814
     2019.26078        -1.37901         4.67311
     2019.26351        -5.47343         4.69273
     2019.26625        -7.91586         4.59378
     2019.26899        -4.02929         4.60316
     2019.27173        -4.01071         4.84458
     2019.27446        -9.00214         4.57245
     2019.27720        -3.47957         4.68164
     2019.27994        -5.04599         4.56477
     2019.28268        -9.68442         4.58269
     2019.28542         1.68915         4.51956
     2019.28815        -2.54728         4.56904
     2019.29089        -2.40170         4.59036
     2019.29363        -7.82313         4.56307
     2019.29637        -6.93656         4.63728
     2019.29911         0.27202         4.59548
     2019.30184        -5.26041         4.53321
     2019.30458       -13.10584         4.56136
     2019.30732        -6.00126         4.54856
     2019.31006        -8.66569         4.64837
     2019.31279        -5.44112         4.69017
     2019.31553         4.33446         4.54259
     2019.31827        -5.71797         4.56563
     2019.32101        -3.85540         4.55795
     2019.32375       -15.12783         4.53833
     2019.32648        -5.98225         4.58610
     2019.32922        -6.78968         4.54089
     2019.33196        -4.86511         4.69700
     2019.33470        -2.02753         4.66799
     2019.33744        -0.64696         4.58525
     2019.34017        -5.60439         4.64411
     2019.34291        -3.39881         4.57501
     2019.34565        -3.56324         4.69017
     2019.34839       -10.02367         4.67652
     2019.35112        -6.10209         4.60401
     2019.35386        -3.41752         4.66287
     2019.35660         0.11505         4.61766
     2019.35934         3.37562         4.60743
     2019.36208         0.19520         4.64837
     2019.36481        -0.49323         4.58269
     2019.36755        -4.79466         4.61852
     2019.37029        -3.97908         4.72174
     2019.37303         0.74149         4.64070
     2019.37577        -0.85994         4.79510
     2019.37850         1.11164         4.55112
     2019.38124         3.83821         4.62278
     2019.38398         3.51178         4.60060
     2019.38672        -2.10864         4.68420
     2019.38945        -7.98007         4.65349
     2019.39219         2.84550         4.84628
     2019.39493        -3.50492         4.63216
     2019.39767        -5.61635         4.66117
     2019.40041        -3.13878         4.69188
     2019.40314         0.96779         4.59378
     2019.40474        16.95046        11.71008
     2019.40870        -3.36392         5.45196
     2019.41161        -2.55107         4.96060
     2019.41410        -3.59291         4.71577
     2019.41683         0.48666         4.60657
     2019.41957         2.29323         4.85993
     2019.42231        -9.12019         4.61596
     2019.42505         2.17638         4.62278
     2019.42778         2.53595         4.76012
     2019.43052         6.69653         4.63387
     2019.43326         0.27910         4.53833
     2019.43600        -4.79933         4.67567
     2019.43874        -6.90676         4.61766
     2019.44147        -7.63918         4.67908
     2019.44421        -0.43961         4.71321
     2019.44695        -5.88604         4.76866
     2019.44969         3.70354         4.71918
     2019.45243        -0.12889         4.60828
     2019.45516        -2.13332         4.67652
     2019.45790        -1.85874         4.65776
     2019.46064        -4.23417         4.73283
     2019.46338        -0.05360         4.96486
     2019.46566         3.64221         5.93992
     2019.46885         1.63955         4.78998
     2019.47159        -1.77988         4.68505
     2019.47433        -3.45331         4.83349
     2019.47707         0.26227         4.74733
     2019.47980         0.16584         4.68676
     2019.48254        -5.51859         4.76610
     2019.48511        -4.49930         5.07832
     2019.48827        -8.42702         5.18239
     2019.49076        -5.74587         4.63302
     2019.49349        -7.92629         4.67823
     2019.49623         1.73228         4.62363
     2019.49897        -6.52715         4.62705
     2019.50171         0.90243         4.54942
     2019.50444        -1.92800         4.60401
     2019.50718         1.58157         4.66885
     2019.50992        -4.79286         4.75330
     2019.51266        -1.89128         4.63216
     2019.51540         0.88829         4.62107
     2019.51813         2.28286         4.72856
     2019.52087        -3.76356         4.65690
     2019.52361        -3.56399         4.71662
     2019.52635        -1.67042         4.61425
     2019.52908        -2.24284         4.85823
     2019.53182        -5.20727         4.73965
     2019.53456        -4.25270         4.70553
     2019.53730        -2.04212         4.74050
     2019.54004         2.34645         4.65178
     2019.54277         5.62402         4.80790
     2019.54551        -2.68341         4.96742
     2019.54825         3.49517         4.63131
     2019.55099        -2.58526         4.63131
     2019.55373        -0.41469         4.82581
     2019.55646         3.64189         4.82155
     2019.55920        -0.84654         4.91624
     2019.56194         5.58503         7.72710
     2019.56468        -0.56139         4.70638
     2019.56741        -6.40882         4.67908
     2019.57015        -0.71225         4.62193
     2019.57289        -1.23667         4.60743
     2019.57563         5.43390         4.66970
     2019.57837        -0.75653         4.70468
     2019.58110         1.35004         4.58610
     2019.58384         0.89962         4.80704
     2019.58658        -1.71381         4.60487
     2019.58932         4.66876         4.59122
     2019.59206         5.10534         4.68164
     2019.59479         1.85591         4.63728
     2019.59753         6.42948         4.81899
     2019.60027         5.48806         4.94353
     2019.60301         0.69163         4.61510
     2019.60574         6.35420         4.88467
     2019.60848         4.65678         4.86079
     2019.61122        -6.02565         4.61937
     2019.61396        -3.45208         4.78828
     2019.61670         3.94750         4.63472
     2019.61943         8.70707         4.64581
     2019.62217         4.84064         4.81557
     2019.62491         5.65821         4.74989
     2019.62765         6.05479         4.68420
     2019.63039         9.55536         4.64752
     2019.63312        -3.46207         4.66970
     2019.63586         4.70651         4.81472
     2019.63860         2.78408         4.93842
     2019.64407         0.10123         4.87614
     2019.64681        -2.81320         4.76012
     2019.64955        -3.19863         4.67141
     2019.65229         6.51595         4.67055
     2019.65503         2.16752         4.73965
     2019.65771         1.30800         4.89832
     2019.66075        -3.46691         5.41358
     2019.66324         2.33024         4.71235
     2019.66598         2.01481         4.70126
     2019.66872         2.06038         4.70553
     2019.67145         1.39496         4.69785
     2019.67419         5.86953         4.69017
     2019.67693         3.22110         4.92050
     2019.67967        -0.22332         4.80790
     2019.68240         1.35825         4.65520
     2019.68514        10.82582         4.73197
     2019.68788         7.94640         4.81728
     2019.69062         3.88997         4.67908
     2019.69336        -6.89546         4.63984
     2019.69609         0.25811         4.68335
     2019.69883        -3.63131         4.73880
     2019.70157         1.34926         4.65690
     2019.70431         1.52083         4.73794
     2019.70705         5.43941         4.65349
     2019.70978         0.53998         4.68250
     2019.71252        -6.19045         4.76780
     2019.71526        -2.77987         4.58098
     2019.71800         2.74170         4.82155
     2019.72073         1.37227         4.80193
     2019.72347        -0.28515         4.63302
     2019.72621        -6.19158         4.67908
     2019.72895        -6.63301         4.73880
     2019.73169         1.45556         4.68079
     2019.73442        -5.87786         4.83178
     2019.73716         3.11471         4.59719
     2019.73990         3.80128         4.77292
     2019.74264         3.23986         4.67823
     2019.74538         4.69243         4.56136
     2019.74811         4.26300         4.68761
     2019.75085         2.74658         4.67994
     2019.75359         2.25415         4.84117
     2019.75633         4.32172         4.69444
     2019.75906         4.41130         4.59292
     2019.76180        -1.28413         4.58780
     2019.76454        -0.33056         4.66117
     2019.76728         3.08301         4.78145
     2019.77002        -1.35941         4.69017
     2019.77275        -0.39584         4.71747
     2019.77549         3.03473         4.65861
     2019.77823         1.18031         4.65605
     2019.78097         5.18588         4.64752
     2019.78371         2.06045         4.62619
     2019.78644         0.76503         4.60060
     2019.78918         6.56160         4.67908
     2019.79192         3.52217         4.70041
     2019.79466        12.11175         4.69444
     2019.79739         3.71332         4.77548
     2019.80013         5.44689         4.68420
     2019.80287         5.10547         4.72430
     2019.80561         3.93004         4.85652
     2019.80835        -1.21239         4.70297
     2019.81108        -1.40982         4.64070
     2019.81382         0.09276         4.64240
     2019.81656         3.28033         4.73368
     2019.81930        -2.84510         4.66885
     2019.82203        -0.05352         4.67823
     2019.82477        -1.16295         4.69700
     2019.82751        -2.30538         4.71662
     2019.83025         1.21720         4.80790
     2019.83299        -2.43323         4.82069
     2019.83572         1.29334         4.71406
     2019.83846         2.25492         4.74562
     2019.84120         3.54149         4.74733
     2019.84394         5.86406         4.92135
     2019.84668        -3.90237         4.73112
     2019.84941         0.20821         4.73453
     2019.85215         2.37378         4.72515
     2019.85489         2.19935         4.91880
     2019.85763         3.48093         4.74648
     2019.86036        -3.58650         4.65434
     2019.86310        -2.55893         4.85140
     2019.86584         4.54065         4.75927
     2019.86858         5.69622         4.69529
     2019.87132         1.50479         4.80790
     2019.87405         0.06237         4.67652
     2019.87679        -1.25206         4.78828
     2019.87953         4.89651         4.66287
     2019.88227         8.08808         4.74392
     2019.88501         8.84566         4.71321
     2019.88774         8.50923         4.82069
     2019.89048        10.75380         4.64496
     2019.89322         6.60238         4.60657
     2019.89596         8.55995         4.75501
     2019.89869         9.34952         4.71065
     2019.90143         7.07110         4.71235
     2019.90417         9.56467         4.68932
     2019.90691         6.21424         4.66202
     2019.90965         4.14782         4.67055
     2019.91238         5.77639         4.70212
     2019.91512         7.93996         4.76012
     2019.91786        11.07853         4.70297
     2019.92060         5.86811         4.66714
     2019.92607         0.65825         4.71747
     2019.92881         1.01183         4.69103
     2019.93155         9.14940         4.67652
     2019.93429         6.40997         4.63728
     2019.93702        -0.10145         4.68250
     2019.93976         1.50012         4.66543
     2019.94250        -3.32231         4.68676
     2019.94524        -6.14373         4.86249
     2019.94798        -5.11616         4.65861
     2019.95071         2.31641         4.89150
     2019.95345         5.85598         4.66117
     2019.95619         0.52856         4.67311
     2019.95893        -0.54187         4.70894
     2019.96167         2.98470         4.64837
     2019.96440         1.29628         4.88467
     2019.96714        -2.76615         4.80193
     2019.96988        -0.69358         4.69103
     2019.97262         0.36500         4.70979
     2019.97535         3.71457         4.70212
     2019.97809        -0.59586         4.67652
     2019.98083        -2.10828         4.69785
     2019.98357        -4.21271         4.69700
     2019.98631         0.96786         4.67994
     2019.98904         1.02344         4.73027
     2019.99178         1.03201         4.69785
     2019.99452        -1.00342         4.68847
     2019.99726         4.94615         4.66885
     2020.00000        10.51273         4.74562
     2020.00273         1.03130         4.73624
     2020.00547         4.15287         4.76610
     2020.00821         2.74445         4.77036
     2020.01095         1.07102         4.80107
     2020.01368        -3.86641         4.78401
     2020.01642        -0.77783         4.79766
     2020.01916         2.83474         4.73027
     2020.02190        -1.10169         4.77633
     2020.02464        -5.08011         4.78657
     2020.02737         0.50346         4.70041
     2020.03011         2.12603         4.71577
     2020.03285        -4.79040         4.70894
     2020.03559        -2.64482         4.55880
     2020.03833        -3.68325         4.59804
     2020.04106         3.78932         4.70468
     2020.04380        -4.73210         4.65861
     2020.04654        -1.92053         4.57671
     2020.04928        -2.96396         4.63387
     2020.05201        -1.43238         4.60231
     2020.05475        -0.12881         4.53577
     2020.05749        -1.29424         4.59036
     2020.06023        -3.48266         4.63387
     2020.06297        -2.74809         4.70468
     2020.06570         3.24748         4.66373
     2020.06844        -1.35495         4.66117
     2020.07118         2.69463         4.64155
     2020.07392        -0.91280         4.72686
     2020.07666        -7.38623         4.59122
     2020.07934         1.91825         4.74136
     2020.08213         1.55192         4.63984
     2020.08487        -5.15551         4.70126
     2020.08761        -0.31793         4.59634
     2020.09034        -0.32436         4.50164
     2020.09308        -2.91479         4.62449
     2020.09582         1.13179         4.62278
     2020.09856         6.75436         4.79681
     2020.10130        -0.59207         4.64581
     2020.10403        -0.94850         4.61766
     2020.10677        -4.25592         4.62961
     2020.10951        -7.55335         4.59292
     2020.11225         0.11622         4.61425
     2020.11498        -0.04120         4.62534
     2020.11772        -4.15463         4.83690
     2020.12046         1.16094         4.82496
     2020.12320        -5.43748         4.60316
     2020.12594        -2.03291         4.62363
     2020.12867        -3.89034         4.64496
     2020.13141        -2.66776         4.66373
     2020.13415        -7.55419         4.60145
     2020.13689        -2.60062         4.69614
     2020.13963        -0.01705         4.73880
     2020.14236        -0.09547         4.68676
     2020.14510        -1.26990         4.73453
     2020.14784        -3.02233         4.71918
     2020.15058        -6.45775         4.63046
     2020.15331        -7.41818         4.62961
     2020.15605        -5.56461         4.62449
     2020.15881        -3.23199         4.68761
     2020.16153         1.87654         4.71577
     2020.16427         0.16111         4.60572
     2020.16700         1.83069         4.67396
     2020.16974        -1.28074         4.71321
     2020.17248         2.58483         4.72003
     2020.17522         2.24240         4.62107
     2020.17796         1.53298         4.69188
     2020.18069        -4.33445         4.69529
     2020.18343         0.61912         4.60401
     2020.18617        -2.24930         4.58354
     2020.18891        -3.57573         4.68591
     2020.19164        -2.44116         4.76268
     2020.19438        -2.90758         4.75757
     2020.19712        -3.80401         4.72941
     2020.19986        -3.36644         4.70894
     2020.20260        -4.48286         4.72686
     2020.20533        -1.05829         4.70041
     2020.20807        -1.88772         4.63984
     2020.21081        -2.23014         4.73368
     2020.21355        -4.56357         5.02969
     2020.21629         0.71000         4.94609
     2020.21902        -3.68943         4.88979
     2020.22176        -4.72985         4.75586
     2020.22450         7.46972         4.70126
     2020.22724         2.90429         4.66373
     2020.22997         2.50387         4.71491
     2020.23271         2.81044         4.66885
     2020.23545        -0.86599         4.69870
     2020.23819        -0.52241         4.69103
     2020.24093        -1.20684         4.66287
     2020.24366        -1.16427         4.73965
     2020.24640        -2.19169         4.73027
     2020.24914        -5.30112         4.74050
     2020.25188        -7.41555         4.70979
     2020.25462        -2.19698         4.67055
     2020.25735         0.10460         4.71321
     2020.26009         5.69717         4.69956
     2020.26283         3.47674         4.66799
     2020.26557        -3.24868         4.71918
     2020.26830         0.49689         4.63984
     2020.27104        -1.64054         4.63643
     2020.27378        -2.76096         4.70041
     2020.27652         1.24961         4.77463
     2020.27926         1.21818         4.83434
     2020.28199        -0.84024         4.75074
     2020.28473        -2.71167         4.70468
     2020.28747        -0.04410         4.68335
     2020.29021        -2.30853         4.69017
     2020.29295        -0.91395         4.72174
     2020.29568         4.05262         4.73539
     2020.29842         1.08319         4.71662
     2020.30116         5.70577         4.68591
     2020.30390         0.92734         4.69529
     2020.30663         1.02991         4.68079
     2020.30937        -4.57751         4.91197
     2020.31211        -1.06094         4.74562
     2020.31485        -1.99037         4.76268
     2020.31759        -1.69779         4.72259
     2020.32032         1.93278         4.69956
     2020.32306        -1.06865         4.68761
     2020.32580        -3.91108         4.73197
     2020.32854        -0.85050         4.72259
     2020.33128         0.80107         4.70382
     2020.33401        -0.14736         4.77804
     2020.33675         5.63222         4.71235
     2020.33949        -3.39521         4.68761
     2020.34223        -5.36764         4.84458
     2020.34496        -4.47606         4.83946
     2020.34770        -4.21749         4.67823
     2020.35044        -0.79692         4.76439
     2020.35318        -0.38434         4.83861
     2020.35592        -2.66577         4.83349
     2020.35865         3.70280         4.77633
     2020.36139         6.26837         4.73880
     2020.36413         0.81495         4.74306
     2020.36687         2.70352         4.82752
     2020.36961        -0.78291         4.70979
     2020.37234         2.67967         4.67652
     2020.37508         3.76524         4.66799
     2020.37782         5.08581         4.67567
     2020.38056        -5.01561         4.62705
     2020.38329        -1.77504         4.65434
     2020.38603        -4.24847         4.69017
     2020.38877         1.93811         4.75245
     2020.39151        -1.64432         4.63728
     2020.39425        -0.46475         4.66373
     2020.39698        -1.93317         4.62875
     2020.39972        -6.57760         4.65605
     2020.40246         0.01597         4.58951
     2020.40520         0.04254         4.66799
     2020.40794        -4.26388         4.62193
     2020.41067        -0.55831         4.79339
     2020.41341        -0.50274         4.61254
     2020.41615        -4.74916         4.61937
     2020.41889        -2.89559         4.58780
     2020.42162        -3.11602         4.71406
     2020.42436        -1.65544         4.86591
     2020.42710        -0.86687         4.97083
     2020.42984        -0.47030         4.74989
     2020.43258         2.35228         4.75671
     2020.43531         3.65285         4.66287
     2020.43805        -4.00258         4.81899
     2020.44079        -9.65501         4.91112
     2020.44353        -1.87243         4.89320
     2020.44626        -3.30586         4.70041
     2020.44900        -1.15229         4.65520
     2020.45174         3.00629         4.72515
     2020.45448         1.28686         4.65690
     2020.45722        -0.01757         4.63302
     2020.45995        -2.02599         4.66117
     2020.46269        -5.40042         4.68420
     2020.46543         1.23215         4.66714
     2020.46817        -1.30827         4.68079
     2020.47091         3.43730         4.68676
     2020.47364        -5.21413         4.66202
     2020.47638         1.18544         4.60828
     2020.47912         4.35102         4.74562
     2020.48186         0.50959         4.61169
     2020.48459        -1.48584         4.80107
     2020.48733         1.86674         4.98704
     2020.48979         6.89983         5.32144
     2020.49307         1.57431         5.29500
     2020.49555         5.60846         4.79766
     2020.49828         2.84403         4.66970
     2020.50102        -0.38140         4.63984
     2020.50376         0.41818         4.63216
     2020.50650        -1.53025         4.61937
     2020.50924        -5.80568         4.64496
     2020.51197        -1.07811         4.60316
     2020.51471        -0.28353         4.63302
     2020.51745         0.12004         4.56051
     2020.52019         8.65861         4.78486
     2020.52292        -0.84481         4.75501
     2020.52566         2.46176         4.70468
     2020.52840         7.25633         4.80790
     2020.53114         0.75891         4.70297
     2020.53388         2.72248         4.68420
     2020.53661        -0.26095         4.74050
     2020.53935        -3.37237         4.75415
     2020.54209         3.44120         4.86164
     2020.54483         2.32277         4.70126
     2020.54757         5.23134         4.68761
     2020.55030         0.74492         4.66799
     2020.55304         1.85549         4.72771
     2020.55578         1.03306         4.71577
     2020.55852         7.54664         4.79084
     2020.56125         6.37221         4.70894
     2020.56399         7.14378         4.75330
     2020.56673         3.19636         4.69614
     2020.56947         5.73293         4.68847
     2020.57221         6.98050         4.80875
     2020.57494         6.83608         4.73453
     2020.57768         8.77465         4.73709
     2020.58042        -1.20878         4.88638
     2020.58316        -4.80520         4.75074
     2020.58590         2.62437         4.78316
     2020.58863         8.30794         4.75159
     2020.59137         8.99751         4.75842
     2020.59411         9.43709         4.73112
     2020.59685        -1.76034         5.18069
     2020.59958        -1.12077         4.88979
     2020.60232         1.31881         4.71150
     2020.60506         2.18738         4.72941
     2020.60780        -0.04805         4.68932
     2020.61054         5.14953         4.76951
     2020.61327         2.00510         4.82496
     2020.61601         2.27667         4.75927
     2020.61875        -1.33075         4.71406
     2020.62109        -3.64785         5.83584
     2020.62696         0.89196         4.83775
     2020.62970         6.73054         4.75330
     2020.63244         8.30411         4.86761
     2020.63518         8.74268         4.85055
     2020.63791         6.74826         4.94951
     2020.64065         4.07283         4.86676
     2020.64339        -0.96460         4.78742
     2020.64613         7.49098         4.78316
     2020.64887         5.72355         4.84031
     2020.65160         6.58012         4.82325
     2020.65434         2.95370         4.80193
     2020.65708         3.59527         5.10732
     2020.65982         3.09284         4.80022
     2020.66256        -1.37959         4.74136
     2020.66529        11.43099         4.94098
     2020.66803         4.36256         4.79425
     2020.67077         5.75813         4.81216
     2020.67351         9.35371         4.74903
     2020.67624         2.32128         4.79595
     2020.67898         1.95785         4.74562
     2020.68172        -0.43757         4.79595
     2020.68446         2.04900         4.78230
     2020.68720         1.62857         4.72600
     2020.68993         3.05815         4.71406
     2020.69267         2.01672         4.84117
     2020.69541         3.26129         5.01007
     2020.69815         0.82886         4.83434
     2020.70089         5.44144         4.71832
     2020.70362        -1.32299         4.69614
     2020.70636         0.91058         4.94012
     2020.70910        -0.11484         4.93756
     2020.71184         1.27773         4.87102
     2020.71457         6.72630         4.85567
     2020.71731         2.41388         4.84373
     2020.72005        -3.79355         4.79851
     2020.72279         6.15202         4.78486
     2020.72553         3.77960         4.84287
     2020.72826         6.98117         4.92989
     2020.73100         5.81874         4.87358
     2020.73374         7.17531         4.69273
     2020.73648         5.52589         4.76951
     2020.73921         0.01446         4.75842
     2020.74195         4.00103         4.68335
     2020.74469         2.37161         4.73027
     2020.74743         4.93718         4.68847
     2020.75017         3.55175         4.71832
     2020.75290         1.49433         4.72430
     2020.75564         1.67690         4.72771
     2020.75838         0.08147         4.63814
     2020.76112         2.60505         4.74562
     2020.76386        -1.12138         4.70212
     2020.76659         1.33719         4.61852
     2020.76933         6.06876         4.76610
     2020.77207         3.17034         4.67652
     2020.77481         2.53691         4.77889
     2020.77754         9.21748         4.71406
     2020.78028         4.48106         4.82752
     2020.78302         0.47263         4.77889
     2020.78576         4.93520         4.76951
     2020.78850        -4.21922         4.74050
     2020.79123         3.04435         4.85311
     2020.79397         4.66092         4.82155
     2020.79671         3.59750         4.79084
     2020.79945         4.74207         4.72259
     2020.80219         2.20464         4.84458
     2020.80492         6.98722         4.77975
     2020.80766        -5.56921         4.83093
     2020.81040         0.11836         4.84373
     2020.81314         2.49293         4.80875
     2020.81587        -4.62049         4.73880
     2020.81861        -4.72293         4.80107
     2020.82135         1.29665         4.81728
     2020.82409        -1.29377         4.73453
     2020.82683        -3.32120         4.78572
     2020.82956         4.18137         4.91453
     2020.83230         0.02995         4.83093
     2020.83504         0.81652         4.85482
     2020.83778         0.72209         4.72856
     2020.84052         7.33467         4.76098
     2020.84325         3.69824         4.84373
     2020.84599         4.23381         4.91794
     2020.84873         4.47438         4.73453
     2020.85147         1.36096         4.68335
     2020.85694         9.06310         4.74306
     2020.85968         6.73368         4.81216
     2020.86242         7.80125         4.74562
     2020.86516         5.67282         4.87102
     2020.86789         8.01240         4.94012
     2020.87063        10.78197         4.79339
     2020.87337         8.17454         4.82752
     2020.87611         5.31812         4.93074
     2020.87885        11.14069         4.91197
     2020.88158         3.61826         4.88297
     2020.88432         8.06683         4.80193
     2020.88706        -0.64159         4.92306
     2020.88980        -1.76802         4.76951
     2020.89253        -1.34445         4.74818
     2020.89527         3.54013         4.91709
     2020.89801         4.32670         4.90685
     2020.90075         5.65627         4.75501
     2020.90349         1.59785         4.75757
     2020.90622         0.98542         4.72771
     2020.90896        -1.49301         4.98107
     2020.91170         0.78257         4.93415
     2020.91444         1.31914         4.85652
     2020.91718        -2.71329         4.80704
     2020.91991        -5.74672         4.75415
     2020.92168        -7.82876         9.02376
     2020.92573        -7.23800         5.42893
     2020.92813        -8.30000         4.65946
     2020.93086       -15.34342         4.77633
     2020.93360        -6.01285         4.69359
     2020.93634       -29.53328        17.78393
     2020.93908         0.51530         4.88211
     2020.94182        -5.25513         4.77719
     2020.94455        -7.32956         4.79510
     2020.94729        -5.50098         4.76183
     2020.95003        -7.43241         4.89406
     2020.95277       -12.85184         4.75757
     2020.95551        -3.95427         4.81557
     2020.95824        -6.85669         4.82581
     2020.96098        -2.19612         4.77207
     2020.96372        -6.80855         4.76439
     2020.96646        -4.10397         4.85226
     2020.96919        -2.97140         4.77377
     2020.97193        -7.06683         4.72344
     2020.97467        -0.98025         4.86249
     2020.97741       -10.10068         4.84714
     2020.98015        -5.92711         4.94012
     2020.98288        -2.65753         4.83946
     2020.98562        -5.12496         4.67141
     2020.98836         3.50061         4.67567
     2020.99110         0.75419         4.66117
     2020.99384        -1.86124         4.66543
     2020.99657         0.13933         4.67908
     2020.99931         0.71990         4.63131
     2021.00205        -6.07952         4.72941
     2021.00479         7.84805         4.69529
     2021.00752         3.60162         4.73624
     2021.01026         2.70020         4.69103
     2021.01300         3.53577         4.64155
     2021.01574         1.99434         4.70468
     2021.01848        -2.27808         4.72515
     2021.02121        -5.67351         4.81557
     2021.02395        -4.57094         4.66885
     2021.02669        -4.46036         4.65605
     2021.02943        -4.35479         4.67055
     2021.03216        -2.59822         4.72430
     2021.03450         8.53369         5.86314
     2021.04038       -10.90050         4.71747
     2021.04312        -5.27493         4.64923
     2021.04585        -3.79935         4.80960
     2021.04859        -8.79278         4.67141
     2021.05133        -7.07321         4.71747
     2021.05407        -1.16263         4.93244
     2021.05681        -2.46506         4.79510
     2021.05954        -6.78049         4.66202
     2021.06776        -0.28377         4.66373
     2021.07049         0.57280         4.67226
     2021.07323        -1.20462         4.66287
     2021.07597        -9.36005         4.68591
     2021.07871        -5.91948         4.65946
     2021.08145        -3.87490         4.71577
     2021.08418       -11.62133         4.80107
     2021.08692        -5.95776         4.75330
     2021.08966        -4.45618         4.77719
     2021.09240       -12.55861         4.71832
     2021.09514        -8.38504         4.84799
     2021.09787        -4.29346         5.00154
     2021.10061        -6.79789         4.81984
     2021.10335        -1.79332         4.79084
     2021.10609        -5.97975         4.68505
     2021.10882        -5.09517         4.67908
     2021.11156        -7.59060         4.62449
     2021.11430       -12.08403         4.75586
     2021.11704        -3.86245         4.73368
     2021.11978        -6.02988         4.68676
     2021.12251        -6.14031         4.63814
     2021.12525       -10.99173         4.72088
     2021.12799        -3.55116         4.73112
     2021.13073        -6.60359         4.79169
     2021.13347        -6.76201         4.77377
     2021.13620       -10.31344         4.79254
     2021.13894       -10.06887         4.69359
     2021.14168        -8.51630         4.69188
     2021.14442        -3.03572         4.83861
     2021.14715        -7.83115         4.77377
     2021.14989       -10.77858         4.75245
     2021.15166        -2.13562        10.05086
     2021.16358        -4.87471         4.67738
     2021.16632        -2.78014         4.72259
     2021.16906        -4.02656         4.53918
     2021.17180        -7.02499         4.54003
     2021.17453        -8.46742         4.69529
     2021.17727        -6.96784         4.71491
     2021.18001        -4.76627         4.68676
     2021.18275        -8.15770         4.80278
     2021.18548        -7.77613         4.58013
     2021.18822        -8.03955         4.63643
     2021.19096        -4.76298         4.53321
     2021.19370       -10.43941         4.61681
     2021.19644       -11.66783         4.56307
     2021.19917       -10.51226         4.59548
     2021.20191        -4.02069         4.52127
     2021.20465        -3.79511         4.55027
     2021.20739        -5.55654         4.53406
     2021.21013        -2.53297         4.69614
     2021.21286        -4.18339         4.73794
     2021.21560        -4.20882         4.58013
     2021.21834        -6.05925         4.58866
     2021.22108        -9.72868         4.56477
     2021.22381        -8.75210         4.57416
     2021.22655        -4.84153         4.60231
     2021.22929         1.65904         4.56904
     2021.23203         0.94562         4.52041
     2021.23477        -6.80381         4.53662
     2021.23726       -12.05065         5.06041
     2021.24050        -6.53024         5.03396
     2021.24298        -7.43809         4.55709
     2021.24572        -9.20952         4.52468
     2021.25119        -2.26837         4.58695
     2021.25393        -3.28080         4.55624
     2021.25667        -7.27923         4.58951
     2021.25941        -7.88265         4.56818
     2021.26214        -2.60308         4.50762
     2021.26488         0.20249         4.52041
     2021.26762         3.74807         4.67141
     2021.27036        -2.06236         4.64240
     2021.27310        -1.99879         4.60743
     2021.27583        -5.43321         4.50420
     2021.27857        -2.83664         4.61596
     2021.28131        -4.60507         4.66714
     2021.28405        -4.33549         4.68420
     2021.28679        -0.19192         4.72686
     2021.28952        -2.01135         4.68335
     2021.29226        -7.82078         4.69444
     2021.29500        -1.25920         4.68676
     2021.29774        -1.10963         4.87017
     2021.30047        -0.98806         4.71406
     2021.30321         3.01652         4.67055
     2021.30595         9.44209         4.82581
     2021.30869        11.04666         4.82155
     2021.31143         0.91824         4.72600
     2021.31416        10.23381         4.66117
     2021.31690         4.87838         4.68079
     2021.31964        -0.49004         4.74477
     2021.32238         1.06153         4.80193
     2021.32512        -4.30190         4.66885
     2021.32785        -9.42233         5.20543
     2021.33059        -1.45475         4.91794
     2021.33333         3.71182         4.64496
     2021.33607         0.16439         4.70894
     2021.33880        -9.08403         4.68591
     2021.34154        -0.54546         4.68505
     2021.34428        -4.40889         4.77633
     2021.34702        -3.91731         4.61425
     2021.34976        -2.54574         4.65178
     2021.35249        -7.36917         4.60743
     2021.35523        -1.19859         4.59548
     2021.35797        -4.10802         4.61169
     2021.36071        -6.36145         4.59719
     2021.36344        -8.42588         4.63216
     2021.36618        -5.89630         4.68250
     2021.36892        -5.04573         4.79681
     2021.37166        -2.18516         4.66032
     2021.37440         0.42542         4.65434
     2021.37616        -5.65663         8.73116
     2021.37987        -2.30344         4.79595
     2021.38261        -4.59586         4.91368
     2021.38535        -6.46229         4.76951
     2021.38809        -1.32072         4.74477
     2021.39082        -7.15814         4.65349
     2021.39356        -1.36557         4.70297
     2021.39630        -0.97200         4.72088
     2021.39904        -5.74242         4.63728
     2021.40177        -2.69685         4.73453
     2021.40451        -1.80028         4.80022
     2021.40725        -0.33471         4.68250
     2021.40999         0.66587         4.66799
     2021.41273        -3.93056         4.67482
     2021.41546        -0.41299         4.69700
     2021.41820        -4.70441         4.66885
     2021.42094         3.70916         4.78230
     2021.42368         1.72173         4.72088
     2021.42642        -5.01769         4.76268
     2021.42915         3.96188         4.70382
     2021.43189         6.04545         4.66287
     2021.43463        -1.72997         4.66287
     2021.43737        -6.08640         4.65776
     2021.44010        -3.20083         4.70553
     2021.44284        -8.90926         4.75842
     2021.44558        -7.49968         4.74306
     2021.44832         0.18989         4.78828
     2021.45106        -3.20554         4.91538
     2021.45379         4.95204         4.83434
     2021.45653        -7.71039         4.75671
     2021.45927         0.09118         4.65093
     2021.46201        -1.42124         4.67823
     2021.46475         2.21033         4.71065
     2021.46748         3.63990         4.82155
     2021.47022         2.41348         4.84628
     2021.47296         9.14105         4.89491
     2021.47570         2.12962         4.82069
     2021.47843        -0.37781         4.80790
     2021.48117        -6.62023         4.72003
     2021.48391        -3.12266         4.71747
     2021.48665        -1.48009         4.72941
     2021.48939         0.14349         4.75245
     2021.49212        -7.43294         4.71150
     2021.49486         2.11663         4.76354
     2021.49760         4.71421         4.91965
     2021.50034        -1.49822         4.83093
     2021.50308         0.66235         4.69870
     2021.50560        -0.14942         5.18922
     2021.50881         2.58793         5.13121
     2021.51129         2.40307         4.67567
     2021.51403         2.80464         4.73197
     2021.51676         3.72222         4.67482
     2021.51950         0.12679         4.84287
     2021.52224         1.50236         4.68505
     2021.52498         2.24194         4.73368
     2021.52772         6.07651         4.65605
     2021.53045         2.80508         4.69188
     2021.53319         1.35166         4.68079
     2021.53593        -4.74577         4.84628
     2021.53867         6.62380         5.02799
     2021.54141         1.24038         4.79425
     2021.54414        -0.61305         4.77633
     2021.54688        -8.24948         4.69017
     2021.54962         4.46609         4.79425
     2021.55509        -0.65576         4.86079
     2021.55783        -3.36119         4.77889
     2021.56057         2.31239         4.67908
     2021.56331         3.03296         4.66885
     2021.56605         2.56753         4.79254
     2021.56878        -1.41789         4.88041
     2021.57152        -0.33332         4.96486
     2021.57426        -9.97875         4.68761
     2021.57700         8.20683         4.73624
     2021.57974         1.50940         4.70041
     2021.58247        -5.11203         4.69273
     2021.58521         0.03255         4.91197
     2021.58795        -1.79388         4.71321
     2021.59069        -8.65431         4.68761
     2021.59342        -0.53374         4.66117
     2021.59616         3.63784         4.87785
     2021.59890        -7.68159         4.79425
     2021.60164        12.08498         5.06638
     2021.60438         2.10456         4.68505
     2021.60711         3.05013         4.66970
     2021.60985         1.91870         4.69700
     2021.61259        -0.21172         4.71747
     2021.61533        -1.47415         4.68420
     2021.61807        -2.13958         4.82155
     2021.62080        -5.03700         4.74136
     2021.62354         1.51257         4.72686
     2021.62628         0.85514         4.84031
     2021.62902         4.66771         4.74903
     2021.63175        -3.32171         4.78486
     2021.63449         0.01686         4.69273
     2021.63723        -0.23857         4.87614
     2021.63997        -0.42299         4.73368
     2021.64271        -0.13242         4.74306
     2021.64544        -0.16485         4.66032
     2021.64818        -0.45927         4.69785
     2021.65062         2.15681         5.35301
     2021.65392        -3.36569         5.11244
     2021.65639         0.64545         4.61596
     2021.65913        -1.35298         4.65178
     2021.66187         4.34059         4.69188
     2021.66461         3.90216         4.71406
     2021.66735         1.78574         4.64411
     2021.67008         0.57731         4.70126
     2021.67282         1.87988         4.78316
     2021.67556         4.04346         4.91026
     2021.67830         2.21203         4.79254
     2021.68104         8.99660         4.70382
     2021.68377         9.27718         4.62961
     2021.68651         7.57975         4.64752
     2021.68925        -1.81068         4.72686
     2021.69199         3.05690         4.72259
     2021.69472        -5.36653         4.69700
     2021.69746         1.32504         4.78060
     2021.70020         0.27661         4.68250
     2021.70294        -0.29581         4.67823
     2021.70568         7.57276         4.77121
     2021.70841         7.25533         4.66714
     2021.71115         9.10391         4.71491
     2021.71389         2.77748         4.76610
     2021.71663         6.69805         4.64581
     2021.71937        -2.81237         4.66373
     2021.72210         0.00220         4.62705
     2021.72484        -1.47023         4.64496
     2021.72758        -2.20065         4.64923
     2021.73032        -1.13308         4.89491
     2021.73305         3.96849         4.66373
     2021.73579         7.61306         4.73453
     2021.73853         8.76064         4.78913
     2021.74127         6.34921         4.71406
     2021.74401         1.29478         4.71406
     2021.74674         6.48736         4.68932
     2021.74948         2.64293         4.77463
     2021.75222         1.55950         4.73453
     2021.75496         8.11908         5.02714
     2021.75770         1.54565         4.75415
     2021.76043         5.68422         4.73539
     2021.76317         0.87380         4.83605
     2021.76591         6.26037         4.68932
     2021.76865         0.96794         4.70297
     2021.77138         4.35052         4.66202
     2021.77412        10.63709         4.88979
     2021.77686         5.29466         4.68335
     2021.77960         5.62323         4.68164
     2021.78234         5.54181         4.72088
     2021.78507        12.39838         4.66117
     2021.78781         4.30195         4.70553
     2021.79009         7.63076         5.75480
     2021.79603         5.88967         4.71918
     2021.79876         4.54525         4.66629
     2021.80150         5.46182         4.81216
     2021.80424         5.44139         4.90259
     2021.80698         3.56397         4.78742
     2021.80971         6.25054         4.71150
     2021.81251        16.07221         5.01690
     2021.81519        13.57168         4.72259
     2021.81793        13.76026         4.72515
     2021.82067        -0.11717         4.76951
     2021.82340        10.24640         4.82581
     2021.82614         1.15598         4.81216
     2021.82888         5.89955         4.80022
     2021.83162         9.55712         4.80790
     2021.83436         8.91270         4.75757
     2021.83709         2.81627         4.75501
     2021.83983        -4.18816         4.80193
     2021.84234         4.69003         5.59443
     2021.84531        -1.60701         4.82325
     2021.84804         3.52656         4.88553
     2021.85078         5.11413         4.74648
     2021.85352         5.31971         4.76354
     2021.85626         4.61228         4.75586
     2021.85900         6.66185         4.72686
     2021.86173         0.42343         4.80278
     2021.86447        -3.80700         4.94353
     2021.86721        -3.84843         4.95121
     2021.86995         1.12315         4.95804
     2021.87269         1.97472         4.85652
     2021.87542         5.04029         4.77889
     2021.87816        -5.47113         4.67738
     2021.88090         3.52444         4.71150
     2021.88364         0.58401         4.73880
     2021.88637        -4.64242         4.63728
     2021.88911        -7.48984         4.66714
     2021.89185        -3.75827         4.64581
     2021.89459         0.02930         4.72344
     2021.89733        -2.70812         4.66714
     2021.90006        -0.30855         4.65434
     2021.90280        -9.61598         4.74477
     2021.90554        -2.49140         4.70638
     2021.90828        -1.86683         4.78913
     2021.91102         4.66274         4.79937
     2021.91375         4.78332         4.71918
     2021.91649         2.09389         4.65093
     2021.91923         0.29746         4.79510
     2021.92197        -7.92597         4.95548
     2021.92470        -7.36639         4.76866
     2021.92744         0.94918         4.81387
     2021.93018        -1.89825         4.81131
     2021.93292         4.87833         4.86846
     2021.93566         9.31790         4.91624
     2021.93839         5.65547         4.87700
     2021.94113         7.36105         4.90259
     2021.94387        10.83762         4.81302
     2021.94661         0.73019         4.75757
     2021.94935         9.34477         4.83178
     2021.95208         7.85034         4.76780
     2021.95482         5.01091         4.85652
     2021.95756        10.67848         4.84031
     2021.96030         0.37606         4.83946
     2021.96303        -0.78937         4.88638
     2021.96577         0.57420         4.84373
     2021.96851        -7.17922         4.80107
     2021.97125        -9.86065         4.81387
     2021.97399        -0.45308         4.91965
     2021.97672         9.61550         4.93415
     2021.97946        16.77307         4.87870
     2021.98220        10.86564         4.86761
     2021.98494        15.36222         4.83008
     2021.98767         8.07879         4.87188
     2021.99041         8.98336         4.79425
     2021.99315         5.44594         4.76354
     2021.99589        12.97951         4.76183
     2021.99863         8.01108         4.72430
     2022.00136         2.73565         4.73027
     2022.00410        -2.23877         4.81302
     2022.00684        -1.71120         4.78572
     2022.00958        -0.48663         4.78742
     2022.01232       -15.72205         4.79254
     2022.01505        -0.47348         4.87955
     2022.01779         4.18809         4.94695
     2022.02053         3.52567         4.82325
     2022.02327        -3.91176         5.10818
     2022.02600        -9.97319         4.85140
     2022.02874        -7.23361         4.79937
     2022.03148       -11.43704         4.84458
     2022.03422        -6.13447         4.80619
     2022.03696       -12.52990         4.79937
     2022.03969       -14.34432         4.78401
     2022.04243        -5.72375         4.75927
     2022.04517        -2.11218         4.76012
     2022.04791         1.42540         4.77292
     2022.05065        -4.92703         4.79254
     2022.05338        -4.63346         4.89832
     2022.05612        -8.27888         4.73965
     2022.05886       -16.47831         4.73624
     2022.06160        -9.25774         4.72600
     2022.06433        -8.84916         4.80704
     2022.06707       -12.16859         4.79169
     2022.06981        -6.17802         4.78486
     2022.07255       -10.08945         4.67738
     2022.07529        -1.89787         4.70297
     2022.07802        -2.86330         4.73027
     2022.08076        -2.82473         4.73794
     2022.08350         0.78685         4.79339
     2022.08624        -4.37858         4.73539
     2022.08898        -0.24001         4.68847
     2022.09171        -5.63943         4.69614
     2022.09445        -9.83786         4.76780
     2022.09719        -7.94829         4.71832
     2022.09993       -10.79871         4.86249
     2022.10266        -9.68814         5.18495
     2022.10540        -7.62657         4.78145
     2022.10814        -4.00300         4.82922
     2022.11088        -7.20442         4.74306
     2022.11362        -2.20485         4.63387
     2022.11635         0.27872         4.60828
     2022.11909        -3.75370         4.66287
     2022.12183        -0.72413         4.71491
     2022.13278        -8.11584         4.63643
     2022.13552        -1.48526         4.67567
     2022.13826         3.85931         4.71235
     2022.14099        -1.51812         4.70126
     2022.14373       -10.23455         4.64411
     2022.14647        -6.93497         4.65093
     2022.14921        -2.29640         4.85823
     2022.15195        -5.41583         4.83775
     2022.15468        -3.08425         4.67738
     2022.15742        -7.46968         4.71406
     2022.16016        -1.53211         4.66629
     2022.16290        -1.99653         4.70297
     2022.16564        -2.89896         4.64070
     2022.16835         1.23157         4.69103
     2022.17137        -8.57438         5.15083
     2022.17385        -4.85924         4.65349
     2022.17659        -3.73667         4.65349
     2022.17932        -8.01009         5.16192
     2022.18206        -6.30252         4.66885
     2022.18480        -8.86495         4.68847
     2022.18754        -3.59938         4.71150
     2022.19028        -3.00280         4.71321
     2022.19301         2.67377         4.64667
     2022.19575         1.91334         4.68847
     2022.19849        -2.43208         4.71832
     2022.20123        -6.07151         4.71406
     2022.20397         3.11406         4.68591
     2022.20670        -4.77336         4.76012
     2022.20944         0.14221         4.78828
     2022.21218         1.69278         4.66287
     2022.21492        -5.54464         4.69444
     2022.21765        -6.11407         4.67908
     2022.22039        -5.97350         4.66117
     2022.22313        -8.35893         4.77804
     2022.22587       -14.88835         4.81728
     2022.22861        -1.11078         4.74989
     2022.23134         3.46679         4.66117
     2022.23408         1.76937         4.67226
     2022.23682         3.65694         4.81643
     2022.23956        -2.14049         4.69188
     2022.24230        -0.19191         4.71491
     2022.24503         0.44066         4.67908
     2022.24777         2.79823         4.69870
     2022.25051        -0.39319         4.74562
     2022.25325        -1.91062         4.93159
     2022.25598         1.82895         5.31888
     2022.25872         0.79152         4.78742
     2022.26146        -1.49790         4.69956
     2022.26420        -2.25233         4.72856
     2022.26694        -6.51476         4.83775
     2022.26967        -1.38418         4.76780
     2022.27241         3.59639         4.77292
     2022.27515         4.36796         4.92135
     2022.27789         1.76854         4.67311
     2022.28062        -3.95289         4.73794
     2022.28336        -1.23232         4.78998
     2022.28610        -0.08874         4.81387
     2022.28884        -1.71817         4.80960
     2022.29158        -3.65760         4.64923
     2022.29431        -2.72003         4.62961
     2022.29705         1.52955         4.68676
     2022.29979         0.42212         4.74306
     2022.30253         2.32669         4.80193
     2022.30527        -4.60573         4.78998
     2022.30800        -6.81116         4.62534
     2022.31074        -0.88259         4.68335
     2022.31348        -3.24001         4.66885
     2022.31622        -3.63844         4.67738
     2022.31895       -18.21887         4.81813
     2022.32169        -2.06129         4.80790
     2022.32443        -1.22572         5.15936
     2022.32717        -6.02715         4.69614
     2022.32991        -1.86758         4.71918
     2022.33264       -13.50300         5.51594
     2022.33538        -4.23043         4.84031
     2022.33812        -7.39686         4.85482
     2022.34086         3.41972         4.69956
     2022.34360        -3.47471         4.77036
     2022.34633        -2.41614         4.74562
     2022.34907         0.04744         4.65946
     2022.35181         4.73301         4.68420
     2022.35455        -2.57542         4.69273
     2022.35728        -6.18484         4.71065
     2022.36002        -2.87227         4.66373
     2022.36276        -1.08070         4.69444
     2022.36550        -5.64712         4.74392
     2022.36824        -6.44355         4.76439
     2022.37097        -5.57598         4.68164
     2022.37371       -10.76641         4.65861
     2022.37645        -8.88483         4.77889
     2022.37919        -0.11126         4.79681
     2022.38193        -8.80969         4.77036
     2022.38466        -7.96211         4.73453
     2022.38740       -18.74754         4.64325
     2022.39014        -7.89797         4.63387
     2022.39288        -6.91239         4.69529
     2022.39561        -6.05682         4.72515
     2022.39835        -4.23525         4.65776
     2022.40109        -9.99367         4.75501
     2022.40383        -1.03410         4.61681
     2022.40641         4.41321         4.94268
     2022.40957       -11.64252         5.28306
     2022.41204        -3.02438         4.77121
     2022.41478        -4.69781         4.65946
     2022.41752        -3.10324         4.74903
     2022.42026        -0.87566         4.87870
     2022.42299        -1.36909         4.67482
     2022.42573        -8.05252         4.85567
     2022.42847         3.23406         4.74392
     2022.43121        -5.43137         4.75586
     2022.43394         8.46320         4.73624
     2022.43668        -4.17022         4.75330
     2022.43942        -6.46065         4.67652
     2022.44216         7.16792         4.73880
     2022.44490         2.36249         4.79339
     2022.44763         4.86007         4.56818
     2022.45037        -3.09136         4.59036
     2022.45311        -8.01779         4.62875
     2022.45585        -2.93021         4.58780
     2022.45859       -14.86364         4.66970
     2022.46132        -5.37107         4.55368
     2022.46406        -5.42549         4.58610
     2022.46680        -5.78592         4.55198
     2022.46954        -6.89035         4.60913
     2022.47227       -12.71977         4.67396
     2022.47501         2.46480         4.63387
     2022.47775        -2.45663         4.76524
     2022.48049        -5.93706         4.59036
     2022.48323         5.03552         4.59122
     2022.48596         8.59009         4.63302
     2022.48870        -5.61434         4.80704
     2022.49144        -7.13376         4.61937
     2022.49418         0.29581         4.71577
     2022.49692        -3.22762         4.67994
     2022.49965        -0.90004         4.62875
     2022.50513        -2.49390         4.92562
     2022.50787         7.37368         4.94098
     2022.51060        -3.13075         4.80193
     2022.51334        -0.44518         4.66287
     2022.51608        -6.00961         4.77889
     2022.51882        -8.07503         4.70723
     2022.52156        -2.68446         4.74818
     2022.52429         3.53711         4.67567
     2022.52703         6.05669         4.62534
     2022.52977        10.39326         4.74392
     2022.53251         2.39983         4.67994
     2022.53525        -1.68459         4.76012
     2022.53798         2.18898         4.68164
     2022.54072        -4.36045         4.67055
     2022.54346         8.14813         4.66970
     2022.54620         5.38270         4.65264
     2022.54893         0.88827         4.60572
     2022.55167         8.49684         4.70297
     2022.55441         4.06242         4.69700
     2022.55715        11.31299         4.70297
     2022.55989         1.71656         4.69785
     2022.56262         1.55414         4.72088
     2022.56536        -9.93529         4.68250
     2022.56810         0.90728         4.71150
     2022.57084         2.81786         4.75159
     2022.57357         5.93843         4.89747
     2022.57631         0.60700         4.69529
     2022.57891         0.25035         4.98192
     2022.58205         3.13359         5.22164
     2022.58453        10.98372         5.04590
     2022.58726        -1.94970         4.87444
     2022.59000        12.08387         4.90173
     2022.59274         0.35744         4.65946
     2022.59548         2.18901         4.58269
     2022.59822        -7.58441         4.65861
     2022.60095       -10.52884         4.65605
     2022.60369        14.24373         4.81728
     2022.60643         4.70931         4.99557
     2022.60917         6.67988         4.73794
     2022.61190        10.76345         4.68505
     2022.61464        10.55803         4.69103
     2022.61738        13.77460         4.57074
     2022.62012         3.19917         4.58269
     2022.62286         5.87975         4.61766
     2022.62559         7.00032         4.59889
     2022.62833         2.35789         4.58525
     2022.63107         6.56946         4.66543
     2022.63381        13.53504         4.58013
     2022.63655         8.36661         4.61852
     2022.63928         9.08118         4.60657
     2022.64202         7.14276         4.95036
     2022.64476         7.68533         4.91880
     2022.64750         9.93090         4.77292
     2022.65023        14.06148         4.69529
     2022.65297        17.61305         4.78486
     2022.65571        10.21062         4.70212
     2022.65845        16.36420         4.63728
     2022.66119        12.14677         4.57757
     2022.66392        14.66234         4.63643
     2022.66666        12.35891         4.66629
     2022.66940        13.04249         4.54430
     2022.67214         8.08006         4.69359
     2022.67488         8.74663         4.53491
     2022.67761        15.44821         4.61852
     2022.68035        15.73978         4.54515
     2022.68309         9.91235         4.56221
     2022.68583        15.54393         4.76780
     2022.68856        16.12150         4.60998
     2022.69130        11.55507         4.59207
     2022.69404        17.55165         4.61425
     2022.69678        13.27122         4.75415
     2022.69952         6.67779         4.66373
     2022.70225        12.07436         4.70979
     2022.70499        16.90294         4.75586
     2022.70773         8.96451         4.67226
     2022.71047        10.20608         4.61084
     2022.71321        17.99566         4.63387
     2022.71594        10.24323         4.59975
     2022.71868        14.86080         4.56648
     2022.72142        14.91738         4.60316
     2022.72416         8.07295         4.71577
     2022.72689        12.94452         4.69444
     2022.72963        11.71510         4.56563
     2022.73237        10.66367         4.54430
     2022.73511        10.73024         4.56392
     2022.73785         7.92181         4.55624
     2022.74058        14.46939         4.77889
     2022.74332        16.39396         4.78145
     2022.74606        11.36453         4.62107
     2022.74880        11.51811         4.56989
