# ================= DQRFIT RESULTS ================
# INPUT FILE: series/COTT.rad
# OUTPUT: LDETRENDED
# FILTER FUNCTION: f(t)
# f(t)=+line(t)+annual(t)
# line(t)=+P 1+P 2*t
# annual(t)=+P 3*sin(2*pi*t+P 4)
# heav(t)=(t<0?0:1)
# TOTAL OBSERVATIONS MTOT=  530
# INITIAL TIME INTERVAL= 2019.6494 - 2011.6496 =  7.9998
# TOTAL OBSERVATIONS AFTER PREFILTER M=  529
# TIME-SPAN= 2019.6494 - 2011.6496 =  7.9998
# OBSERVATIONS: USED M=   529 REJECTED MTOT-M=     1 %USED=   99.8113
# N=  4 PARAMETERS
# MAXSIG= 175.00000
# MAXRES=  17.20120
# SCALE FACTOR FOR LENGTHS: SCL=  10.00000
# SCALE FACTOR FOR SIGMAS: SCLSIG=   1.00000
# CHI^2=    496.384 DOF=   525 CHI^2/DOF=   0.94549
# RMS=      5.561 SDEV=      5.567 MEAN=   -0.00454
#  P #       PARAMETER +-    SIGMA %error PARAMETER NAME
# P 1 =      4392.01824 +-  302.180   6.88 YZERO                              
# P 2 =        -2.17961 +-    0.150   6.88 SLOPE                              
# P 3 =         4.11613 +-    0.350   8.50 ANNUAL AMPLITUDE                   
# P 4 =         2.92608 +-    0.116   3.98 ANNUAL PHASE                       
#       T            LDETRENDED       SIG_OBS
     2011.64956        -6.36933         5.66014
     2011.65230        -4.32237         5.67375
     2011.65504        -7.01540         5.76807
     2011.65777        -6.04143         5.54929
     2011.66051        -3.48347         5.65625
     2011.66325        -0.38150         5.60277
     2011.66599        -6.73953         5.58624
     2011.66872        -7.35156         5.64652
     2011.67146        -5.37060         5.44719
     2011.67420        -7.72363         5.41413
     2011.67694        -3.78266         5.44136
     2011.67968        -9.11969         5.48706
     2011.68241        -9.89073         5.55707
     2011.68515        -8.21476         5.58721
     2011.68789        -9.02179         5.55220
     2011.69063        -7.53682         5.57360
     2011.69337        -7.60186         5.59110
     2011.69610       -11.64789         5.63291
     2011.69884        -7.31892         5.58818
     2011.70158        -9.91395         5.53762
     2011.70432        -4.25099         5.47053
     2011.70705        -6.76602         5.72918
     2011.70979         1.28295         5.50650
     2011.71253        -8.47108         5.52012
     2011.71527       -10.31612         5.64069
     2011.71801        -9.59915         5.61444
     2011.72056        -2.08957         5.92754
     2014.57906        -2.82116         5.64555
     2014.58180         2.63781         5.72140
     2014.58454         0.30877         5.80210
     2014.58727        -2.58926         5.92754
     2014.59001        -0.80529         5.73987
     2014.59275         6.19468         5.74376
     2014.59549         4.78864         5.85558
     2014.59823         3.84761         5.76710
     2014.60096         4.55058         5.83516
     2014.60370        -2.48945         5.82641
     2014.60644         1.09151         5.81377
     2014.60918         0.86448         5.79724
     2014.61191         6.84545         6.00047
     2014.61465         1.73242         5.78654
     2014.61739         6.09638         5.98296
     2014.62013        -0.49565         5.78752
     2014.62287        -0.14968         5.78557
     2014.62560         2.69929         5.72529
     2014.62834         2.78525         5.70876
     2014.63108         4.92122         5.74084
     2014.63382         6.10819         5.79919
     2014.63656        10.19716         5.75543
     2014.63929         3.29212         5.79043
     2014.64203        -6.13891         5.66208
     2014.64477         2.91706         5.64069
     2014.64751        -0.50397         5.71264
     2014.65024        -1.78301         5.65236
     2014.65298         6.95196         5.59888
     2014.65572         0.53493         5.66014
     2014.65846         7.39990         5.71556
     2014.66120         7.18086         5.73501
     2014.66393         7.17283         5.68347
     2014.66667         6.86780         5.64263
     2014.66941         6.33377         5.69417
     2014.67215         3.64773         5.65916
     2014.67488         0.01470         5.66792
     2014.67762        -3.21833         5.70487
     2014.68036        -0.54936         5.67958
     2014.68310        -3.71640         5.67764
     2014.68584        -0.83943         5.74862
     2014.68857         0.70554         5.64263
     2014.69131        -0.29649         5.65236
     2014.69405        -1.16253         5.59791
     2014.69679        -3.01156         5.65819
     2014.69953         4.63241         5.65625
     2014.70226         6.44638         5.67375
     2014.70500         3.24834         5.64944
     2014.70774         6.42831         5.73209
     2014.71048         5.18628         5.73306
     2014.71321        -3.11176         5.72042
     2014.71595         3.93421         5.66403
     2014.71869         2.63018         5.58915
     2014.72143         3.77315         5.57360
     2014.72417         2.95411         5.59693
     2014.72690         2.11908         5.73209
     2014.72964        -0.00395         5.66305
     2014.73238        -2.93598         5.69223
     2014.73512         2.39498         5.61541
     2014.73786         2.85295         5.59304
     2014.74059         2.47092         5.65139
     2014.74333         3.93289         5.65139
     2014.74607         4.41985         5.63583
     2014.74881         2.35682         5.59304
     2014.75154         4.79379         5.68056
     2014.75428         3.10576         5.54832
     2014.75702        -2.25528         5.59499
     2014.75976        -0.80231         5.59888
     2014.76250         2.53966         5.58332
     2014.76523         3.77963         5.59304
     2014.76797         5.07859         5.57554
     2014.77071        -0.77944         5.55512
     2014.77345         0.29753         5.56193
     2014.77619         1.38850         5.61735
     2014.77892         0.97146         5.57457
     2014.78166         2.86643         5.56873
     2014.78440         6.52740         5.55512
     2014.78714        13.16837         5.66305
     2014.78987         0.65033         5.64750
     2014.79261         4.32430         5.57360
     2014.79535         1.54027         5.60082
     2014.79809         4.02724         5.68542
     2014.80083         1.32320         5.59304
     2014.80356         1.39617         5.72529
     2014.80630         1.03314         5.66111
     2014.80904         6.85011         5.60471
     2014.81178         4.15607         5.55026
     2014.81452         5.43404         5.66500
     2014.81725         4.38401         5.51525
     2014.81999         9.40998         5.58818
     2014.82273         5.62494         5.65333
     2014.82547         6.05391         5.56387
     2014.82820        -0.10812         5.58721
     2014.83094         6.75585         5.71556
     2014.83368        -7.77419         5.63583
     2014.83642         1.59278         5.58624
     2014.83916         5.09675         5.60180
     2014.84189        -1.03828         5.67764
     2014.84463        -3.02232         5.66111
     2014.84737         7.41465         5.71459
     2014.85011         2.10362         5.69125
     2014.85285         3.88758         5.65236
     2014.85558         7.62755         5.62902
     2014.85832         4.61752         5.66597
     2014.86106         2.88549         5.63680
     2014.86380         3.49045         5.69320
     2014.86653        -0.43658         5.74279
     2014.86927        -1.72461         5.69903
     2014.87201        -0.92564         5.73209
     2014.87475        -5.58268         5.66597
     2014.87749        -6.12171         5.61055
     2014.88022        -2.34974         5.59304
     2014.88296         0.11123         5.67181
     2014.88570        -6.24081         5.88475
     2014.89939        -4.10797         5.88670
     2014.91034         7.25090         5.63972
     2014.93224        -7.72936         5.62513
     2014.95411        -0.59169         5.50845
     2014.97879        -2.92591         5.55998
     2014.99248        -3.18407         6.25814
     2015.01985        -6.34440         5.57068
     2015.02807        -5.48950         5.56971
     2015.03883         0.60497         5.90517
     2015.04997        -0.55676         5.60277
     2015.05545        -3.74282         6.29898
     2015.05818         0.80614         5.50553
     2015.06640        -0.86595         5.49872
     2015.07735        -8.33308         5.49289
     2015.08009        -8.36212         5.46858
     2015.08282        -5.52215         5.54734
     2015.08556        -4.85418         5.52595
     2015.09925        -0.58334         5.67764
     2015.10199         3.32162         5.58235
     2015.10473         0.85559         5.49872
     2015.10747        -4.06544         5.55998
     2015.11020        -4.74047         5.60860
     2015.11294        -3.16051         5.64166
     2015.11568        -6.17654         5.55026
     2015.11842        -7.93257         5.55415
     2015.12115        -2.39360         5.50261
     2015.12389        -6.61164         5.50553
     2015.12663        -2.75667         5.53373
     2015.12937        -4.14970         5.55609
     2015.13211        -4.40673         5.51525
     2015.13484        -5.98577         5.56873
     2015.13758        -4.18980         5.60082
     2015.14032        -4.96783         5.52109
     2015.14306        -8.34287         5.55415
     2015.14580        -8.52690         5.53665
     2015.14853        -2.88593         5.53081
     2015.15127        -2.59296         5.52012
     2015.15401        -2.64500         5.49970
     2015.15675         1.31897         5.61249
     2015.15948        -0.52706         5.50456
     2015.16222        -3.21609         5.54540
     2015.16496        -0.33813         5.56096
     2015.16770        -4.19016         5.51428
     2015.17044         0.15281         5.55123
     2015.17317        -3.11422         5.68445
     2015.17591        -5.68526         5.68445
     2015.17865        -1.89929         5.58429
     2015.18139         0.25168         5.53567
     2015.18413        -0.80535         5.58138
     2015.18686         1.15061         5.58138
     2015.18960        -5.55642         5.55804
     2015.19234        -6.60245         5.80113
     2015.19508        -2.83648         5.56290
     2015.19781        -2.47552         5.62999
     2015.20055         3.73045         5.57651
     2015.20329        -2.95858         5.61249
     2015.20603        -8.85461         5.64166
     2015.20877        -8.93065         5.58138
     2015.21150        -8.67668         5.48025
     2015.21424        -7.24171         5.49289
     2015.21698        -4.42374         5.60666
     2015.21972        -6.33078         5.55609
     2015.22246        -3.35781         5.56290
     2015.22519         4.85816         5.49192
     2015.22793        -4.45087         5.51137
     2015.23067        -2.68291         5.48803
     2015.23341        -5.01994         5.68542
     2015.23614        -2.12697         5.72529
     2015.23888        -1.21000         5.62805
     2015.24162         0.97196         5.64652
     2015.24436         0.00293         5.71945
     2015.24710         2.06590         5.53665
     2015.24983        -3.54713         5.56679
     2015.25257        -1.07117         5.54151
     2015.25531        -0.55920         5.49872
     2015.25805        -1.90723         5.53762
     2015.26079         5.96674         5.52206
     2015.26352         3.18070         5.49678
     2015.26626         1.70067         5.49970
     2015.26900        -0.70936         5.52401
     2015.27174         4.87261         5.57068
     2015.27447         4.58957         5.70876
     2015.27721         1.48654         5.59110
     2015.27995        -1.14549         5.54345
     2015.28269        -3.33652         5.55707
     2015.28543        -5.06356         5.67083
     2015.28816        -8.38759         5.68931
     2015.29090        -2.80062         5.55609
     2015.29364        -3.66666         5.52984
     2015.29638        -4.52869         5.50942
     2015.29911         1.83328         5.52012
     2015.30185         3.26325         5.50359
     2015.30459        -4.10479         5.56971
     2015.30733        -3.70682         5.42774
     2015.31007        -5.61185         5.39468
     2015.31280        -3.24888         5.37815
     2015.31554        -5.44492         5.40538
     2015.31828        -6.86595         5.42774
     2015.32102        -3.48098         5.36162
     2015.32376        -2.91501         5.47733
     2015.32649        -3.69605         5.56679
     2015.32923        -3.21808         5.49970
     2015.33197        -2.65811         5.40538
     2015.33471        -0.55514         5.41996
     2015.33744        -7.93918         5.43747
     2015.34018        -4.89521         5.40343
     2015.34292        -3.17024         5.44233
     2015.34566        -4.19927         5.39760
     2015.34840        -0.33231         5.47733
     2015.35113        -6.73334         5.42482
     2015.35387        -0.63237         5.39760
     2015.35661        -4.42340         5.46080
     2015.35935        -5.95744         5.57846
     2015.36209         0.50553         5.52498
     2015.36482        -7.80750         5.51817
     2015.36756        -6.76653         5.42288
     2015.37030        -6.84957         5.41024
     2015.37304        -3.62360         5.48414
     2015.37577        -7.19463         5.43455
     2015.37851       -10.90266         5.60374
     2015.38125        -9.92170         5.41899
     2015.38399        -9.03973         5.44427
     2015.38673        -1.12276         5.46761
     2015.38946        -9.10279         5.45789
     2015.39220       -10.23983         5.47928
     2015.39494        -1.45086         5.50845
     2015.39768       -10.54689         5.51234
     2015.40042        -1.37192         5.49581
     2015.40315        -5.00996         5.62610
     2015.40589       -12.34199         5.45302
     2015.40863        -5.32602         5.45691
     2015.41137        -4.04305         5.43066
     2015.41410        -5.87809         5.52206
     2015.41684        -4.67512         5.45789
     2015.41958        -6.27915         5.45983
     2015.42232        -9.21818         5.38010
     2015.42506        -7.94822         5.57165
     2015.42779        -3.75025         5.47053
     2015.43053        -2.16228         5.46372
     2015.43327        -8.04932         5.48025
     2015.43601        -5.02335         5.43552
     2015.43875         2.74362         5.52012
     2015.44148        -5.15641         5.64944
     2015.44422        -6.44645         5.44719
     2015.44696        -1.84048         5.46858
     2015.44970        -5.10051         5.47053
     2015.45243        -4.41154         5.61833
     2015.45517         1.61042         5.45497
     2015.45791        -7.56561         5.62513
     2015.46065        -3.23064         5.67278
     2015.46339         1.17933         5.61833
     2015.46612         1.19729         5.47247
     2015.46886         7.06826         5.46080
     2015.47160         2.41423         5.47344
     2015.47434        -4.46180         5.57846
     2015.47708        -0.95684         5.55901
     2015.47981        -2.30587         5.52984
     2015.48255         3.03210         5.53179
     2015.48529        -3.88493         5.46664
     2015.48803        -2.37697         5.45983
     2015.49076         0.83300         5.54248
     2015.49350         4.86297         5.62708
     2015.49624         2.85394         5.58527
     2015.49898         3.02590         5.61346
     2015.50172         7.17187         5.49484
     2015.50445         8.03784         5.61346
     2015.50719         2.38181         5.46372
     2015.50993         0.37677         5.61346
     2015.51267         7.95574         5.43747
     2015.51541         4.99071         5.56679
     2015.51814         7.82168         5.45205
     2015.52088         8.00164         5.51137
     2015.52362         4.63661         5.50553
     2015.52636         6.61758         5.47247
     2015.52909        10.73955         5.41802
     2015.53183         6.03851         5.44816
     2015.53457         1.75648         5.44719
     2015.53731         1.46145         5.51914
     2015.54005         5.63642         5.57360
     2015.54278         1.86138         5.57651
     2015.54552        14.30435         5.56290
     2015.54826        11.52432         5.52498
     2015.55100        11.95329         5.57068
     2015.55374        15.51825         5.77488
     2015.55647        17.77422         5.64944
     2015.55921        13.05319         5.53081
     2015.56195         9.86516         5.55901
     2015.56469         7.42112         5.66403
     2015.56742         9.28909         5.62805
     2015.57016        10.85306         5.73112
     2015.57290         8.01703         5.76418
     2015.57564        10.36299         5.57262
     2015.57838         3.45396         5.57262
     2015.58111         7.24193         5.60471
     2015.58385         8.77589         5.62708
     2015.58659        16.70186         5.72820
     2015.58933        10.58783         5.72918
     2015.59206         4.26480         5.58138
     2015.59480        10.04376         5.68736
     2015.59754        15.97573         5.59207
     2015.60028         9.18970         5.70973
     2015.60302        13.79267         5.70389
     2015.60575         6.19963         5.60763
     2015.60849         9.23360         5.52887
     2015.61123         9.62857         5.54540
     2015.61397        11.09954         5.56485
     2015.61671         0.76550         5.57554
     2015.61944        11.02447         5.43844
     2015.62218        13.73944         5.42871
     2015.62492        11.73841         5.46664
     2015.62766         9.38837         5.44233
     2015.63039         7.36834         5.43941
     2015.63313         5.11931         5.44330
     2015.63587        12.73628         5.46761
     2015.63861         8.46624         5.46664
     2015.64135        10.41621         5.48025
     2015.64408         2.76418         5.49970
     2015.64682         1.53215         5.59596
     2015.64956         5.60911         5.43260
     2015.65230         2.80508         5.46858
     2015.65504         5.14105         5.46469
     2015.65777        -1.35498         5.65625
     2015.66051        10.63998         5.55123
     2015.66325        11.89495         5.42191
     2015.66599        10.42692         5.53276
     2015.66872        15.21889         5.57457
     2015.67146        12.97085         5.48511
     2015.67420        11.40082         5.48025
     2015.67694        12.65979         5.43455
     2015.67968         8.72876         5.40441
     2015.68241         5.19372         5.38399
     2015.68515         5.36169         5.42871
     2015.68789         6.25566         5.50748
     2015.69063         9.71063         5.45302
     2015.69337         3.00459         5.61346
     2015.69610         8.88856         5.43747
     2015.69884         9.03853         5.41705
     2015.70158        11.57850         5.49678
     2015.70432         8.55646         5.49775
     2015.70705        11.26343         5.45108
     2015.70979        11.77240         5.49095
     2015.71253         3.45037         5.41316
     2015.71527         7.70933         5.43163
     2015.71801        11.95030         5.48219
     2015.72074        10.90827         5.52206
     2015.72348        10.11423         5.47442
     2015.72622         6.31220         5.46566
     2015.72896         3.33817         5.44719
     2015.73170         3.77814         5.48706
     2015.73443         6.64110         5.54540
     2015.73717        12.00907         5.45497
     2015.73991        10.96704         5.62999
     2015.74265         9.40201         5.64944
     2015.74538         9.43797         5.78946
     2015.74812         9.55494         5.76029
     2015.75086        -0.79709         5.49386
     2015.75360         6.04888         5.48608
     2015.75634         4.42084         5.54054
     2015.75907         8.29081         5.47150
     2015.76181         2.58478         5.47053
     2015.76446         4.22256         5.67375
     2015.76729         3.65771         5.45400
     2015.77003         4.05268         5.53859
     2015.77276         4.27165         5.53859
     2015.77550        10.77862         5.44427
     2015.77824        13.38558         5.43649
     2015.78098         6.46155         5.45983
     2015.78371         6.99552         5.49678
     2015.78645         8.32949         5.45400
     2015.78919         8.11145         5.43260
     2015.79193         9.19442         5.48219
     2015.79467        11.99539         5.50650
     2015.79740        10.13536         5.47150
     2015.80014         3.19432         5.63097
     2015.80288         0.14129         5.51234
     2015.80562         6.80726         5.47344
     2015.80836         7.51923         5.44233
     2015.81109         2.68019         5.49095
     2015.81383         3.31516         5.50456
     2015.81657         5.90913         5.45983
     2015.81931         5.35310         5.51137
     2015.82204         9.60706         5.47053
     2015.82478         4.53203         5.49386
     2015.82752         9.14600         5.57846
     2015.83026         3.01297         5.60568
     2015.83300         5.49693         5.53081
     2015.83573        18.23690         5.77196
     2015.84121         0.46784         5.56290
     2015.84395        -1.10120         5.56096
     2015.84669         8.00677         5.54054
     2015.84942         8.71574         5.54637
     2015.85216        10.15971         5.58721
     2015.85490        10.29467         5.59596
     2015.85764         4.88764         5.56873
     2015.86037         4.61861         5.58429
     2015.86311         7.15958         5.59596
     2015.86585        10.52954         5.57846
     2015.86859         4.05751         5.63680
     2015.87133         5.87148         5.54540
     2015.87406         3.94744         5.59596
     2015.87680         2.93241         5.57943
     2015.87954         5.12638         5.64069
     2015.88228         9.79335         5.62708
     2015.88502         1.28031         5.63583
     2015.88775         5.33428         5.54832
     2015.89049        10.28325         5.52692
     2015.89323         9.85522         5.60763
     2015.89597         8.08218         5.62708
     2015.89870        11.40415         5.56485
     2015.90144         1.09912         5.50942
     2015.90418        -2.02391         5.57165
     2015.90692         3.52905         5.55609
     2015.90966         4.28502         5.57554
     2015.91239         3.90399         5.58138
     2015.91513         1.25396         5.53081
     2015.91787         1.85292         5.56971
     2015.92061         4.21189         5.57262
     2015.92334         3.30286         5.56873
     2015.92608        -1.83817         5.61541
     2015.92882         2.49379         5.58332
     2015.93156         3.46876         5.72431
     2015.93430         3.07273         5.84586
     2015.93703         9.41470         5.76126
     2015.93977         8.97566         5.78460
     2015.94251         7.08863         5.76710
     2015.94525         6.82460         5.62610
     2015.94774        18.10004         6.08020
     2019.48255        -2.94745         5.57651
     2019.48529        -2.80948         5.53179
     2019.48803        -7.55152         5.55220
     2019.49076        -6.13355         5.45691
     2019.49350        -5.60558         5.45886
     2019.49624        -6.22961         5.43941
     2019.49898       -10.06465         5.47636
     2019.50172        -8.19168         5.48219
     2019.50445       -10.01771         5.43552
     2019.50719        -8.76175         5.43747
     2019.50993        -8.60978         5.52498
     2019.51267        -4.23281         5.47150
     2019.51541        -6.57284         5.44719
     2019.51814        -1.44588         5.44233
     2019.52088        -6.50991         5.47344
     2019.52362        -9.89794         5.44233
     2019.52636       -13.17997         5.48511
     2019.52909        -4.37101         5.78752
     2019.53183        -4.71104         5.59888
     2019.53457        -6.84907         5.54734
     2019.53731        -0.79310         5.65916
     2019.54005        -3.63514         5.58915
     2019.54278         1.18983         5.56582
     2019.54552         2.19980         5.77974
     2019.54826        -0.53523         5.38107
     2019.55100        -5.39427         5.48608
     2019.55374        -5.50130         5.76807
     2019.55647        -2.00933         5.64166
     2019.55921        -0.72436         5.70098
     2019.56195        -3.71240         5.44622
     2019.56469        -6.35743         5.55220
     2019.56742        -6.07746         5.48608
     2019.57016        -7.75649         5.57943
     2019.57290        -5.96253         5.49095
     2019.57564        -3.44756         5.46177
     2019.57838        -5.22559         5.55804
     2019.58111        -4.80262         5.54248
     2019.58385        -6.47666         5.66500
     2019.58659        -5.13269         5.46177
     2019.58933        -0.74772         5.42580
     2019.59206        -4.49875         5.63777
     2019.59480        -1.67579         5.57749
     2019.59754         2.23218         5.88767
     2019.60028        -7.72985         5.86433
     2019.60302        -4.46088         5.48900
     2019.60575        -2.12592         5.76710
     2019.60849        -6.88495         5.67861
     2019.61123        -6.00098         5.46761
     2019.61397        -8.62701         5.57943
     2019.61671        -2.55605         5.44622
     2019.61944        -2.34308         5.43552
     2019.62218        -2.28111         5.62513
     2019.62492         0.87786         5.48219
     2019.62766         0.90582         5.50748
     2019.63039         6.52279         5.51428
     2019.63313        -4.57024         5.37426
     2019.63587        -0.08527         5.50748
     2019.63861        -0.26931         5.73015
     2019.64135        -3.65434         5.57262
     2019.64408        -5.27237         5.54540
     2019.64682         3.28460         5.53470
     2019.64936        -2.67086         5.84586
