# ================= DQRFIT RESULTS ================
# INPUT FILE: series/CRBN.rad
# OUTPUT: LDETRENDED
# FILTER FUNCTION: f(t)
# f(t)=+line(t)
# line(t)=+P 1+P 2*t
# heav(t)=(t<0?0:1)
# TOTAL OBSERVATIONS MTOT=  286
# INITIAL TIME INTERVAL= 2022.7488 - 2021.7604 =  0.9884
# TOTAL OBSERVATIONS AFTER PREFILTER M=  285
# TIME-SPAN= 2022.7488 - 2021.7604 =  0.9884
# OBSERVATIONS: USED M=   285 REJECTED MTOT-M=     1 %USED=   99.6504
# N=  2 PARAMETERS
# MAXSIG= 175.00000
# MAXRES=  28.32671
# SCALE FACTOR FOR LENGTHS: SCL=  10.00000
# SCALE FACTOR FOR SIGMAS: SCLSIG=   1.00000
# CHI^2=    400.518 DOF=   283 CHI^2/DOF=   1.41526
# RMS=      7.571 SDEV=      7.569 MEAN=    0.48050
#  P #       PARAMETER +-    SIGMA %error PARAMETER NAME
# P 1 =     66622.84180 +- 3378.320   5.07 YZERO                              
# P 2 =         0.89928 +-    1.671 185.78 SLOPE                              
#       T            LDETRENDED       SIG_OBS
     2021.76043         5.76716         7.26398
     2021.76317         0.69869         6.74054
     2021.76591        -0.52577         6.71317
     2021.76865        -2.97823         6.68343
     2021.77138         5.10131         6.67154
     2021.77412         8.63285         6.75957
     2021.77686         9.70338         6.77385
     2021.77960        11.49792         6.67273
     2021.78234         2.18846         6.81192
     2021.78507         8.93100         6.69176
     2021.78781         7.53754         6.75362
     2021.79055        11.64507         6.70723
     2021.79329        15.95961         6.72150
     2021.79603         6.43215         6.62633
     2021.79876         1.42769         6.66083
     2021.80150         8.53023         6.85950
     2021.80424        11.43576         7.01653
     2021.80698         0.52430         6.79645
     2021.80971         6.99484         6.81905
     2021.81245        25.32938         6.91423
     2021.81519         9.43692         6.60968
     2021.81793         3.19745         6.74054
     2021.82067         6.52899         6.86307
     2021.82340         6.39853         6.91541
     2021.82614         0.30707         6.78574
     2021.82888         3.57160         6.72745
     2021.83162         6.91714         6.74648
     2021.83436         9.11368         6.84404
     2021.83709         4.11722         6.86902
     2021.83983        -2.79424         6.91304
     2021.84257         0.86529         7.07721
     2021.84531         2.49883         6.86664
     2021.84804         2.18437         6.76790
     2021.85078         4.35291         6.75124
     2021.85352         7.86745         6.72626
     2021.85626         4.63298         6.70009
     2021.85900         2.87852         6.72269
     2021.86173        -2.96094         6.83809
     2021.86447        -4.40340         7.24257
     2021.86721         3.81814         6.97609
     2021.86995        -5.26533         7.04866
     2021.87269        10.71221         7.14502
     2021.87546         1.90171         6.99393
     2021.87816        -0.44971         6.64537
     2021.88090         4.44382         6.68700
     2021.88364        -2.51364         6.68343
     2021.88637        -4.56110         6.78455
     2021.88911        -7.29856         6.63109
     2021.89185        -5.20102         6.70485
     2021.89459        -4.06049         6.68819
     2021.89733         0.62305         6.65845
     2021.90006         0.85559         6.80359
     2021.90280        -6.07887         6.69533
     2021.90554        -5.42333         6.77623
     2021.90828         0.54020         6.83452
     2021.91102        -7.65126         6.69414
     2021.91375         2.50428         6.72150
     2021.91649         1.49882         6.69533
     2021.91923         4.62136         6.77266
     2021.92197        -6.04811         7.04271
     2021.92470        -6.66457         6.72864
     2021.92744        -3.75903         6.84879
     2021.93018        -9.58049         6.94754
     2021.93292        -4.54295         7.01772
     2021.93566         7.59558         7.07126
     2021.93839         4.57712         6.93207
     2021.94108         6.35070         7.17119
     2021.94387         7.87520         7.32941
     2021.94661        -4.37127         6.89400
     2021.94935         0.75127         6.86783
     2021.95208         4.18881         6.81667
     2021.95482        -0.24165         6.86307
     2021.95756         2.93089         6.82619
     2021.96030         0.15242         6.86069
     2021.96303        -5.81904         6.84047
     2021.96577        -0.89050         6.88329
     2021.96851        -8.58396         6.94159
     2021.97125        -3.63242         6.84047
     2021.97399         4.55911         6.89757
     2021.97672         3.17165         6.84047
     2021.97946         5.37319         6.80002
     2021.98219         5.43174         7.51857
     2021.98497        21.80524         6.89757
     2021.98767         4.18580         6.73340
     2021.99041         4.05934         6.84047
     2021.99315        -2.58412         6.82738
     2021.99589       -14.20158         7.11528
     2021.99863       -17.58504         7.00464
     2022.00136         0.23649         6.78098
     2022.00410        25.50503         7.11528
     2022.00684        -7.86843         7.33774
     2022.00959        -5.96190         7.09743
     2022.01232       -20.72836         6.90947
     2022.01505         8.35018         7.09148
     2022.01779        -5.11528         7.22353
     2022.01937         5.91830        19.69698
     2022.02345        -8.41237         8.23949
     2022.02602        -7.19768         6.98560
     2022.02869        -9.63208         7.34964
     2022.03142       -15.30154         7.25208
     2022.03422        -9.66906         7.61017
     2022.03697       -14.04853         7.49596
     2022.03980       -16.57807         7.56615
     2022.04241        -6.52042         7.02843
     2022.04518        -3.16891         6.92850
     2022.04788        -2.33734         7.02129
     2022.05065        -8.83583         7.05698
     2022.05338        -5.07729         6.88686
     2022.05613       -12.77375         6.83690
     2022.05886       -12.13521         6.77623
     2022.06161        -6.89169         6.89281
     2022.06433        -3.32513         6.91066
     2022.06707        -5.91660         6.83928
     2022.06981         0.28694         6.77266
     2022.07255        -7.56252         6.64774
     2022.07529        -2.02498         6.63585
     2022.07802        -2.31145         6.76314
     2022.08076         0.80609         6.77266
     2022.08350        -2.79737         6.77861
     2022.08624         1.78417         6.64893
     2022.08894         3.07374         6.76076
     2022.09171       -10.85576         6.78574
     2022.09445        -7.37422         6.76314
     2022.09719        -4.88768         6.73221
     2022.09993        -5.07914         6.88686
     2022.10266        -7.39160         6.96776
     2022.10540        -3.62207         6.64774
     2022.10814         3.15447         6.62752
     2022.11088        -1.77599         6.76314
     2022.11362         2.80755         6.62752
     2022.11635         2.88509         6.65369
     2022.11909         2.11962         6.57637
     2022.12183         1.00816         6.65488
     2022.12457        -0.68030         6.82738
     2022.12731        -1.71176         6.70485
     2022.13004       -12.59523         6.76433
     2022.13278         2.20231         6.60849
     2022.13552        -0.73515         6.68700
     2022.13826         5.79239         6.62514
     2022.14099        20.99693         6.67630
     2022.14373        -4.25254         6.58945
     2022.14647         6.88600         6.64537
     2022.14921         1.82454         6.89400
     2022.15195        -1.27692         6.91423
     2022.15468         4.68562         6.78336
     2022.15742        -2.50485         6.68938
     2022.16016        -4.51831         6.75600
     2022.16290        -3.90677         7.02605
     2022.16564        -3.69023         7.28777
     2022.16837         1.57531         7.28302
     2022.17111        -2.97716         6.69176
     2022.17385         3.59138         6.75719
     2022.17659        -1.91208         6.67154
     2022.17932        -4.00154         6.58350
     2022.18206        -6.85400         6.81667
     2022.18482        -5.78949         6.87735
     2022.18754         2.39307         6.82262
     2022.19028        -1.87639         6.63942
     2022.19301         5.74315         6.72269
     2022.19575         5.52668         6.88448
     2022.19849        -6.00278         6.83333
     2022.20123        -0.06624         7.00702
     2022.20397         3.26430         6.66797
     2022.20670         2.17884         6.84998
     2022.20944        10.24437         6.84404
     2022.21218         4.03991         6.87616
     2022.21492         0.11145         6.67630
     2022.21765        -4.54001         6.67392
     2022.22039        -6.15047         6.61443
     2022.22313        -5.52094         6.81192
     2022.22587        -7.74140         7.73389
     2022.22861         5.86414         6.82024
     2022.23134         5.28068         6.67511
     2022.23408         2.26222         6.67035
     2022.23682         7.60275         6.90590
     2022.23956        -0.56071         6.67986
     2022.24230        -6.45017         7.60184
     2022.24446         4.88788        10.92095
     2022.24774         8.64494         9.53859
     2022.25325         6.72298         7.53403
     2022.25598         1.50652         6.70247
     2022.25872         0.94306         6.89876
     2022.26146         0.08359         6.74767
     2022.26420         4.49613         6.70723
     2022.26694        -4.72533         7.18427
     2022.26967        -0.24979         6.86783
     2022.27241        -0.06925         6.82381
     2022.27515         1.79628         6.85355
     2022.27789         3.11982         6.69652
     2022.28062         3.08336         6.69890
     2022.28336         4.81890         6.69771
     2022.28610        -3.37956         6.77980
     2022.28884         1.09797         6.80359
     2022.29158         0.47551         6.72388
     2022.29431         0.61505         6.68105
     2022.29705        -3.65341         6.72626
     2022.29979        -2.10787         6.91066
     2022.30253         2.38966         6.84404
     2022.30527        -1.79580         6.85593
     2022.30800        -5.19626         6.70247
     2022.31074         2.99828         6.67868
     2022.31348        -8.20818         6.71912
     2022.31622        -2.72865         6.73935
     2022.31895       -16.77111         6.93207
     2022.32169        -1.51957         6.88210
     2022.32443        -0.57803         6.81905
     2022.32717       -12.54550         6.85236
     2022.32991        -5.39696         6.57399
     2022.33264       -12.28742         6.91541
     2022.33538        -2.66588         6.96062
     2022.33812        -1.63934         6.93802
     2022.34086        -5.04581         6.78098
     2022.34359        -7.44626         7.35558
     2022.34633        -4.04073         7.70058
     2022.34907        -3.29219         7.51976
     2022.35181        -0.57665         6.80954
     2022.35455        -5.84112         6.96181
     2022.35728        -5.58258         7.03676
     2022.36002        -3.64904         6.72864
     2022.36277        -4.02951         6.70842
     2022.36550        -5.56896         6.93445
     2022.36824        -2.32343         6.76790
     2022.37097       -12.58689         6.96181
     2022.37371        -9.15535         7.37105
     2022.37645       -10.60581         7.06412
     2022.37909        -0.58419         9.40534
     2022.38293        -0.17564        18.81426
     2022.38469       -10.88422         6.88448
     2022.38740       -16.85666         6.98441
     2022.39015        -1.27313         8.38820
     2022.39289        -4.89559         6.94635
     2022.39561        -5.98005         7.05341
     2022.39836        -6.07751         7.25922
     2022.40109        -5.43797         7.20807
     2022.40383        -5.32043         6.65369
     2022.40529        15.40325        32.11926
     2022.42702        28.32671        48.79692
     2022.42847        -3.31259         6.58350
     2022.43120        -6.80405         6.97371
     2022.43397         7.15646         8.11220
     2022.43668       -11.34898         7.24733
     2022.43942        -6.86144         6.86664
     2022.44216         0.21410         7.22115
     2022.44490         4.12063         6.95705
     2022.44642       -12.87273        22.06913
     2022.64295        -7.46047        14.17226
     2022.64476        12.21890         9.01752
     2022.64750         2.92344         8.29184
     2022.65023         4.41598         8.23354
     2022.65297        -0.24248         8.04677
     2022.65571         6.42905         7.19141
     2022.65845         8.78659         7.03914
     2022.66119         8.12413        10.74608
     2022.66391         7.60468         8.75699
     2022.66684        10.08005         9.33991
     2022.66936         7.84478         7.84810
     2022.67205         7.82336        10.69492
     2022.67500         0.22971         7.50905
     2022.67780        11.89719         9.49457
     2022.68035         7.19390         7.52689
     2022.68304        16.30148         7.49834
     2022.68587         5.60593         7.86951
     2022.68854         4.95453        10.19289
     2022.69145        11.29191         8.82004
     2022.69404        16.98158         8.12410
     2022.69678         2.78912         7.60898
     2022.69935        -1.90719         8.94138
     2022.70227        -0.82082        10.88170
     2022.70471         0.18699         7.41626
     2022.70747         6.59951        10.97568
     2022.71013         6.86212        10.83054
     2022.71314         9.87641        11.99521
     2022.71593        15.65690        12.11060
     2022.71870         7.86941         6.89995
     2022.72142        16.17096         7.91234
     2022.72406         8.58359         8.88666
     2022.72668        15.01024        13.46323
     2022.72966        12.27556        15.19535
     2022.73235         1.64414         6.69890
     2022.73554        12.43526         9.14838
     2022.73777        -0.52674         8.80100
     2022.74044         3.14486        12.52341
     2022.74328        14.99831        12.67568
     2022.74604        11.96482         6.72983
     2022.74880         4.60134        14.19486
