# ================= DQRFIT RESULTS ================
# INPUT FILE: series/CULM.rad
# OUTPUT: LDETRENDED
# FILTER FUNCTION: f(t)
# f(t)=+line(t)+annual(t)
# line(t)=+P 1+P 2*t
# annual(t)=+P 3*sin(2*pi*t+P 4)
# heav(t)=(t<0?0:1)
# TOTAL OBSERVATIONS MTOT= 1786
# INITIAL TIME INTERVAL= 2022.7488 - 2017.6318 =  5.1170
# TOTAL OBSERVATIONS AFTER PREFILTER M= 1689
# TIME-SPAN= 2022.7488 - 2017.6318 =  5.1170
# OBSERVATIONS: USED M=  1689 REJECTED MTOT-M=    97 %USED=   94.5689
# N=  4 PARAMETERS
# MAXSIG= 175.00000
# MAXRES=  42.84964
# SCALE FACTOR FOR LENGTHS: SCL=  10.00000
# SCALE FACTOR FOR SIGMAS: SCLSIG=   1.00000
# CHI^2=   2866.510 DOF=  1685 CHI^2/DOF=   1.70119
# RMS=      8.757 SDEV=      8.760 MEAN=    0.03527
#  P #       PARAMETER +-    SIGMA %error PARAMETER NAME
# P 1 =      3065.68349 +-  277.281   9.04 YZERO                              
# P 2 =        -1.52617 +-    0.137   8.99 SLOPE                              
# P 3 =         5.24918 +-    0.272   5.17 ANNUAL AMPLITUDE                   
# P 4 =         2.90608 +-    0.071   2.44 ANNUAL PHASE                       
#       T            LDETRENDED       SIG_OBS
     2017.63175         6.66037         7.72014
     2017.63449         6.61855         7.64971
     2017.63723        -1.88227         7.57014
     2017.63997         7.41791         7.94839
     2017.64271        12.37208         7.78014
     2017.64544         2.85026         7.62884
     2017.64818         5.66944         7.73318
     2017.65092         9.15662         7.54536
     2017.65366         5.35280         7.61840
     2017.65623         1.61272         8.13099
     2017.66000        10.85747        15.78722
     2017.66187        10.99733         7.68753
     2017.66461        10.68851         7.87665
     2017.66675         2.31278        10.12657
     2017.76139        -2.72779        13.52948
     2017.76317        10.69693         7.75405
     2017.76591         2.51811         7.79970
     2017.76865         4.27929         7.70057
     2017.77138         6.98047         7.76318
     2017.77412         9.84165         7.84405
     2017.77686         6.88683         8.00448
     2017.77960         2.30700         8.10752
     2017.78234        10.16318         8.03447
     2017.78507         2.81136         7.63406
     2017.78781         9.19954         7.64449
     2017.79055         3.12772         7.77362
     2017.79329        12.30290         7.97839
     2017.79603         8.95308         7.72405
     2017.79876         8.70525         7.77101
     2017.80150         6.43543         7.89231
     2017.80424         6.72261         7.67188
     2017.80698        -3.70521         7.83100
     2017.80971         3.06697         7.80492
     2017.81245        -7.15485         7.83231
     2017.81519        -0.20368         7.74492
     2017.81793        -9.75950         7.71362
     2017.82067        -6.18032         8.27707
     2017.82340        -1.50714         7.66405
     2017.82614        -5.80096         7.61580
     2017.82888        -0.45278         7.67840
     2017.83162        10.37539         7.71883
     2017.83436        -1.99943         7.66145
     2017.83709        -4.12425         7.86492
     2017.83983        -2.41707         8.58619
     2017.84257        -2.07989         7.60275
     2017.84531        -9.40271         7.69666
     2017.84777       -12.29596         8.66836
     2017.85118        18.46125         9.80441
     2017.85352         8.52382         7.70318
     2017.85626         6.47300         7.91970
     2017.85900         1.18618         7.83361
     2017.86173        10.85836         7.94187
     2017.86447         2.59454         7.71753
     2017.86721        10.31771         7.64058
     2017.86995        -0.40811         7.66666
     2017.87259        -2.66507         8.26534
     2017.87502        -1.90337         9.72745
     2017.88093         5.45365         7.69536
     2017.88364         8.33178         7.79448
     2017.88637        -0.71404         7.69405
     2017.88911         8.03614         8.85749
     2017.89185         2.70132         7.88187
     2017.89459         5.51950         7.90796
     2017.89733         4.40668         7.68623
     2017.90006         5.12386         7.69927
     2017.90280         0.92603         7.79057
     2017.90554         0.34221         7.74753
     2017.90828        11.84839         7.93665
     2017.91102        40.93457         8.58880
     2017.91375         3.51275         7.91839
     2017.91649        -5.29907         7.68231
     2017.91923         3.57310         7.85318
     2017.92470        -1.03654         7.69144
     2017.92744        -4.22336         7.62101
     2017.93018       -10.13718         7.68492
     2017.93292         0.72900         7.50623
     2017.93566       -14.03983         7.60797
     2017.93839        -8.29665         7.75666
     2017.94113        -2.10447         7.55449
     2017.94387        -4.07229         7.58449
     2017.94661         6.23289         7.70710
     2017.94935         1.30007         7.65492
     2017.95208         1.29825         7.84666
     2017.95482         5.76642         7.79709
     2017.95756        -1.91140         8.10491
     2017.96030        -4.42722         7.58058
     2017.96303        -4.22104         8.74793
     2017.96577        -0.46186         7.79709
     2017.98220        26.84621         7.45015
     2017.98494        31.32239         7.51667
     2017.98767        30.07656         7.87405
     2017.99041        12.82674         7.64971
     2017.99315         0.94492         7.67971
     2017.99589        -5.03190         7.67710
     2018.00136        -3.16254         7.63275
     2018.00410       -11.07936         7.66275
     2018.00684        -6.91919         7.64319
     2018.00958        -0.61801         7.66275
     2018.01232       -10.50483         7.67840
     2018.01505        -4.53965         7.68362
     2018.01779        -5.04247         7.68753
     2018.02053        -3.53029         7.62101
     2018.02327        -8.27612         7.63666
     2018.02874         2.78424         7.61971
     2018.03148       -10.15658         7.68623
     2018.03422       -10.53740         7.72796
     2018.03696        -8.97922         7.63666
     2018.03969        -4.62805         7.61840
     2018.04243       -10.08087         7.81927
     2018.04517        -5.66669         7.77231
     2018.04791        -1.76251         8.03708
     2018.05065        -5.80433         7.57014
     2018.05612         5.87103         7.60797
     2018.05886        -9.79280         8.06056
     2018.06160         0.59538         7.58580
     2018.06433        -0.00244         7.80231
     2018.06707        -5.80126         7.74883
     2018.07529       -12.95573         8.00578
     2018.07802       -15.05955         8.05013
     2018.08898        -7.54483         8.06578
     2018.09171       -22.45666         7.96274
     2018.09445       -12.12248         7.90405
     2018.09719       -15.64430         8.05273
     2018.09993       -19.84012         7.79057
     2018.10266       -18.53594         7.84144
     2018.10540       -14.25076         8.37490
     2018.10814       -15.45758         8.18969
     2018.11088       -12.41741         7.70318
     2018.11362       -12.20023         7.63014
     2018.11635        -7.10505         7.77883
     2018.11909        -6.83587         8.06187
     2018.12183        -2.21369         7.91318
     2018.12457        23.37049         7.95622
     2018.13004        30.71684         9.34399
     2018.13867        27.46200         9.12356
     2018.14099        19.69456         7.52971
     2018.14373        19.31573         7.70188
     2018.14647        17.48391         7.76579
     2018.14921        20.84309         7.77101
     2018.15468       -21.99055         7.95622
     2018.16016        -5.66919         8.28751
     2018.16290         4.01898         7.87274
     2018.16564        10.59316         8.03187
     2018.16837         0.36434         7.72796
     2018.17111       -18.42548         7.67971
     2018.17385        -2.31030         7.85448
     2018.17659        -3.73712         7.83361
     2018.17932        -0.97495         7.60927
     2018.18206        -7.81077         8.01882
     2018.18754        -2.64941         7.61971
     2018.19028        -8.42923         7.59754
     2018.19301        -2.21005         7.60667
     2018.19575         4.95212         8.04491
     2018.19849       -16.03370         7.68231
     2018.20123         0.31948         7.78535
     2018.20397        -3.41234         7.54667
     2018.20670        -2.56316         7.58188
     2018.20944        -6.23998         7.58449
     2018.21218       -13.68080         7.52710
     2018.21492       -22.72763         7.36537
     2018.21765        -2.51045         7.35624
     2018.22039         1.12273         7.78927
     2018.22587       -15.04491         7.45667
     2018.22861       -12.71573         7.45145
     2018.23134        24.98644         8.84705
     2018.23408       -20.60938         7.52971
     2018.23682       -13.62820         7.62101
     2018.23956        -6.37102         7.45145
     2018.24230       -12.59684         7.64449
     2018.24503       -14.03366         7.90665
     2018.24777        25.07451         8.49750
     2018.25325        21.41687         7.74101
     2018.25598       -16.06395         7.91187
     2018.25872       -12.72277         7.69927
     2018.26146        -8.59359         7.63797
     2018.26420        -1.72441         7.48797
     2018.26694       -17.35724         7.49058
     2018.26967       -14.52106         7.82057
     2018.27241       -12.64488         7.47754
     2018.27515        -6.33170         7.38102
     2018.28062       -14.45034         7.71101
     2018.28336        -9.26717         7.60145
     2018.28610       -14.05499         7.40841
     2018.28884         0.37719         8.33446
     2018.29431       -14.08145         7.57014
     2018.29705       -13.33527         7.29885
     2018.29979       -10.83810         7.39406
     2018.30253       -14.68592         7.53623
     2018.30527       -14.44574         7.40972
     2018.30800       -15.94356         7.24537
     2018.31074        -5.40138         7.30407
     2018.31348        -9.46820         7.62623
     2018.31622        -5.56702         7.30537
     2018.31895        -3.57585         7.45276
     2018.32169       -18.38267         7.91578
     2018.32443       -12.74749         7.51667
     2018.32717       -15.73031         7.45276
     2018.32991       -12.83013         7.61449
     2018.33265        -5.92595         7.88187
     2018.33541       -11.66774         8.42446
     2018.33812        -4.48260         7.80622
     2018.34086       -10.79242         7.39146
     2018.34360        -8.52524         8.01361
     2018.34633        -6.74006         8.04230
     2018.34907        -5.68988         7.44102
     2018.35181        -4.62871         8.29794
     2018.35455       -15.39253         7.36537
     2018.35728        -8.15235         7.30146
     2018.36002       -15.47617         7.51667
     2018.36276       -12.45899         7.58188
     2018.36550        -2.81581         7.36537
     2018.36824        -7.38263         7.33407
     2018.37097        -6.41046         7.60275
     2018.37371       -11.15628         7.30146
     2018.37645        -3.47910         7.65753
     2018.37919        -6.46692         7.41624
     2018.38193       -16.39974         7.77883
     2018.38466        -5.40356         7.30668
     2018.38740        -6.70039         7.23364
     2018.39014        -6.11021         7.36407
     2018.39288         1.37697         7.53754
     2018.39561        -3.54185         7.34320
     2018.39835         3.55933         7.43450
     2018.40109         2.10851         7.39015
     2018.40383         5.60568         7.73188
     2018.40657        -3.08314         7.49189
     2018.40930         1.58604         7.65492
     2018.41204         6.35822         7.65232
     2018.41478        -0.61260         7.42928
     2018.42299        -5.94907         7.81274
     2018.42573         5.85911         7.75536
     2018.42847         0.70429         7.41754
     2018.43121        -0.46553         7.43580
     2018.43394         0.83965         7.75014
     2018.43668        -6.69817         7.68101
     2018.43942        -7.28700         7.85187
     2018.44216        -4.40282         7.42928
     2018.44490        -1.08764         7.45928
     2018.44763        -5.08146         7.53102
     2018.45037        -3.51828         7.53884
     2018.45311         0.65390         7.32755
     2018.45585        -4.87893         7.48145
     2018.45859        -4.97575         7.61840
     2018.46132        -7.16357         7.78405
     2018.46406         8.06961         7.50232
     2018.46680        -0.46521         7.49189
     2018.46954         0.93297         7.54145
     2018.47227        -0.39686         7.48145
     2018.47501        -1.22168         7.36407
     2018.47775        -1.63550         7.40319
     2018.48049        -2.66232         7.70710
     2018.48323         3.43386         7.50363
     2018.48596        -3.26396         7.49450
     2018.48870         2.16822         7.31842
     2018.49144        -0.15461         7.29233
     2018.49418        -0.67743         7.45406
     2018.49692        -5.06625         7.63536
     2018.49965        -1.16607         7.37580
     2018.50239        -2.64889         7.32885
     2018.50513        -0.89671         7.34581
     2018.50787        13.36046         7.81927
     2018.51049         4.43546         8.19360
     2018.51334         4.29182         7.62232
     2018.51608        -3.52800         7.43580
     2018.51882        -2.19382         7.43841
     2018.52156         4.90136         7.65362
     2018.52429        -5.47847         7.30798
     2018.52703        -3.07529         7.38624
     2018.52977         1.19289         7.42798
     2018.53251        -1.65693         7.37059
     2018.53520         0.90718         7.62232
     2018.53806        -5.44646         7.63406
     2018.54061         0.94144         8.79488
     2018.54346         7.50479         7.66405
     2018.54620         0.44396         7.56623
     2018.54893         3.16514         7.41754
     2018.55167         4.10032         7.56362
     2018.55441         2.74450         7.37841
     2018.55715        -1.22532         7.61058
     2018.55989         1.75385         7.89752
     2018.56262         9.01103         7.60275
     2018.56536        -7.19279         7.83100
     2018.56810         4.50339         7.39537
     2018.57084        10.22057         8.02013
     2018.57357         3.71575         7.75796
     2018.57631        -0.44708         8.36707
     2018.57905         4.01110         7.80622
     2018.58179         4.20028         7.80101
     2018.58453         6.45246         7.89361
     2018.58726         1.30964         7.37189
     2018.59000         6.03282         7.35885
     2018.59274         9.86600         7.57667
     2018.59548         1.00617         7.49450
     2018.59822         9.56635         7.49710
     2018.60095        -0.79247         7.36798
     2018.60369        15.72471         7.47493
     2018.60643         4.14589         8.01882
     2018.60917         7.54007         7.52710
     2018.61190        11.88324         7.43580
     2018.61464        12.11242         8.28881
     2018.61738         9.11060         7.39276
     2018.62012        11.45078         7.42928
     2018.62286         3.57196         7.42145
     2018.62559        -1.13186         7.73970
     2018.62833         0.92831         7.73579
     2018.63107        14.13449         7.46711
     2018.63381         2.25367         7.91448
     2018.63655         8.41685         7.42015
     2018.63928        13.97803         7.81274
     2018.64202        10.17521         8.32664
     2018.64476        10.61739         7.30016
     2018.64750         7.69356         7.48928
     2018.65023         9.39574         8.23795
     2018.65297         4.96592         7.91578
     2018.65571         7.72110         7.51928
     2018.65845         9.47528         7.55188
     2018.66119         7.76146         7.49580
     2018.66392         4.59663         8.14143
     2018.66666        13.26081         7.35233
     2018.66940        -0.76101         7.73318
     2018.67214         7.60517         7.61058
     2018.67488         4.87435         7.69014
     2018.67761         2.68953         7.54145
     2018.68035         9.65870         7.69014
     2018.68309         2.91988         7.73970
     2018.68583        -0.15494         7.79448
     2018.68856         7.90724         7.50884
     2018.69071         2.54451         9.84484
     2018.71431       -11.43946        16.71849
     2018.71594         0.09702         7.43450
     2018.71868        -5.34780         7.51797
     2018.72142        -5.65762         7.53102
     2018.72416        -4.39144         8.06839
     2018.72689         8.24674         7.69536
     2018.72963         2.28092         7.47493
     2018.73237        -1.65191         7.79318
     2018.73511        -0.04473         7.59362
     2018.73785         3.54045         7.79579
     2018.74058        -1.16037         7.46580
     2018.74332         8.26681         7.96665
     2018.74606         3.31799         7.51145
     2018.74880        -3.59383         7.60797
     2018.75154        -7.84566         8.20142
     2018.75427         5.50352         8.38272
     2018.75701         2.64570         7.56623
     2018.75975         3.25188         7.44363
     2018.76249         6.81806         7.86622
     2018.76522         5.20324         7.64710
     2018.76796         2.58841         7.48406
     2018.77070         6.50359         7.48145
     2018.77344         5.01277         7.60667
     2018.77618         7.02995         7.97187
     2018.77891         5.48213         7.97317
     2018.78165         5.25931         7.93013
     2018.78439         3.42148         7.64971
     2018.78713         4.83166         7.49841
     2018.78987        -5.90516         7.57406
     2018.79260         1.86202         7.52841
     2018.79534        12.85520         7.42928
     2018.79808         5.23138         7.50232
     2018.80082         2.79556         7.55971
     2018.80355         8.66473         7.50623
     2018.80629         3.61291         7.82057
     2018.80903        -0.26991         7.55058
     2018.81177         1.59327         8.19882
     2018.81451        -1.06155         8.43359
     2018.81724        -2.43837         8.12186
     2018.81998         3.48580         8.12186
     2018.82272         8.06798         7.62493
     2018.82546         3.53316         8.08926
     2018.82820         5.37234         7.72666
     2018.83093         1.06952         7.60145
     2018.83367         5.67470         7.59884
     2018.83641         5.60987         8.22099
     2018.83915        -0.00195         7.92883
     2018.84188         0.79823         7.91578
     2018.84462         5.50541         7.75666
     2018.84736        -4.19541         7.85448
     2018.85010        10.16177         7.99795
     2018.85284         3.38995         7.56493
     2018.85557        -4.72388         8.23925
     2018.85831         7.42230         7.48537
     2018.86105         3.09648         7.56493
     2018.86379         7.00966         7.57927
     2018.86653         9.56084         7.54275
     2018.86926        -5.52998         8.00448
     2018.87183        -4.16106         9.15095
     2018.87474         4.50737         7.83100
     2018.87748         0.54255         7.81274
     2018.88021         4.09573         7.78405
     2018.88295         8.24191         8.05795
     2018.88569        12.51609         7.59362
     2018.88843        15.27126         7.58319
     2018.89117         3.98144         7.79840
     2018.89390         2.37962         7.82057
     2018.89664        -0.94020         7.94970
     2018.89938         5.63298         7.91839
     2018.90212         4.55016         7.68753
     2018.90485         8.61234         8.29664
     2018.90759         0.51051         7.80492
     2018.91033         4.78069         7.69144
     2018.91307        11.30387         7.98752
     2018.91581         5.86005         7.77362
     2018.91854        14.62123         7.84013
     2018.92128         2.70241         7.70318
     2018.92402         2.25658         7.63406
     2018.92676         5.45076         7.60145
     2018.92950        11.48894         7.93665
     2018.93223        10.43812         7.75014
     2018.93497         8.71830         7.60927
     2018.93771         3.18948         7.99795
     2018.94045         8.42865         7.67449
     2018.94318         5.81883         7.68101
     2018.94592         6.90801         7.80753
     2018.94866        10.33119         7.76579
     2018.95140        15.32737         8.01882
     2018.95414        35.87055         7.88187
     2018.95687         9.67273         7.57145
     2018.95961         9.45890         7.72014
     2018.96235        15.30708         7.63536
     2018.96509         8.23126         7.64840
     2018.96783        -2.17556         7.83231
     2018.97056        19.70862         7.81144
     2018.97604        -4.65603         7.72144
     2018.97878         2.95715         7.64971
     2018.98151        -5.16267         7.58449
     2018.98425         3.79451         7.85448
     2018.98699        -0.15731         7.77622
     2018.98973        -3.33413         7.99274
     2018.99247        -4.35196         7.80101
     2018.99520       -14.18678         7.73449
     2018.99794        -8.16460         7.56101
     2019.00068        -1.98342         7.97969
     2019.00342        -4.49424         7.80492
     2019.00616        -7.84406         7.82057
     2019.00889        -3.33089         7.76057
     2019.01163         1.17629         8.15838
     2019.01437        34.92147         8.78705
     2019.01711         4.75465         7.73709
     2019.01984        -1.14517         7.57275
     2019.02258        -4.56399         8.11273
     2019.02532         1.04119         7.69927
     2019.02806        -3.92964         8.12056
     2019.03080         0.80054         8.08926
     2019.03353        -8.48228         8.25751
     2019.03627        -7.72610         7.71883
     2019.03901         1.43608         7.61710
     2019.04175         1.46226         7.48797
     2019.04449        -4.05657         7.65101
     2019.04722         0.21161         7.78666
     2019.04996        -4.96421         7.80361
     2019.05270        -8.10803         7.82709
     2019.05544        -1.78185         8.03447
     2019.05817        -9.11867         8.04100
     2019.06091        -0.70850         7.88057
     2019.06365         3.71468         7.82448
     2019.06639        -3.16314         7.84666
     2019.06913        -3.73496         7.78275
     2019.07186        -4.68878         7.78144
     2019.07460        -6.00660         7.65232
     2019.07734         7.27858         7.91448
     2019.08008         6.15475         7.51145
     2019.08282         2.61893         7.69666
     2019.08555        -6.06889         7.50754
     2019.08829        -3.01371         7.51667
     2019.09103         3.56447         7.55841
     2019.09377        13.16765         7.48537
     2019.09650        21.23982         7.44102
     2019.09924        19.95700         7.94970
     2019.10198        10.30518         7.46711
     2019.10472         9.26236         7.54797
     2019.10746         9.23654         7.56101
     2019.11019        10.53972         7.46319
     2019.11293         8.50789         7.66666
     2019.11567         5.74007         8.08404
     2019.12388        13.54261         7.96404
     2019.12673         4.59796         8.25490
     2019.12936        -6.01303         7.55841
     2019.13210         0.23614         7.68231
     2019.13483         3.69532         7.61058
     2019.14305        23.75386         7.96143
     2019.14579       -30.91796         7.96274
     2019.14852        31.04821         8.26664
     2019.15400         6.15957         7.60536
     2019.15674         1.57775         7.85057
     2019.15940         5.07482         7.74753
     2019.16226        -2.37483         7.69797
     2019.16495         1.45728         7.53884
     2019.16769        -3.24354         7.54015
     2019.17043         1.91264         7.69797
     2019.17316         6.40982         7.84144
     2019.17590         2.62300         7.46971
     2019.17864         9.81218         7.53884
     2019.18138         7.02836         7.70579
     2019.18685        -0.06529         7.80622
     2019.18959         3.17989         7.60797
     2019.19507         8.72825         7.82057
     2019.20054        -0.19140         7.69797
     2019.20328        -4.84722         7.56232
     2019.20602        -4.38304         7.95361
     2019.20876        -4.82586         7.53754
     2019.21149       -10.24768         7.97056
     2019.21423        -5.69850         7.60145
     2019.21697        -0.99033         7.42276
     2019.21971        -0.28915         7.84535
     2019.22245        -5.14897         7.53493
     2019.22518        -5.13779         7.47232
     2019.22792         3.43939         7.60667
     2019.23066       -10.05943         8.43229
     2019.23340        -6.06325         7.53493
     2019.23613        -3.55908         7.54015
     2019.23887        -4.79490         7.52449
     2019.24161       -13.12272         7.97056
     2019.24435        -5.41254         7.74492
     2019.24709        -1.80236         7.72796
     2019.24982        -2.38918         7.51145
     2019.25256        -5.26301         7.75275
     2019.25530        -2.11783         7.49450
     2019.25804        -2.71165         7.76840
     2019.26078         2.15953         7.58319
     2019.26351        -9.07829         7.75014
     2019.26625        -8.47911         7.52058
     2019.26899        -6.42394         7.72796
     2019.27173        -0.21876         7.95883
     2019.27446        -7.20858         8.74793
     2019.27720        -1.30340         7.75405
     2019.27994        -2.96922         7.63797
     2019.28815        -5.78269         7.66797
     2019.29089        -2.39551         7.64188
     2019.29363        -2.63533         7.63275
     2019.29637        -2.39315         7.88578
     2019.29911         3.53803         7.51797
     2019.30184         0.82521         7.62232
     2019.30458       -10.66862         7.54406
     2019.30732       -11.28744         7.67840
     2019.31006        -5.53326         7.58449
     2019.31279        -7.38308         8.15186
     2019.31553         8.57210         7.68492
     2019.31827        -4.64972         7.58319
     2019.32101        -4.05455         7.58188
     2019.32375        -8.21037         7.48928
     2019.32639        -5.27833         7.69666
     2019.32942        -2.20071         7.96143
     2019.33196        -3.18983         7.72014
     2019.33470         1.82035         7.68623
     2019.33744        -1.77147         7.65232
     2019.34017       -13.38730         7.38233
     2019.34291        -1.19812         7.38233
     2019.34565        -1.51194         7.63536
     2019.34838        -7.18278         8.18056
     2019.35115        -1.18455         8.17534
     2019.35386        -2.57240         7.39276
     2019.35660         8.72177         7.89491
     2019.35934         2.27995         7.52710
     2019.36208        -5.47487         7.40841
     2019.36481        -1.88469         8.50924
     2019.36755        -6.91851         7.61710
     2019.37029         0.16067         8.01491
     2019.37303        -5.13316         7.56884
     2019.37577        -1.70398         7.68101
     2019.37850         9.11820         7.66145
     2019.38124         1.20038         7.88318
     2019.38398         1.40656         7.48537
     2019.38672         2.41974         7.44102
     2019.38945        -9.22208         7.42406
     2019.39219       -10.51291         8.45707
     2019.39493        -7.38073         7.54015
     2019.39767         1.23245         7.58188
     2019.40041         2.64163         7.43711
     2019.40308        -3.05829         7.48928
     2019.40593         3.02506         7.49971
     2019.40862        -1.27584         7.41754
     2019.41136        -0.66866         7.44624
     2019.41410         1.64252         7.68231
     2019.41683         0.27470         7.54015
     2019.41957         6.62788         7.79318
     2019.42231        -6.28194         7.40711
     2019.42505        -3.78877         7.59623
     2019.42778        -1.37959         7.77753
     2019.43052         7.73959         8.05143
     2019.43326        -2.14123         7.54797
     2019.43600        -1.56705         7.42928
     2019.43874        -6.95487         7.51928
     2019.44147         0.10731         7.56362
     2019.44414        -4.00363         8.26403
     2019.44702        -1.45224         8.01100
     2019.44969         5.83884         7.52841
     2019.45243         4.99902         7.44885
     2019.45516        -2.52380         7.48145
     2019.45790        -1.00862         7.70057
     2019.46064         1.47955         7.54928
     2019.46338         5.65773         8.17795
     2019.46611         1.99191         8.17403
     2019.46885         6.58609         7.92361
     2019.47159         2.38527         7.62362
     2019.47433        -0.91955         8.35533
     2019.47707         2.02962         8.09317
     2019.47980        -4.08620         7.51406
     2019.48254         1.72098         7.52710
     2019.48528        -0.50084         7.65623
     2019.48802        -8.02066         7.64188
     2019.49076        -4.53848         7.81014
     2019.49349        -0.13930         7.41493
     2019.49623         1.80087         7.41363
     2019.49897         1.85805         7.53493
     2019.50171         3.65123         7.81405
     2019.50444        -2.82059         7.76709
     2019.50718         1.91859         7.38624
     2019.50992         7.90177         7.32755
     2019.51266        -3.54006         7.82579
     2019.51540         2.13012         7.47493
     2019.51813         3.62530         8.34359
     2019.52087        -4.46852         7.75144
     2019.52361        -1.54334         7.50363
     2019.52635        -3.62416         7.99013
     2019.52908        -0.40899         8.02534
     2019.53182        -2.24481         8.00578
     2019.53456        -2.64763         7.63145
     2019.53730        -0.14845         7.78927
     2019.54004         3.50273         7.85448
     2019.54277        11.95591         7.89752
     2019.54551        -6.60991         7.87274
     2019.54825         2.04826         7.34841
     2019.55099         0.56644         7.97448
     2019.55373        -0.74838         7.60145
     2019.55646        -3.30220         8.35533
     2019.55920        -4.91402         7.84796
     2019.56194         2.18716         7.53102
     2019.56468        -7.50967         7.58710
     2019.56741        -4.98149         7.50754
     2019.57015        -6.42931         7.36146
     2019.57289         3.99287         7.48928
     2019.57563        -0.36595         8.20142
     2019.57837         1.50523         7.55971
     2019.58110         4.08740         7.55841
     2019.58384        -7.24742         8.08013
     2019.58658         1.84576         7.34711
     2019.58932         0.19594         7.40059
     2019.59206         2.65412         7.63145
     2019.59479        -0.85470         7.76579
     2019.59753         1.18647         7.68884
     2019.60027         7.50965         8.34620
     2019.60301         1.90883         7.53102
     2019.60574         9.62401         8.22360
     2019.60848         9.06319         8.20534
     2019.61122        -2.96763         7.37580
     2019.61396        -9.73645         7.69275
     2019.61670         5.69472         7.53884
     2019.61943        -3.97410         7.84535
     2019.62217        14.32708         7.67840
     2019.62491         7.23026         7.35494
     2019.62765         4.75144         7.45798
     2019.63039        16.77562         7.50623
     2019.63312        -1.64421         8.02274
     2019.63586        -0.39303         7.83883
     2019.63860        -0.28485         7.62493
     2019.64134        -1.64467         7.58710
     2019.64407         9.52551         7.81796
     2019.64681        -1.57431         7.84535
     2019.64955        -7.01914         7.47232
     2019.65229         3.10804         7.59232
     2019.65503         4.18222         7.88187
     2019.65776         1.77740         8.24838
     2019.66050         0.84558         7.97578
     2019.66324         8.27576         7.63797
     2019.66598         9.94794         7.49971
     2019.66872         9.97211         7.41754
     2019.67140        -1.93979         8.45707
     2019.67440       -35.73921        38.60070
     2019.67695         8.60268         8.46228
     2019.67967        14.13383         7.76449
     2019.68240         4.14401         7.53493
     2019.68514        -9.03582         7.63927
     2019.68788        -2.42364         7.68884
     2019.69062        -2.75146         7.61188
     2019.69336         6.18972         7.45667
     2019.69609         7.09090         7.64188
     2019.69883        -7.12992         7.76449
     2019.70157        -9.12275         7.73840
     2019.70431        -4.56457         7.66405
     2019.70705        -3.32939         7.48406
     2019.70978         0.54979         7.78535
     2019.71252        -3.00603         7.43841
     2019.71526         0.37815         7.37841
     2019.71800        -1.42467         7.92491
     2019.72073        -1.02950         7.76709
     2019.72347        -0.14732         7.43058
     2019.72621         3.27786         7.58319
     2019.72895        -2.39396         7.64319
     2019.73169         7.44222         8.55619
     2019.73442         0.94840         7.74753
     2019.73716         7.38157         7.60014
     2019.73990         2.44375         7.90796
     2019.74264        -4.72907         8.04100
     2019.74538         6.19311         7.27668
     2019.74811        10.44329         7.60536
     2019.75085        10.14247         7.94187
     2019.75359         0.92964         7.82057
     2019.75633        -0.80118         7.56101
     2019.75906         0.57700         7.39406
     2019.76180         2.69218         7.45928
     2019.76454        -1.73064         7.57667
     2019.76728        -7.01846         7.63145
     2019.77002        -0.84628         7.54275
     2019.77275        -3.41511         8.28229
     2019.77549         6.00307         7.57014
     2019.77823         9.13425         7.65753
     2019.78097         8.45443         8.13360
     2019.78371         8.38161         7.55841
     2019.78644         3.97379         7.91187
     2019.78918         3.64896         7.82187
     2019.79192         5.41914         7.98882
     2019.79466         2.87932         8.50924
     2019.79739        -4.18150         8.68923
     2019.80013         3.54068         7.71101
     2019.80287        -0.09714         7.69666
     2019.80561         1.41203         7.81144
     2019.80835         5.65421         7.57797
     2019.81108        -2.85861         7.62493
     2019.81382         2.08957         7.75405
     2019.81656        -1.84925         7.95491
     2019.81930         7.22893         7.59232
     2019.82203         7.67411         7.56493
     2019.82477         6.30728         7.97709
     2019.82751        10.13846         7.64840
     2019.83025         6.48764         7.75796
     2019.83299        11.11982         7.90013
     2019.83572         7.20600         7.51536
     2019.83846         8.27818         7.53493
     2019.84120         2.52135         7.55710
     2019.84394         7.10653         7.85448
     2019.84668         4.59571         8.19360
     2019.84941         5.34689         7.57406
     2019.85215         5.23007         7.64319
     2019.85489         5.62225         7.87405
     2019.85763         4.31942         7.74101
     2019.86036         3.42560         8.12056
     2019.86310         1.54178         7.73318
     2019.86584        14.31196         8.11143
     2019.86858         5.09414         7.84274
     2019.87132         2.14532         7.98882
     2019.87405         6.31750         7.68231
     2019.87679        -0.07933         8.27968
     2019.87953         5.81285         7.95361
     2019.88227         5.68603         8.42707
     2019.88501         2.83621         7.91318
     2019.88774         6.80839         7.89622
     2019.89048        12.17757         7.73057
     2019.89322        16.72874         8.18447
     2019.89596         0.74192         8.02404
     2019.89869         4.72610         7.69275
     2019.90143        15.40528         7.57536
     2019.90380        13.39590         9.60876
     2019.90938        44.69641        92.59080
     2019.91494        13.83790       163.15331
     2019.91766        14.70405        26.38595
     2019.92922         5.62369         9.44573
     2019.93155         6.52724         7.59362
     2019.93429         9.12042         7.65492
     2019.93702         0.11360         7.73449
     2019.93976         3.04378         8.25751
     2019.94250         1.95096         7.76318
     2019.94524        -7.24987         7.69405
     2019.94747       -19.91046        13.81382
     2019.95659       -10.83654       191.86743
     2019.95836        -2.04984       155.73577
     2019.96195        16.24663        62.85672
     2019.96365       -15.24376        91.26303
     2019.96987       -42.85827       121.07667
     2019.97246        -9.98133        74.15585
     2019.97810        -8.93671        44.47395
     2019.98070       -39.08675       139.63943
     2019.98665        22.64934        49.28289
     2019.98869         6.07945       114.85647
     2019.99136        29.84252        49.29985
     2019.99769        -3.51082        10.57525
     2020.00000         0.57670         7.90665
     2020.00273        -3.51212         7.75796
     2020.00547         4.06906         7.91709
     2020.01095        29.26642         8.17012
     2020.01645        -6.52018         7.89622
     2020.01916        -1.25605         8.09708
     2020.02190         7.20313         8.19621
     2020.02461        37.01526         8.35011
     2020.03011        -7.70733         8.08013
     2020.04106       -24.79062         7.80361
     2020.04380        30.88356         8.96966
     2020.04643        -6.35042         7.84796
     2020.04929         1.99494         7.51928
     2020.05201         3.50309         7.52058
     2020.05475        -6.24573         7.58840
     2020.05749        -1.93155         7.70579
     2020.06023        -6.64537         7.54928
     2020.06297       -13.02719         7.59493
     2020.06570        -4.03202         7.47754
     2020.06844        -1.99384         7.71883
     2020.07118         6.29634         7.51015
     2020.07392        -3.03748         7.52058
     2020.07666        -8.02030         7.45537
     2020.07939        -4.52212         7.51667
     2020.08213       -10.73694         7.56754
     2020.08487        -4.05877         8.01621
     2020.08761        22.28641         7.55841
     2020.09034        29.96459         7.43971
     2020.09308        11.21477         7.41624
     2020.09856        -5.67587         8.04230
     2020.10130        -8.04270         7.62232
     2020.10403        -8.87252         8.18838
     2020.10677       -14.00334         7.65492
     2020.10951        -3.78416         7.88839
     2020.11225        -7.65998         7.49710
     2020.11498         3.00120         7.82840
     2020.11772        -1.36463         8.12969
     2020.12872       -13.92885         7.60014
     2020.13141         2.39027         7.61319
     2020.13415        -1.68855         7.73840
     2020.13689         5.47862         7.55841
     2020.13963        -3.23520         7.60014
     2020.14236        -4.61702         7.66275
     2020.14510         1.46416         7.62232
     2020.15331        -1.64331         7.71362
     2020.15605        -0.02513         7.61319
     2020.15879        -0.80895         7.46058
     2020.16975        13.05977         8.13621
     2020.17248        -9.12306         9.08183
     2020.17402        36.38130        33.48785
     2020.17796        -2.69270         8.82358
     2020.17967         6.08592        27.95893
     2020.18343        10.59366         8.62010
     2020.18617         1.55984         8.28881
     2020.18891         0.91602         8.70097
     2020.19074        15.74381        21.49744
     2020.19439        -1.61562         8.62271
     2020.19712         2.35455        10.33526
     2020.19986         3.05673         8.85749
     2020.20260        -2.59809         8.74662
     2020.20486         1.40037        10.51786
     2020.20771        -5.45829         9.47051
     2020.21081         4.77944         8.48185
     2020.21355       -11.87338         8.93314
     2020.21629        -7.28720         8.03578
     2020.21900        -2.99006         7.83622
     2020.22172        -7.52390         8.03317
     2020.22458         2.29545         7.74622
     2020.22727        -3.05145         7.70449
     2020.22997        -2.69531         7.67188
     2020.23271         0.49887         7.78535
     2020.23545        -4.35395         7.70318
     2020.23819        -9.06378         7.70318
     2020.24093        -9.09260         7.64319
     2020.24366        -5.51442         7.66014
     2020.25180        -9.37900         7.73318
     2020.26009         7.55765         7.54275
     2020.26283         5.50083         7.60667
     2020.26557        -2.87299         7.65101
     2020.26830        -0.58181         7.89491
     2020.27117        -6.20144         7.90665
     2020.27378        -0.06746         7.58840
     2020.27652        -4.29428         7.99404
     2020.27929         1.59595         8.12056
     2020.28199         1.97208         7.72796
     2020.28473         2.55126         7.67971
     2020.28747        -5.00856         8.27968
     2020.29021         0.92361         7.62493
     2020.29295        -6.10921         7.57275
     2020.29568        -0.55303         7.51928
     2020.29842         9.90915         7.67318
     2020.30116         8.04033         8.12838
     2020.30390         5.34251         7.97578
     2020.30663        -6.09431         7.58188
     2020.30937       -15.13214         7.76057
     2020.31211        -1.67796         7.85318
     2020.31485         0.44922         7.83492
     2020.31759        -2.25160         7.50623
     2020.32032        -0.74142         7.84535
     2020.32306        -7.58324         7.87274
     2020.32580        -7.87007         7.56623
     2020.32854        -5.15689         7.70840
     2020.33128        -4.78671         7.88578
     2020.33401        -5.75553         7.94578
     2020.33675        -4.37435         7.89622
     2020.33949        -1.63417         7.49319
     2020.34223        -2.32600         8.27447
     2020.34496       -12.31582         7.69797
     2020.34770        -8.23564         7.50493
     2020.35044        -0.79446         7.57927
     2020.35318        -5.64328         7.61449
     2020.35592       -11.06210         7.64710
     2020.35865        -6.04992         7.62232
     2020.36139        -8.33975         7.82057
     2020.36413        -9.66157         7.66145
     2020.36687        -4.73139         7.57797
     2020.36961       -11.63421         7.61058
     2020.37234         1.63997         7.49319
     2020.37508        -6.61085         7.60536
     2020.37782        -6.48568         7.67579
     2020.38056        -7.25350         7.94578
     2020.38329         0.26168         7.54015
     2020.38603       -15.62314         7.67449
     2020.38877        -5.14496         8.10882
     2020.39151        -2.31978         7.60536
     2020.39425         0.08839         7.58580
     2020.39698        -4.44843         7.75144
     2020.39972       -14.19325         7.55580
     2020.40246        -8.81307         7.59623
     2020.40520        -3.49389         7.71362
     2020.40794       -10.68971         7.56101
     2020.41067        -3.09153         7.59101
     2020.41341        -7.75236         7.58971
     2020.41615       -12.95318         7.38885
     2020.41889        -6.05400         7.54536
     2020.42162        -4.60382         7.69927
     2020.42436        -6.89464         7.93665
     2020.42710        -3.75446         7.77101
     2020.42984        -6.71329         7.59101
     2020.43258       -15.67011         7.57927
     2020.43531       -16.65693         8.06969
     2020.43801        -9.36982         7.82318
     2020.44087        -6.55546         7.96274
     2020.44353        -4.91539         9.10400
     2020.44626        -6.18922         7.54406
     2020.44900        -4.95204         7.69666
     2020.45174        -9.38486         7.60145
     2020.45448         0.24532         7.57667
     2020.45722        -2.60050         8.15317
     2020.45991         1.61760         7.73318
     2020.46269       -12.78214         7.59101
     2020.46543        -7.29297         7.71492
     2020.46817        -5.00579         8.32533
     2020.47091        -1.11061         7.59101
     2020.47364        -8.07743         7.46711
     2020.47638        -0.82425         8.14925
     2020.47912         2.27193         7.75014
     2020.48186        -2.21290         7.74101
     2020.48459        -9.37172         7.81144
     2020.48733        -4.65954         7.76579
     2020.49007        -3.21436         7.84013
     2020.49281        -1.75118         7.70710
     2020.49555        -7.40200         7.88057
     2020.49828        -3.39383         8.05273
     2020.50102       -11.62565         7.47884
     2020.50376        -1.88347         7.66666
     2020.50650        -2.71529         7.53362
     2020.50924        -4.00511         7.73709
     2020.51197         0.93807         7.59232
     2020.51471        -6.56275         7.51536
     2020.51745         1.16942         7.52058
     2020.52019        -0.60640         7.63145
     2020.52292        -0.93822         7.66666
     2020.52566        -5.57604         7.76840
     2020.52835        -7.41394         8.39968
     2020.53116        -0.38466         8.24447
     2020.53388         2.83549         7.64971
     2020.53661         0.72567         7.77622
     2020.53935        -0.57515         7.92622
     2020.54209         2.89703         7.76579
     2020.54483        -0.50679         7.75796
     2020.54757         7.28339         7.70057
     2020.55030        -7.74444         7.68492
     2020.55304        -1.18826         7.88448
     2020.55578         3.28392         7.86361
     2020.55852         4.16610         7.73188
     2020.56125         2.80928         7.70579
     2020.56399         2.88446         7.96926
     2020.56673        -2.42036         8.27055
     2020.56947         7.20781         7.81535
     2020.57221         8.91399         9.16008
     2020.57494        -5.50983         8.00317
     2020.57768         6.75435         7.73709
     2020.58042         9.06553         7.79188
     2020.58316         3.78371         7.84405
     2020.58590         5.07288         7.81535
     2020.58863         5.46106         8.01230
     2020.59137        -4.59076         7.65623
     2020.59411         6.71442         8.23273
     2020.59685        12.54160         8.23795
     2020.59958        -2.40022         8.13230
     2020.60232         3.10895         7.65623
     2020.60506        -2.21487         7.66405
     2020.60780         7.06631         7.82970
     2020.61054         7.04149         7.79318
     2020.61327         6.06867         7.77101
     2020.61601         2.85085         8.00969
     2020.61875         0.98203         7.94578
     2020.62162        -4.29859         7.92883
     2020.62423        14.70638         7.76188
     2020.62696        -3.87444         7.82970
     2020.62970        -2.43926         7.89361
     2020.63244         7.40792         7.62623
     2020.63518         6.19610         8.17664
     2020.63791        -7.10373         8.04882
     2020.64065        -2.95755         7.93013
     2020.64339         4.63063         7.72927
     2020.64613        -0.43519         7.62101
     2020.64887         0.66499         7.72927
     2020.65160         4.97317         8.54576
     2020.65434         0.80734         8.07360
     2020.65708         4.93452         7.74101
     2020.65982         5.43370         9.14704
     2020.66256         3.63688         7.64579
     2020.66529         5.74006         7.58580
     2020.66803         4.28324         8.51315
     2020.67077         4.16242         7.99274
     2020.67351         9.47559         7.76970
     2020.67624         1.99677         7.72144
     2020.67898         4.12595         7.67188
     2020.68172         1.42813         7.68231
     2020.68446         4.29131         7.75666
     2020.68720        13.38949         7.87405
     2020.68993         1.96366         7.98361
     2020.69267         9.05684         7.81535
     2020.69541         9.03102         8.04230
     2020.69815         9.32320         7.75927
     2020.70089         9.75238         7.61058
     2020.70362        11.34656         7.79188
     2020.70636         8.81673         8.47272
     2020.70910         3.12991         9.92571
     2020.71184        -0.02091         7.87796
     2020.71457         7.55927         8.03839
     2020.71731        -0.61855         7.84666
     2020.72005         2.64363         8.00708
     2020.72279         3.48481         7.67579
     2020.72553        -1.24502         8.02534
     2020.72826         9.01816         8.08926
     2020.73100         6.34934         7.91970
     2020.73374         6.34652         7.84013
     2020.73648         1.99970         7.71883
     2020.73921         0.01288         7.72144
     2020.74195         4.96305         7.65623
     2020.74469         7.22223         7.68884
     2020.74743         7.28841         8.25360
     2020.75017        -0.21841         8.05795
     2020.75290        -5.72323         7.94057
     2020.75564        -1.43805         7.70057
     2020.75838         4.77512         7.81666
     2020.76112         8.09430         7.60406
     2020.76386         0.95148         7.58580
     2020.76659         6.47366         8.07230
     2020.76927         8.51875         8.01491
     2020.77212         2.35710         7.88578
     2020.77481         4.61520         8.17534
     2020.77754         1.10337         7.63275
     2020.78028         5.19155         7.89491
     2020.78302         6.77873         7.78535
     2020.78576         2.19391         7.66536
     2020.78850        -0.57791         7.64710
     2020.79123         7.41727         7.68101
     2020.79397        -8.63256         7.67449
     2020.79671        -2.94838         7.73188
     2020.79945       -14.46920         7.73449
     2020.80219         4.25998         8.04230
     2020.80492         1.28016         7.74753
     2020.80766         6.39134         7.67449
     2020.81040         0.06651         7.70840
     2020.81314        -0.78031         7.64319
     2020.81587         3.21087         7.76709
     2020.81861         2.48705         7.59623
     2020.82135         3.83623         7.74492
     2020.82375         0.41389         9.02965
     2020.83004        -9.49850        31.15707
     2020.84117        11.98848        14.81422
     2020.84310         4.56942         8.62793
     2020.84602        -7.81312         7.89491
     2020.84887        10.36322         7.89231
     2020.85147         9.10519         7.47754
     2020.85420        10.26937         7.82448
     2020.85694        20.36455         7.57406
     2020.86242        33.69290         7.73970
     2020.86516        13.66708         7.78014
     2020.86789        17.26026         7.96535
     2020.87063        17.07944         7.59884
     2020.87337        10.21862         7.73840
     2020.87611        10.76680         7.76057
     2020.87885        11.69097         8.18447
     2020.88158         2.86715         7.85448
     2020.88706         5.43351         8.22229
     2020.88980        -1.13131         8.11143
     2020.89253         7.04987         7.69797
     2020.89479         8.85631         9.59963
     2020.90110         7.05494         8.80140
     2020.90349         4.30358         7.68884
     2020.90622         0.76376         7.81405
     2020.90896        -1.39006         8.10491
     2020.91170         5.45812         8.15708
     2020.91444        -0.16871         7.87796
     2020.91718        -8.30153         7.97317
     2020.91991        -0.85635         7.60536
     2020.92265         0.32383         7.61710
     2020.92539         1.49601         7.57145
     2020.92813         0.49619         7.59884
     2020.93086        -0.30364         7.67710
     2020.93360         4.60154         7.74753
     2020.93634        -3.29228         8.22621
     2020.93908        -4.92510         8.03708
     2020.94182         0.29208         7.62884
     2020.94455        -2.96574         7.54667
     2020.94729        -3.35956         7.52971
     2020.95003       -11.63639         7.61840
     2020.95277       -14.26421         7.64710
     2020.95551       -10.29103         8.19099
     2020.95824         2.20215         8.45315
     2020.96098         7.35633         8.94096
     2020.96372        -7.75849         7.68753
     2020.96646       -15.11132         7.85318
     2020.96919        -4.79014         7.99795
     2020.97193        -8.03196         7.62884
     2020.97467         3.80222         7.76709
     2020.97741        -8.98460         7.63275
     2020.98015        -4.29542         7.84535
     2020.98288        -9.55925         7.99013
     2020.98562        -4.33707         7.69014
     2020.98836         8.76811         7.65492
     2020.99110         4.86329         7.55319
     2020.99384        -2.22353         7.64579
     2020.99657        -4.85435         7.65232
     2020.99931        -4.59517         7.62232
     2021.00205        -2.44800         7.68753
     2021.00479         4.81418         7.52580
     2021.01026        -5.07646         7.61449
     2021.01574        -1.18910         7.92622
     2021.01848        -8.95393         7.50232
     2021.02121        -2.03575         7.87405
     2021.02395        -5.96757         7.53362
     2021.02669        -9.57039         7.65362
     2021.02943        -8.69221         7.65884
     2021.03216        -7.98103         7.70449
     2021.03490        -2.82086         8.04621
     2021.03764       -10.83968         7.51145
     2021.04038       -10.43950         7.76318
     2021.04312       -11.13932         7.48276
     2021.04585       -11.52214         7.69536
     2021.04859        -0.48096         7.59101
     2021.05133        -6.57078         7.69536
     2021.05407         1.58639         8.04100
     2021.05681        -4.01343         7.75796
     2021.05954        -3.15125         8.17664
     2021.06228        -1.72307         7.68101
     2021.06502         1.66011         7.66145
     2021.06776         0.37829         7.50232
     2021.07049         6.14146         7.71231
     2021.07323         7.53164         7.58188
     2021.07593        -9.31624         7.68101
     2021.07878        -2.02689         7.95752
     2021.08145        -5.87982         7.58058
     2021.08418       -16.77764         7.69014
     2021.08692       -10.88847         7.60275
     2021.08966       -15.36729         8.11925
     2021.09240        -0.74911         7.82970
     2021.09514       -11.17793         7.80622
     2021.09787       -11.60775         7.80753
     2021.10335         5.09561         7.90535
     2021.10609        -7.58622         7.66536
     2021.10882         1.34096         7.65623
     2021.11156         3.07614         7.62362
     2021.11430        -6.22068         7.62232
     2021.11687         1.04524         8.17273
     2021.11979        -5.94430         7.42276
     2021.12264        -9.51195         7.90144
     2021.12525        -0.41797         8.33446
     2021.13620        -8.54125         7.76449
     2021.14168        -1.81790         8.02926
     2021.14442       -15.19972         7.87013
     2021.14715         0.19746         8.33707
     2021.14989        -7.57836         7.57927
     2021.15811        17.38017         8.30446
     2021.16358        -5.48147         7.87665
     2021.16632        -4.07029         7.67971
     2021.16906         1.96489         8.01491
     2021.17180        -6.40093         7.56884
     2021.17453       -14.91276         7.88187
     2021.17727       -13.23158         7.88970
     2021.18001       -14.19040         7.93665
     2021.18275         8.65478         8.14795
     2021.18548       -12.60504         7.53623
     2021.18822        -8.81286         7.59362
     2021.19096        -2.92369         7.58971
     2021.19370        -5.37851         7.62362
     2021.19644        -4.01533         8.02274
     2021.19917       -15.66015         7.70710
     2021.20191         8.80103         7.64710
     2021.20465        -4.78579         7.93144
     2021.20739        -5.02461         7.92622
     2021.21013       -12.54744         7.82840
     2021.21286       -14.49826         7.82840
     2021.21560         0.98292         8.52228
     2021.21834        26.31410         8.51315
     2021.22108        29.26928        10.06527
     2021.22655        11.34763        11.40348
     2021.22924        -2.37427         7.76318
     2021.23209       -10.29291         7.72927
     2021.23477       -13.96383         7.57145
     2021.23750        -9.05365         7.52449
     2021.24024        -2.16247         7.68231
     2021.24298        -8.56930         7.41754
     2021.24572       -12.11512         7.45276
     2021.24846       -12.20094         7.75405
     2021.25119        -4.50476         7.63927
     2021.25393       -10.26258         7.82448
     2021.25667        -9.25440         7.55710
     2021.25941       -10.73322         7.46450
     2021.26214        -5.14905         8.35794
     2021.26488        -7.25587         7.48145
     2021.27036        -3.85951         8.22751
     2021.27310         3.28467         7.63536
     2021.27583       -10.59715         7.58710
     2021.27857        -7.97598         7.67579
     2021.28131        -2.11180         7.66145
     2021.28405        -7.38162         8.48967
     2021.28679        -5.28344         7.71753
     2021.28952        -7.43926         8.38794
     2021.29226        -9.26408         8.05273
     2021.29500        -9.97791         7.64449
     2021.29774        -3.79673         7.87274
     2021.30047         1.69745         7.75536
     2021.30321        -0.47237         7.60797
     2021.30595         3.56181         7.87405
     2021.30869         4.30799         7.85318
     2021.31143        -3.91783         7.54015
     2021.31416        -5.21866         7.51536
     2021.31690        -1.44348         7.48537
     2021.32021         5.15757        10.46047
     2021.32295         4.94675        11.83389
     2021.32569       -13.08707        10.03788
     2021.32842         5.74711        10.25178
     2021.33116         0.76328        11.00175
     2021.33390         4.43946         9.92832
     2021.33664        -7.38836        10.28961
     2021.33937        -8.21118         9.95571
     2021.34211        -4.81700        10.66524
     2021.34485         4.51818        10.62872
     2021.34759       -13.34564         9.94788
     2021.35023        -5.64761        10.88697
     2021.35306        -2.03029         9.94918
     2021.35580         1.50389         9.92440
     2021.35854        -0.87293        10.06788
     2021.36128         8.69925        10.16439
     2021.36402        -2.89857        10.11613
     2021.36653        -7.72174         9.01270
     2021.36892       -10.11209         7.72014
     2021.37166       -15.88891         7.60797
     2021.37438        -7.94576         7.56362
     2021.37773         2.80735        11.73085
     2021.38044         5.62650        12.57343
     2021.38318        -5.62333        11.18305
     2021.38592        -6.51715        10.53873
     2021.38866       -10.21297        11.51695
     2021.39413        -4.18361        10.27135
     2021.39687        -5.48243        10.45786
     2021.39938        -7.58260         8.84966
     2021.40177       -13.54095         8.10752
     2021.40451        -3.19877         8.22751
     2021.40795        -9.91552        11.27174
     2021.41056         2.15646        10.26222
     2021.41330        -2.87236        10.50873
     2021.41603        -7.92118        10.29613
     2021.41877        -2.44701        11.88607
     2021.42151         3.53617        11.51173
     2021.42425         6.15635        11.54564
     2021.42699         7.11453        10.20352
     2021.42972         7.04971        10.13439
     2021.43246         3.30789        11.11262
     2021.43520        -0.10894        10.19439
     2021.43816         1.84158        17.74367
     2021.44068        -3.39858        10.10309
     2021.44341        -2.53740        11.02523
     2021.44615         0.64178        10.49829
     2021.44889        -2.94004        10.24787
     2021.45163         4.99413        10.88828
     2021.45436         8.96331        11.44652
     2021.45710        -4.36051        10.86611
     2021.45984         6.27567        10.12396
     2021.46258        -6.64515        10.41612
     2021.46527       -17.82804        10.81785
     2021.46805         0.59421        10.01570
     2021.47079         3.43038        10.20222
     2021.47353        -3.45344        10.55568
     2021.47627         1.96774        10.60785
     2021.47901         0.90092        10.31439
     2021.48174       -17.25990        10.95219
     2021.48448       -12.76472        10.27004
     2021.48722       -15.88355        10.16570
     2021.48996       -22.14637        11.03436
     2021.49269        -4.36419        10.68742
     2021.49520         2.76864        11.60825
     2021.49817        -1.06983        11.70738
     2021.50091        -1.85865        10.24135
     2021.50365        -6.83348        10.18917
     2021.50638       -16.44330        10.57394
     2021.50912        -7.14312        10.25178
     2021.51186        -0.07794        11.36826
     2021.51459         5.32722        10.84524
     2021.51733        -0.10958        10.40308
     2021.52007        10.21460        10.57133
     2021.52281        -2.89923        10.14483
     2021.52555        -3.78905        10.18396
     2021.52829        -7.27487        10.78654
     2021.53392         9.45573        11.79216
     2021.53650        -5.03333        12.49387
     2021.53924         3.57584        10.72002
     2021.54198        -0.36698        11.06436
     2021.54471        -7.65580        10.37960
     2021.54745       -10.22962        10.35743
     2021.55019         2.64256        10.66524
     2021.55293        -5.38426        10.84002
     2021.55566         4.09191        10.57394
     2021.55840        -0.24791        10.50090
     2021.56114         1.78227        10.28830
     2021.56388        -3.66455        10.20091
     2021.56605        -4.77524         7.92100
     2021.56878        -3.48506         7.98882
     2021.57152        -5.62389         8.38664
     2021.57426       -10.28571         8.12578
     2021.57700        12.38047         8.43098
     2021.57974         0.62965         7.90535
     2021.58247        -9.98217         7.76057
     2021.58521        -0.25399         8.25490
     2021.58795        -0.25581         8.40750
     2021.59069        -3.84864         8.09447
     2021.59342         2.28954         7.91057
     2021.59616        -5.07128         8.41533
     2021.59890        -2.77610         8.02795
     2021.60164         1.89808         8.02926
     2021.60438         4.41726         7.81927
     2021.60711         3.15643         7.91187
     2021.60985         6.46761         7.85187
     2021.61259         9.73779         8.08926
     2021.61533         2.71697         7.87665
     2021.61807         1.72715         7.74362
     2021.62080         4.09533         7.90535
     2021.62354         4.95850         8.18969
     2021.62628        -4.62032         7.81014
     2021.62902        -2.62514         7.82318
     2021.63175         2.21104         7.78666
     2021.63449         1.16122         8.21316
     2021.63723         7.67440         8.17925
     2021.63997         0.01758         7.86752
     2021.64271         2.18275         7.89100
     2021.64544         1.53393         7.81796
     2021.64818        10.64911         8.15838
     2021.65092         1.92929         7.87535
     2021.65366         9.90747         7.98752
     2021.65639         1.86365         7.76579
     2021.65913         5.43082         7.74362
     2021.66187         6.97500         7.79188
     2021.66448         2.12998         8.00187
     2021.66735         8.72536         7.70710
     2021.67008         0.06354         7.81274
     2021.67282         9.79572         8.15577
     2021.67556        -0.00911         8.34881
     2021.67830        15.10807         8.03578
     2021.68104         4.87225         7.82318
     2021.68373        11.63436         7.89100
     2021.68658        -3.28429         7.97709
     2021.68925        11.86179         7.77231
     2021.69199        -6.02303         7.98230
     2021.69472         2.40414         8.45315
     2021.69746        10.26232         8.01361
     2021.70020         6.23250         7.91709
     2021.70294         0.76468         7.87796
     2021.70568         7.36986         8.15969
     2021.70841         8.29804         7.96926
     2021.71115        10.10521         8.16360
     2021.71389         6.32839         8.14664
     2021.71663        -3.85143         7.86752
     2021.71937        -0.54125         7.85448
     2021.72210         6.33793         7.78666
     2021.72484         9.49711         8.40490
     2021.72758         5.90428         8.09186
     2021.73032         3.19146         8.25881
     2021.73305         9.25564         7.87796
     2021.73579         5.95082         8.06447
     2021.73853        -1.58100         8.99574
     2021.74127         1.46318         8.00317
     2021.74401         8.15036         8.32664
     2021.74674         1.08353         7.93013
     2021.74948         5.54971         7.87405
     2021.75218         4.17483         8.14012
     2021.75503         3.53618         8.47011
     2021.75706        16.92528        11.77129
     2021.76043        -2.46857         8.91879
     2021.76317        -6.14340         9.18487
     2021.76591        -4.54922         7.98622
     2021.76865         4.34696         7.85187
     2021.77138         9.05214         8.03839
     2021.77412         2.21532         7.99013
     2021.77686         7.39150         7.82318
     2021.77960        12.20967         7.94578
     2021.78234         1.20885         8.30316
     2021.78507        11.91303         7.90274
     2021.78776         6.07914         8.00969
     2021.79062         6.51050         8.17143
     2021.79329         9.20457         8.40750
     2021.79603         9.20375         8.39968
     2021.79876         9.49292         8.48837
     2021.80150        10.63410         8.10752
     2021.80424        10.84928         8.26012
     2021.80697        -7.92855         8.26403
     2021.80971        -2.08036         8.24968
     2021.81245        18.42082         8.20142
     2021.81519        14.90699         7.83231
     2021.81793         2.01417         7.94448
     2021.82067         2.99435         7.93274
     2021.82340        10.06853         8.15838
     2021.82614         1.72671         8.12578
     2021.82888         7.96989         7.96013
     2021.83162         6.02406         8.49228
     2021.83436         0.42024         8.85879
     2021.83709         0.37842         8.05534
     2021.83983        -3.46540         8.52359
     2021.84257         4.09578         8.31359
     2021.84531        -5.49004         8.10621
     2021.84804         6.01914         8.08795
     2021.85078        -3.97669         7.94187
     2021.85352         2.07149         8.04752
     2021.85626         2.09567         7.91057
     2021.85900        16.02385         8.49489
     2021.86173        -6.64397         8.02665
     2021.86447       -10.53179         8.30577
     2021.86721        -0.78762         8.32403
     2021.86995         2.96656         8.64619
     2021.87269         3.64374         8.20664
     2021.87542        -4.22608         8.16490
     2021.87816        -4.70790         7.76318
     2021.88090         0.50228         8.06056
     2021.88364        -6.43655         8.24316
     2021.88637        -2.72537         7.92231
     2021.88911        -0.06519         7.97187
     2021.89185        -7.93001         8.46098
     2021.89459         8.03017         8.77532
     2021.89986       -19.61978         8.95661
     2021.90829       -11.11793         8.13882
     2021.91102       -10.09676         7.89100
     2021.91375        -6.25958         8.06056
     2021.91661         1.60878         8.52489
     2021.91923        -5.79723         8.04360
     2021.92197        -8.96605         8.38403
     2021.93292         0.30167         8.54315
     2021.93566        -1.54816         8.57837
     2021.94113        23.02720         9.14835
     2021.95041         1.69136        17.21543
     2021.95208        -0.46808         8.28360
     2021.95756         8.82327         8.01621
     2021.96030        17.14245         8.51967
     2021.96303        23.58763         8.47011
     2021.97125         9.40816         8.05534
     2021.97398         2.52134         8.45837
     2021.97672        13.25252         9.41964
     2021.98217        39.45583        23.79170
     2021.98498        25.53011        48.60466
     2021.98782        44.45945         9.39094
     2021.99041        29.78541         8.23795
     2021.99315        28.53359         8.35142
     2021.99589        33.68077         8.25360
     2021.99863        31.32295         8.27838
     2022.00136        26.04313         8.23534
     2022.00684        25.31248         8.90575
     2022.00958        -0.93734         8.71141
     2022.01232       -31.82116         8.82097
     2022.01505        17.94802         8.98270
     2022.01779        -7.15480         8.27447
     2022.01937         7.82061        22.02177
     2022.02345        -2.35316         9.19008
     2022.02600        -5.99827         8.64228
     2022.02874        -8.19409         8.02013
     2022.03148       -10.87491         8.15969
     2022.03422        -6.59273         8.01882
     2022.03691       -11.83663         8.18708
     2022.03977       -13.17527         8.71923
     2022.04243        -5.70620         7.92883
     2022.04517        -8.15302         8.13751
     2022.04791        -7.15284         7.93665
     2022.05065        -2.81566         7.97709
     2022.05338        -6.03948         7.96535
     2022.05612       -13.37331         8.09839
     2022.05886        -6.77213         7.88057
     2022.06160        -6.38195         8.08534
     2022.06433         3.85623         8.01752
     2022.06707        -8.55159         7.99404
     2022.06981         8.03559         7.92231
     2022.07255        -8.61523         7.72405
     2022.07529         0.37894         7.71623
     2022.07802         4.22412         8.09186
     2022.08076        -0.94570         7.90796
     2022.08350        25.68248         8.00839
     2022.08624        27.32566         8.06969
     2022.09445       -15.83581         8.02926
     2022.09719        -5.62263         8.04491
     2022.09993        -0.55545         8.09839
     2022.10266       -11.48027         8.42707
     2022.10540        -0.91409         7.78796
     2022.10814         3.67808         7.84405
     2022.11088        -4.83174         8.05926
     2022.11362         6.37544         7.78014
     2022.11635         3.68062         7.79057
     2022.11909        -0.12320         7.75014
     2022.12183        -5.58102         8.10621
     2022.12457        -3.88184         8.42707
     2022.12731        -3.64967         8.27055
     2022.13004        -4.24549         7.91970
     2022.13278        -2.37431         8.78053
     2022.13552        -0.69013         7.74101
     2022.14099        -0.56877         7.78144
     2022.14373        -4.44760         7.73057
     2022.14647         7.79158         8.26403
     2022.14921         9.91176         7.95491
     2022.15195         2.65294         8.06447
     2022.15468         4.39312         7.63275
     2022.15742        -2.97770         8.51837
     2022.16016        -4.65753         8.03056
     2022.16290       -14.80435         8.04752
     2022.16564        -3.14417         7.82318
     2022.16837        -5.02999         7.76840
     2022.17111        -4.11481         8.01100
     2022.17385         5.82237         7.76449
     2022.17659         3.52655         7.74753
     2022.17932       -12.35628         7.87796
     2022.18206       -13.23610         8.11143
     2022.18480        32.65908         9.00487
     2022.18754        -3.32574         8.17925
     2022.19028        -4.08256         7.89231
     2022.19301        -3.53038         8.63836
     2022.19575         1.60079         7.89231
     2022.19803        -4.86673         9.70658
     2022.20123        -6.44684         7.88057
     2022.20265       -41.79568       130.07371
     2022.21055        -6.68062        19.81620
     2022.21218         0.44386         8.81314
     2022.21492        36.15104         9.05444
     2022.21765        -1.84678         8.92270
     2022.22039        -6.55160         7.83100
     2022.22313       -16.47442         8.18186
     2022.22587       -16.64324         7.90405
     2022.22861        -6.74106         7.96143
     2022.23123        -7.21706         8.08273
     2022.23429        -5.19339         8.54706
     2022.23682        -4.41753         8.66184
     2022.23956        -6.45735         7.87535
     2022.24230        -1.93817         8.26142
     2022.24413         7.16262        20.53617
     2022.24776         1.34217         7.98361
     2022.25051       -14.53964         9.12095
     2022.25325        -7.60246         8.27447
     2022.25598        -0.02628         9.20052
     2022.26146        -2.35692         8.18969
     2022.26420        -0.38975         7.77101
     2022.26694       -14.58857         8.26403
     2022.26967       -13.04239         8.32664
     2022.27515       -11.97703         8.18838
     2022.27789        15.18315         8.05665
     2022.28062         0.06033         7.80101
     2022.28336        -1.57650         8.64228
     2022.28610        -4.53732         8.06578
     2022.28884        -3.06814         8.00317
     2022.29423       -14.75291         8.00187
     2022.29709        14.27045         9.12226
     2022.29979        -1.88443         8.12708
     2022.30253       -10.52225         8.00317
     2022.30527       -10.90807         8.25751
     2022.30800        -4.46989         7.77101
     2022.31074        -8.22571         7.85579
     2022.31348       -10.52553         8.10621
     2022.31622       -15.55236         8.38403
     2022.31895       -26.46518         8.17143
     2022.32169        -8.71600         8.47011
     2022.32443        -3.46282         7.65884
     2022.32717        -9.46764         7.85709
     2022.32991        -6.10746         8.28229
     2022.33264       -16.64628         8.06187
     2022.33538       -15.90511         8.31881
     2022.33812       -14.56493         8.51707
     2022.34086        -5.93575         7.90013
     2022.34351       -14.45270         8.23403
     2022.34636        -4.10935         8.18969
     2022.35181        -5.19004         8.18316
     2022.35455        -4.09086         8.26142
     2022.35728        -7.84568         8.12056
     2022.36002       -11.64950         8.43620
     2022.36276        -8.20832         8.36707
     2022.36550        -9.42914         8.41011
     2022.36824       -11.06697         8.00187
     2022.37097       -12.87379         7.88970
     2022.37371       -18.57061         7.88187
     2022.37645       -12.74943         8.06839
     2022.37919        -8.70425         8.10360
     2022.38193       -14.93207         7.97187
     2022.38466       -13.61289         7.82187
     2022.38740       -26.44772         8.08143
     2022.39014        -9.10054         7.96404
     2022.39288       -11.39336         7.80101
     2022.39561       -19.50418         8.06447
     2022.39835       -11.29400         8.52620
     2022.40109        -7.81782         8.16099
     2022.40383        -4.20065         7.84013
     2022.40657       -13.80147         7.80622
     2022.40930       -21.59529         8.54576
     2022.41204        -7.01311         8.02926
     2022.41478         1.10007         7.89622
     2022.41752       -16.43675         8.30577
     2022.42026       -17.98958         8.45968
     2022.42299       -10.99840         8.01752
     2022.42573       -18.41122         8.17664
     2022.42847        -3.56804         7.76840
     2022.43121       -10.66786         8.00839
     2022.43394         2.25732         8.66315
     2022.43668       -25.60650         8.32142
     2022.43942       -16.72333         8.09578
     2022.44216       -18.80515         8.99966
     2022.44490         4.66303         7.95361
     2022.44763        -5.91179         7.82187
     2022.45037       -16.41261         7.74753
     2022.45311       -13.41543         7.88839
     2022.45585       -13.59426         7.93274
     2022.45765       -19.86750        14.37728
     2022.46461       -14.89188        10.20874
     2022.46598       -11.10979        12.35822
     2022.47039        -8.35606        13.67948
     2022.47148       -36.55040        12.18214
     2022.47595        11.86543        14.40727
     2022.47680         6.17173        14.85204
     2022.48988        -5.38432        23.26085
     2022.49144       -14.44994         7.89752
     2022.49398        -3.85306         8.62141
     2022.51158       -13.29820        15.94374
     2022.51295       -11.32111         9.17052
     2022.52828       -39.21572        38.73112
     2022.52898         6.00136        12.35301
     2022.54140        -1.79569        11.10610
     2022.54277        -5.37259        10.89219
     2022.58554        -4.03233        17.23890
     2022.58726         8.41031         8.00708
     2022.59000         6.21749         8.25099
     2022.59274         0.63167         7.86231
     2022.59548         1.58084         8.00839
     2022.59822        -7.26698         7.92100
     2022.60095        -1.70280         8.04882
     2022.60369        -9.19862         8.13621
     2022.60643         4.37956         7.82840
     2022.60917         2.57274         8.01100
     2022.61190        17.93991         8.08926
     2022.61464        12.20709         8.07752
     2022.61738        11.97427         7.74492
     2022.62012         2.27845         7.73709
     2022.62286         9.08263         7.76970
     2022.62559         9.29581         7.70057
     2022.62833         2.94698         7.78796
     2022.63107         1.65916         7.79579
     2022.63381         4.59534         7.72405
     2022.63655        17.42652         7.90274
     2022.63928         8.19470         7.82448
     2022.64202         3.38388         8.35011
     2022.64476         8.90305         8.48054
     2022.64750        10.25623         7.97969
     2022.65023         9.69641         7.92231
     2022.65297        15.94159         8.19360
     2022.65571        19.45077         8.12056
     2022.65845        14.93495         7.89752
     2022.66119        11.74613         7.81144
     2022.66392        23.28830         8.04360
     2022.66666        12.95448         7.87926
     2022.66940        20.15366         7.70579
     2022.67214        14.81684         7.79188
     2022.67488         9.39202         7.77362
     2022.67761         8.55420         7.90405
     2022.68035         8.72537         7.70057
     2022.68309        24.78755         7.85970
     2022.68583        12.77873         8.36446
     2022.68856         9.40191         7.76579
     2022.69130        15.11809         7.84796
     2022.69404        18.57527         8.19621
     2022.69678        16.11644         8.09708
     2022.69952        12.07862         7.85839
     2022.70225        21.08980         7.94317
     2022.70499         9.23298         7.94839
     2022.70773         6.89316         7.79318
     2022.71047        10.45134         7.77883
     2022.71321        17.42052         7.66666
     2022.71594        21.75769         7.70318
     2022.71868         9.65287         7.68362
     2022.72142        15.11505         7.76318
     2022.72416         9.12223         7.82448
     2022.72689        18.00141         7.96013
     2022.72963        10.99859         7.71883
     2022.73238         8.79577         7.79579
     2022.73511        14.08394         7.76188
     2022.73785        15.99812         7.76709
     2022.74058        15.33330         8.28360
     2022.74332        21.31648         8.36185
     2022.74606        13.08966         7.87926
     2022.74880         8.50483         7.85318
