# ================= DQRFIT RESULTS ================
# INPUT FILE: series/CWAK.rad
# OUTPUT: LDETRENDED
# FILTER FUNCTION: f(t)
# f(t)=+line(t)+annual(t)
# line(t)=+P 1+P 2*t
# annual(t)=+P 3*sin(2*pi*t+P 4)
# heav(t)=(t<0?0:1)
# TOTAL OBSERVATIONS MTOT= 3918
# INITIAL TIME INTERVAL= 2017.4726 - 2006.0315 = 11.4411
# TOTAL OBSERVATIONS AFTER PREFILTER M= 3898
# TIME-SPAN= 2017.4726 - 2006.0315 = 11.4411
# OBSERVATIONS: USED M=  3898 REJECTED MTOT-M=    20 %USED=   99.4895
# N=  4 PARAMETERS
# MAXSIG= 175.00000
# MAXRES= 745.98304
# SCALE FACTOR FOR LENGTHS: SCL=  10.00000
# SCALE FACTOR FOR SIGMAS: SCLSIG=   1.00000
# CHI^2=   5093.648 DOF=  3894 CHI^2/DOF=   1.30808
# RMS=      7.473 SDEV=      7.461 MEAN=    0.45127
#  P #       PARAMETER +-    SIGMA %error PARAMETER NAME
# P 1 =       145.12022 +-   70.472  48.56 YZERO                              
# P 2 =         0.22394 +-    0.035  15.65 SLOPE                              
# P 3 =         6.97684 +-    0.159   2.27 ANNUAL AMPLITUDE                   
# P 4 =        -3.02166 +-    0.032   1.06 ANNUAL PHASE                       
#       T            LDETRENDED       SIG_OBS
     2006.03149        13.94323         7.11617
     2006.03423         4.98661         7.02582
     2006.03697         6.49800         6.75133
     2006.03970        10.48439         6.57520
     2006.04244         7.36277         6.61294
     2006.04518         5.72616         6.76848
     2006.04792         5.86555         6.52831
     2006.05065         5.14693         6.63581
     2006.05339        -1.59468         6.67928
     2006.05613        -0.98829         6.40478
     2006.05887         1.38610         6.41279
     2006.06161        -7.32252         6.42995
     2006.06434         0.30387         6.85198
     2006.06670        -2.33766         7.73950
     2006.06982         0.30264         6.32701
     2006.07256        -9.16497         6.45396
     2006.07530        -1.17758         6.33731
     2006.07803        -8.54920         6.38534
     2006.08077        -4.21581         6.36361
     2006.08351         5.28258         6.33273
     2006.08625        -3.45504         6.42995
     2006.08898        -0.56165         6.81766
     2006.09169        -3.44326         6.50200
     2006.09328         9.17539        16.77139
     2006.10065        -0.51526         9.42418
     2006.10267        -3.71371         6.49056
     2006.10541       -11.25133         6.53631
     2006.10815       -19.19694         6.41737
     2006.11044        -8.07345         8.34109
     2006.11363        -3.82717         6.36933
     2006.11636        -5.04078         6.43338
     2006.11910        -5.13739         6.47455
     2006.12184         6.72399         6.36933
     2006.12458        -7.77562         6.51458
     2006.12731        -6.81823         6.41050
     2006.13011         1.53714         8.97127
     2006.13253        -1.07340         7.67087
     2006.13650         5.48271        12.52021
     2006.13827         4.84132         6.47684
     2006.14100         2.52070         6.46654
     2006.14258        -7.26665        16.53464
     2006.14648        -0.95152         6.44596
     2006.14922         7.62486         6.56834
     2006.15196         4.46025         6.46654
     2006.15469        -3.91436         6.35789
     2006.15743         1.93102         6.48828
     2006.16017        -0.48659         6.45282
     2006.16174        14.63806        19.44195
     2006.16550         3.76722         6.85312
     2006.16838        -6.61643         6.57748
     2006.17112         5.24596         6.35103
     2006.17386         7.33835         6.35675
     2006.17659         9.07773         6.41851
     2006.17937         6.73611         6.50886
     2006.18111         9.93472        13.92011
     2006.18481         8.37489         6.49171
     2006.18755         6.12428         6.37276
     2006.19029        11.00767         6.50429
     2006.19302         7.83205         6.74332
     2006.19576         7.29144         6.50200
     2006.19850         8.24083         6.65068
     2006.20124         2.02321         6.68499
     2006.20397       -14.03440         6.88629
     2006.20671        -6.60601         6.94805
     2006.20945         4.82037         6.65983
     2006.21219         1.37376         6.59578
     2006.21493         1.59715         6.64153
     2006.21766         3.56154         6.62323
     2006.22040        -7.94208         6.65869
     2006.22314        -4.83069         6.67699
     2006.22588         3.59270         6.88743
     2006.22862        -2.12492         6.63238
     2006.23135         1.59447         6.62781
     2006.23683         5.25724         6.43338
     2006.23957         2.32663         6.52487
     2006.24209        -6.01093         7.81498
     2006.24504         5.23740         6.41165
     2006.24778        -1.85721         6.36933
     2006.25046       -12.31081         6.61523
     2006.25319         5.97058         6.62209
     2006.25599         1.80595         6.62895
     2006.25873         5.04434         6.48256
     2006.26147         9.43673         6.71702
     2006.26575        13.50477        19.48999
     2006.27242         8.61427         6.68499
     2006.27516        -0.11934         6.80737
     2006.27790         2.48505         6.72045
     2006.28063         4.54643         6.56605
     2006.28337         0.38182         6.56834
     2006.28611        12.77221         6.59578
     2006.28885         3.83559         6.45740
     2006.29156        -0.98401         6.59007
     2006.29521         8.87617        10.03721
     2006.29706        11.68676         6.54317
     2006.29980        13.01514         6.61294
     2006.30254         6.49253         6.79022
     2006.30528         0.52392         6.56147
     2006.30777         4.05336         7.20538
     2006.31075         3.31469         6.37962
     2006.31343         7.98209         7.45586
     2006.31657         2.75039         7.60568
     2006.32172        -0.56377         6.58549
     2006.32444         9.82662         6.52716
     2006.32675        -6.21389         8.12378
     2006.32995         5.82939         6.52373
     2006.33539         2.59717         6.48599
     2006.34087         3.58295         6.41393
     2006.34355         9.34035         6.64153
     2006.34634        10.74472         6.48027
     2006.34908         7.03611         6.73189
     2006.35182         0.21049         6.55118
     2006.35456         1.29188         6.37505
     2006.35729         5.77927         6.52030
     2006.36003         3.78665         6.42880
     2006.36225         1.46016         8.62244
     2006.36551        -0.94557         6.51115
     2006.36781         3.19991         8.09062
     2006.37098         0.13520         6.68156
     2006.37372         5.26459         6.94690
     2006.37646         7.16298         6.60150
     2006.37920         1.86336         6.71130
     2006.38157         2.19783         7.67774
     2006.38467        14.54414         6.53860
     2006.38741        10.61552         6.59578
     2006.39015        -2.27809         7.39638
     2006.39289         2.05230         6.73532
     2006.39562        -0.98632         6.80051
     2006.39836         6.51107         6.73875
     2006.40110         6.85146         6.73646
     2006.40384         4.19484         6.57748
     2006.40658         5.58723         6.78450
     2006.40931         0.26262         6.57405
     2006.41205         6.18801         6.81881
     2006.41479        -2.10761         6.75247
     2006.41753         8.38178         6.96177
     2006.41991         8.62824         8.03229
     2006.42300         7.69855         6.73646
     2006.42574         4.23294         6.95148
     2006.42848         2.35333         8.36053
     2006.43122         4.48371         7.30031
     2006.43395        -2.38690         6.83253
     2006.43669         0.93049         6.56033
     2006.43894         9.45198         8.78142
     2006.44217        16.42526         6.64954
     2006.44491         3.64965         6.57634
     2006.44712        -0.72785         8.90608
     2006.45038         7.21442         6.59121
     2006.45386        -0.79736        11.76994
     2006.45586         9.41520         6.89086
     2006.46475         6.25620         9.17485
     2006.46681        13.45474         6.64268
     2006.46957         8.90812         6.82453
     2006.47228         8.13852         6.82338
     2006.47502         5.66190         6.67699
     2006.47658       -26.47345        19.61351
     2006.48391        15.07391         9.77530
     2006.48597        11.82745         6.87942
     2006.48871        14.72284         7.03611
     2006.49126         8.25427         7.27401
     2006.49419         8.55361         6.84397
     2006.49693        -0.67800         6.72388
     2006.49966         6.70739         6.79365
     2006.50240        -0.08223         6.74790
     2006.50514        14.52516         6.83025
     2006.50843         7.82342         8.98957
     2006.51067         8.26592         6.73074
     2006.51311        -0.12663         7.55993
     2006.52256        11.90626        13.25562
     2006.52430        11.66287         7.34835
     2006.52610        -3.31554        12.76268
     2006.52978         9.86264         6.80851
     2006.53252        11.09503         6.70787
     2006.53525         6.11842         6.69757
     2006.53799         7.81980         6.74561
     2006.54073         9.97819         6.89429
     2006.54346        11.80658         6.49285
     2006.54700         4.90479         9.64492
     2006.54881         9.54338         6.91488
     2006.55168         5.79674         6.50886
     2006.55442         6.42612         6.54660
     2006.55716         2.06951         6.52030
     2006.55990        12.35290         6.83368
     2006.56258        14.28430         6.79136
     2006.56606         5.26452         8.90036
     2006.56774         6.93214         7.83671
     2006.57175        18.68124        11.44855
     2006.57358        11.40383         6.54546
     2006.57632        16.74922         6.53288
     2006.57879         7.41067         7.40668
     2006.58171        16.58601         7.20424
     2006.58478        12.68433         7.49245
     2006.59001        19.70615         7.11503
     2006.59275        11.71054         6.69872
     2006.59549         7.57593         6.80966
     2006.59823        10.24831         6.73532
     2006.60096         6.98370         6.66326
     2006.60370        14.21009         6.56605
     2006.60644         8.62247         6.70444
     2006.60916         9.22987         6.67127
     2006.61191        12.74025         6.43223
     2006.61374        18.28584        13.41116
     2006.61755         7.37299         7.08415
     2006.62013        12.40341         6.66669
     2006.62248        18.89988         7.91677
     2006.62560        11.79418         7.18136
     2006.62834         8.79157         6.67013
     2006.63108         4.56196         6.47226
     2006.63382        10.37734         6.74904
     2006.63578        14.98190        10.98192
     2006.63929        23.61312         6.66784
     2006.64203        21.16250         6.48027
     2006.64477        15.63789         6.49743
     2006.64751        14.35828         6.78564
     2006.65024        15.16267         6.94233
     2006.65191        10.25529        16.85373
     2006.65584        13.40541         7.26829
     2006.65846         4.10583         7.24770
     2006.66120        19.22521         7.05899
     2006.66393        11.36560         7.11389
     2006.66667        14.81499         7.51190
     2006.66941        14.92037         6.86684
     2006.67215        16.37676         6.80966
     2006.67488        12.01815         7.25456
     2006.67762         8.24353         7.05899
     2006.68036        12.01092         7.06471
     2006.68310        18.35531         7.20195
     2006.68584        12.70969         7.09559
     2006.68857        20.41008         6.83368
     2006.69475        20.39070         9.75929
     2006.69679        19.70224         6.91030
     2006.69953        29.64063         6.76505
     2006.70226        29.89702         6.91831
     2006.70500        11.06940         6.63581
     2006.70774        15.47779         6.62438
     2006.71008        14.98227         8.11463
     2006.71321        15.57256         6.83711
     2006.71595        19.55295         6.62666
     2006.71936        21.13219         9.23204
     2006.72143        20.77672         6.99494
     2006.72417         9.09811         6.96978
     2006.72656        14.02057         8.10663
     2006.73870        19.96986        10.41578
     2006.74059        15.95043         6.72617
     2006.74333        13.14882         6.65869
     2006.74607        14.21621         6.82224
     2006.74881        18.91259         6.77992
     2006.75154        10.70198         6.82338
     2006.75428        10.54437         8.64303
     2006.75702        16.91875         6.65754
     2006.75976        11.40514         6.57520
     2006.76250        18.66053         6.70215
     2006.76523        16.87391         6.74104
     2006.76797        14.48130         6.71359
     2006.77071        15.61769         6.62781
     2006.77345         8.30608         6.77992
     2006.77619        15.33946         6.63581
     2006.77892        18.98385         6.58320
     2006.78097        24.09639         9.48022
     2006.79085        17.45818        13.06119
     2006.79261        22.11378         7.12647
     2006.79535        13.47917         6.49743
     2006.79809        16.56756         6.59578
     2006.80083        16.59794         6.84854
     2006.80356         6.60833         6.48141
     2006.80630        20.10772         6.41737
     2006.80904         8.33111         6.43795
     2006.81126        17.74161         8.08833
     2006.81452        23.62288         6.78335
     2006.81725        20.06827         6.77992
     2006.81999        13.61365         6.46540
     2006.82273        13.74404         6.44253
     2006.82546        25.45543         6.60265
     2006.82826        17.47880         6.64611
     2006.83100        17.93719         6.83482
     2006.83374        20.37757         6.69300
     2006.83648        11.45596         6.69757
     2006.83921        12.92435         6.77535
     2006.84195         9.20074         6.91602
     2006.84469        21.13512         6.90916
     2006.84737         1.62052         6.54660
     2006.85011        10.24191         6.83711
     2006.85275        16.93732        12.36695
     2006.85558        21.60268         6.69643
     2006.85832         8.79707         6.74790
     2006.86106        13.46246         6.77763
     2006.86380         4.70484         6.66784
     2006.86653        12.39723         6.69529
     2006.86927        15.78062         6.61866
     2006.87192        15.58103         6.74904
     2006.87475        17.93639         6.71931
     2006.87749        12.79178         6.51344
     2006.88022         8.62416         6.66898
     2006.88296         5.39255         6.69872
     2006.88570        11.63894         6.64725
     2006.88844        10.31033         6.63925
     2006.89118        11.04871         6.57405
     2006.89322        13.06325         9.29151
     2006.89665         5.29749         6.70901
     2006.89939       -43.98013         6.45854
     2006.90213        12.59526         6.52144
     2006.90486        17.42065         6.55118
     2006.91034        11.53942         6.42880
     2006.91308         2.99281         7.04755
     2006.91582        -9.70281         6.39792
     2006.91855         0.64158         6.41393
     2006.92059         6.57013         9.38987
     2006.92403         0.99135         6.44253
     2006.92677         0.89474         6.51115
     2006.92951         1.05413         6.64039
     2006.93224         1.87552         7.86416
     2006.93498         4.08890         6.85312
     2006.93772        13.30629         6.61637
     2006.94046        15.14468         6.55004
     2006.94319         6.51606         6.50657
     2006.94593         6.14145         6.58892
     2006.94867         9.73484         6.65526
     2006.95141        11.08922         6.72388
     2006.95415        12.00361         7.12075
     2006.95688        17.69500         6.52259
     2006.95962        11.16438         6.50314
     2006.96234         4.23978         6.55347
     2006.96501         3.08618         7.04526
     2006.96784        -2.12045         6.73074
     2006.97057        -4.89007         6.94690
     2006.97327        -1.56667         6.64611
     2006.97605        -7.23729         6.58320
     2006.97879        -7.12591         6.51458
     2006.98053        -3.37730        12.36810
     2006.98426         1.32587         6.56490
     2006.98700        -5.26875         6.72845
     2006.98974        -3.72436         6.67356
     2006.99248        -2.61997         6.66555
     2006.99521        -6.06859         6.77420
     2006.99795         2.80180         6.65297
     2007.00343        -4.65243         6.73760
     2007.00534        -3.26785        10.98306
     2007.00788         1.57658        16.88576
     2007.01164        -5.03326         7.32090
     2007.01438        -4.99588         6.80508
     2007.01712       -18.27049         6.60951
     2007.01985        -7.68510         6.61065
     2007.02259       -12.63872         7.26600
     2007.02533        -6.04533         6.57863
     2007.02807        -9.28394         6.47341
     2007.03081       -10.37456         6.38305
     2007.03354       -13.76117        19.74046
     2007.03628        -9.13178         6.29156
     2007.03902        -9.04640         6.26983
     2007.04176       -14.59901         6.43223
     2007.04449       -30.81562         6.22293
     2007.04723       -41.60323         6.46426
     2007.04997       -24.60985         8.06088
     2007.05271       -11.24846         6.39220
     2007.05545       -15.90007         6.32129
     2007.05818       -23.45769         6.36018
     2007.06092       -20.48530         6.44253
     2007.06366       -20.82191         6.38077
     2007.06529       -14.51428        14.99863
     2007.06914       -14.49814         6.35103
     2007.07187         0.30325         6.27440
     2007.07461        -6.53937         6.23437
     2007.07735        -4.32598         6.28355
     2007.08009       -10.69159         6.34417
     2007.08282        -3.26721         6.32587
     2007.08444        15.24443        17.03673
     2007.08830        -2.61043         6.32930
     2007.09104         1.61596         6.33731
     2007.09378       -11.32166         6.37047
     2007.09651       -13.08627         6.63238
     2007.09925       -13.02888         6.40593
     2007.10199        -7.25550         6.29613
     2007.10473       -19.17011         6.41165
     2007.10747       -16.09872         6.44939
     2007.11020        -6.61034         6.29270
     2007.11294         0.36105         6.35560
     2007.11569        -7.44756         6.34302
     2007.11842       -10.60118         6.36132
     2007.12115       -11.83279         6.40936
     2007.12389        -7.74240         6.33502
     2007.12545        -2.36875        17.12365
     2007.12937        -4.03763         6.61751
     2007.13211        -1.50724         6.44253
     2007.13484        -3.31885         6.32244
     2007.13758        -1.47347         6.44138
     2007.14020        -2.65305         6.69986
     2007.14306         2.05231         7.65143
     2007.14580        -9.05731         6.41165
     2007.14853        -5.45692         6.34760
     2007.15099        -4.92247         7.21453
     2007.15401        -2.04015         6.33273
     2007.15948        -3.73137         6.34531
     2007.16222        -0.97599         6.51916
     2007.16496         1.30140         6.46998
     2007.16770       -16.52021         6.53974
     2007.16999        -7.96772         8.17068
     2007.17317       -11.62444         6.67013
     2007.17591       -10.91105         6.51801
     2007.17865        -6.16466         6.77992
     2007.18135        -3.49627         6.68957
     2007.18413        -3.30289         6.71016
     2007.19062         1.69566        12.13364
     2007.19234        -5.85273         6.58092
     2007.19508        -2.44134         6.28927
     2007.19781       -11.60096         6.33959
     2007.20044        -7.84554         6.75934
     2007.23136         1.15353        17.81674
     2007.23316        -4.01487         7.22597
     2007.23614        -7.15454         6.53402
     2007.23847       -15.97706         7.89847
     2007.24162        -4.41177         6.74447
     2007.24387        -8.63427         8.18211
     2007.24710        -1.85499         6.38191
     2007.24983        -8.08560         6.39106
     2007.25257       -18.14222         6.35217
     2007.25531        -9.38183         7.01438
     2007.25806        -4.49145         6.43109
     2007.26079        -3.82806         6.40936
     2007.26352         2.34833         6.36247
     2007.26626         0.49572         6.35217
     2007.26900         3.71710         6.32587
     2007.27174        -3.36551         6.54432
     2007.27447         6.50788         6.28012
     2007.27721         7.26126         6.34417
     2007.27995        -1.36535         8.73338
     2007.28271        -0.63797        12.51335
     2007.28543        -1.72157         6.35904
     2007.28816        -0.59519         8.49663
     2007.29090        -1.37080         6.39563
     2007.29364        -3.87841         6.33616
     2007.29653        -1.07106         7.08758
     2007.29911         3.10636         9.34870
     2007.30185         1.93375         6.53631
     2007.30400         5.91527         8.58355
     2007.30733         0.70852         6.49399
     2007.30971         2.11199         7.61597
     2007.31280        -9.18471         6.55804
     2007.31554        -7.35032         6.38420
     2007.31761        -2.45778         9.10852
     2007.32101       -12.82254         6.60379
     2007.32375         0.32684         6.44481
     2007.32648        -2.16577         6.48484
     2007.32922        -6.78238         6.40707
     2007.33196        -4.92600         6.56948
     2007.33470        -1.19261         6.49628
     2007.33744         0.05078         6.45282
     2007.33957        -7.36970         8.90837
     2007.34291        -7.54845         6.56834
     2007.34565       -14.99506         6.37047
     2007.34725        -6.26742        15.66770
     2007.35112         1.33671         6.46083
     2007.35386        -8.92690         6.85655
     2007.35660        -4.87851         6.88514
     2007.35934        -6.94613         6.56834
     2007.36208        -0.00374         6.48256
     2007.36481        -4.58135         6.50657
     2007.36755        -4.29397         6.45625
     2007.37029        -5.19258         6.49285
     2007.37303        -0.91419         6.67241
     2007.37577        -4.85281         6.65640
     2007.37850        -2.51042         6.51916
     2007.38124        -4.54503         6.36475
     2007.38398        -4.09664         6.55575
     2007.38672        -5.96526         6.40021
     2007.38945       -11.26187         6.48599
     2007.39219       -16.20048         6.59578
     2007.39493        -0.16610         6.59922
     2007.39767         3.04929         6.49857
     2007.40041        -7.02132         6.38763
     2007.40314        -3.38094         6.39563
     2007.40588        -8.50955         6.50200
     2007.40742        -8.66089        19.40993
     2007.41410        -6.83039         6.58663
     2007.41683        -5.90900         6.42537
     2007.41957         4.75739         6.39335
     2007.42231         2.12077         6.57863
     2007.42505         4.16216         6.81080
     2007.42778         0.03555         6.63353
     2007.43326         1.18832         6.30299
     2007.43490         4.63895        13.93155
     2007.47433        -3.38688         6.35217
     2007.47707       -18.04449         6.58549
     2007.47980        -7.10410         6.33502
     2007.48254        -8.84672         6.33845
     2007.48528        -5.89033         6.55232
     2007.48802        -4.30794         6.40822
     2007.49076        -6.20856         6.67241
     2007.49453         7.08960        13.40659
     2007.49623        -0.92478        17.03215
     2007.49926         9.07554         9.74671
     2007.50172         4.79299         7.99797
     2007.50456        -7.81065        10.72458
     2007.50718        -7.41223         6.53288
     2007.50992        -1.20185         6.44024
     2007.51266        -9.58746         6.57748
     2007.51540        -3.78407         6.39563
     2007.51813        -7.45669         6.46998
     2007.52087        -2.63330         6.35446
     2007.52361        -0.71991         6.39907
     2007.52635         4.61347         6.39563
     2007.52908         3.00686         7.31861
     2007.53188        -3.62077         6.77192
     2007.53456        -5.22737         6.58092
     2007.53730         6.59802         6.43223
     2007.54004        -4.39959         6.53517
     2007.54277         1.16280         6.41165
     2007.54551        -2.37482         6.47569
     2007.54825        -3.30043         6.55232
     2007.55099        -7.68704         6.53746
     2007.55373        -2.55166         6.49285
     2007.55646        -4.40127         6.36132
     2007.55920        -0.38488         6.40135
     2007.56194        -1.41850         7.28315
     2007.56468         3.04389         6.41622
     2007.56695         5.34138         8.63502
     2007.57015         3.59466         6.33845
     2007.57289         2.54005         6.35789
     2007.57501         3.26358         8.81687
     2007.57837         3.16783         6.45740
     2007.58110         6.23621         6.41279
     2007.58384         2.12460         6.41737
     2007.58658         6.57999         6.39220
     2007.58932         7.99037         6.30986
     2007.59206         7.14376         6.42308
     2007.59479         9.49815         6.48713
     2007.59753        11.81653         6.57863
     2007.60027         5.94492         6.36475
     2007.60301         4.68331         6.36247
     2007.60574        10.90769         6.27211
     2007.60848         4.17708         6.43566
     2007.61122        13.27047         6.36819
     2007.61396        -3.29815         6.38649
     2007.61670        -1.70876         6.88743
     2007.61943         9.49463         6.86913
     2007.62303         4.73982        11.05054
     2007.62491        10.50340         6.65869
     2007.62769        11.00878         6.88514
     2007.63039        10.52318         6.75019
     2007.63312         6.55756         6.48828
     2007.63586         8.46195         6.46197
     2007.63860         2.82334         6.60150
     2007.64134        11.25772         6.43681
     2007.64407         3.11911         6.71359
     2007.64681         0.52250         6.74790
     2007.64955        11.82688         6.89086
     2007.65229        -1.04473         6.74447
     2007.65447         2.37678         9.47336
     2007.65776         9.45905         6.54889
     2007.66050         5.29043         6.69414
     2007.66324        11.42582         6.84740
     2007.66598         7.58921         6.69872
     2007.66872         7.42759         6.61866
     2007.67145         6.91998         6.63124
     2007.67419         7.96337         6.66326
     2007.67690        16.99976         6.70558
     2007.68035         2.36199         9.30638
     2007.68355        17.18027        15.32573
     2007.68526         4.08189         6.89086
     2007.68750         5.73039         8.02199
     2007.69142        11.37651         9.87252
     2007.69336        11.77007         6.60150
     2007.69609         9.57646         6.74218
     2007.69883         7.43185         6.63238
     2007.70157         4.52124         6.60722
     2007.70431        16.09862         6.77535
     2007.70705         9.76301         6.78221
     2007.70978        16.06940         6.71016
     2007.71252         7.77878         6.62095
     2007.71526         7.38417         6.44367
     2007.71800        15.12756         6.54317
     2007.72073        11.43294         6.51001
     2007.72347        13.91033         6.52259
     2007.72621         9.54972         6.33731
     2007.72895         3.15410         6.48828
     2007.73169        10.99749         6.82338
     2007.73442        10.70988         6.48828
     2007.73716         8.61827         6.63467
     2007.73990        13.59965         6.47569
     2007.74264        15.15304         6.39335
     2007.74538         9.84242         6.48599
     2007.74811         5.84681         6.60493
     2007.75085        11.83320         6.96635
     2007.75359        11.41359         6.62895
     2007.75633        12.45397         6.49628
     2007.75906         5.08336         6.39907
     2007.76180        13.51075         6.52487
     2007.76454         3.42913         6.44710
     2007.76728         7.79652         6.90116
     2007.77002        15.52691         6.92632
     2007.77275        10.51329         6.76963
     2007.77549        10.58168         6.39220
     2007.77823        12.95907         6.53402
     2007.78100         3.58545         6.43681
     2007.78371         5.75784         6.52030
     2007.78644         9.13723         6.59235
     2007.78918         6.90362         6.54317
     2007.79192        11.85700         6.61180
     2007.79466        13.83539         6.50543
     2007.79739         9.34378         6.57405
     2007.80013        14.20616         6.44138
     2007.80261         8.54461         7.00295
     2007.80561         3.01494         6.59121
     2007.80835         2.91932         6.66898
     2007.81108         9.20871         6.64611
     2007.81382         8.91210         6.59578
     2007.81656        -1.80851         6.81766
     2007.81930        -1.26513         6.52144
     2007.82203        13.11026         6.60036
     2007.82477        -0.54335         6.53059
     2007.82751        -0.22697         6.56376
     2007.83025        -3.86158         6.72045
     2007.83299         3.11281         6.69643
     2007.83572         2.30219         6.43566
     2007.83846         1.12658         6.44596
     2007.84120         4.83097         6.58320
     2007.84400         1.15134         6.59464
     2007.84674         3.28273         6.76620
     2007.84948        -0.90189         6.56490
     2007.85221         1.59550         6.71016
     2007.85495         1.13789         7.09673
     2007.85769         8.92727         6.61523
     2007.86043         3.41766         6.56605
     2007.86316         5.18505         6.65526
     2007.86659         6.59428         9.60718
     2007.86864         0.89482         6.59235
     2007.87138         4.97821         6.72960
     2007.87412         1.88560         6.55347
     2007.87685         1.48098         6.58549
     2007.87959         7.75737         6.60493
     2007.88233        -6.18024         6.53517
     2007.88507         5.23114         6.59121
     2007.88781         2.95153         6.58663
     2007.89054         8.23092         8.41200
     2007.89328         7.28830         6.80851
     2007.89642         4.06360         8.40514
     2007.89876         5.47308         6.73074
     2007.90149        -3.39653         6.57634
     2007.90423        -5.14915         6.60493
     2007.90697        -5.46276         6.57977
     2007.90971         0.98763         6.84854
     2007.91245         5.28901         6.64382
     2007.91518         7.98540         6.61980
     2007.91792         7.24379         6.59350
     2007.92066       -12.81183         6.83253
     2007.92340        -3.70044         6.79479
     2007.92614         2.44595         6.71587
     2007.92887        -9.44667         6.70672
     2007.93161         3.18772         6.60951
     2007.93435         3.02511         6.64153
     2007.93709         0.35449         6.62895
     2007.93982        -1.45812         6.63467
     2007.94256         1.91427         6.63010
     2007.94530        -7.61434         6.75934
     2007.94804        -7.40496         6.67813
     2007.95078        -9.09857         6.60837
     2007.95345        -0.84217         6.62323
     2007.95619        -0.30778         6.59464
     2007.95893        11.19260         6.65983
     2007.96167        11.42399         6.62438
     2007.96457         3.58834        11.92205
     2007.96714         4.77076         6.63467
     2007.96988        -2.88085         6.75247
     2007.97262       -14.76046         6.75476
     2007.97535        -5.35307         6.53631
     2007.97809         0.18331         6.64496
     2007.98083        -2.17430         6.48713
     2007.98357       -35.01391         6.49514
     2007.98631        -3.76053         6.69757
     2007.98904       -16.50714         6.74447
     2007.99178        -9.70375         6.67013
     2007.99452        -1.64937         6.71359
     2007.99726        -6.88398         6.47226
     2008.00045       -16.99169         8.12607
     2008.00273       -12.56621         6.52487
     2008.00547        -3.66582         6.40364
     2008.00821         2.62557         6.40478
     2008.01095        10.10695         6.42080
     2008.01368         5.05634         6.29842
     2008.01642        -3.55827         6.28584
     2008.01916         4.47012         6.38077
     2008.02190        -8.35550         6.41737
     2008.02464       -15.08011         6.35217
     2008.02736        -8.33972         6.46654
     2008.03013       -13.35834         6.87828
     2008.03285       -15.36395         6.35446
     2008.03559        -7.32256         6.45053
     2008.03907       -12.99434         9.67809
     2008.04183        -4.05996        10.37346
     2008.04380        -8.68840         6.46654
     2008.04654        -9.00302         6.53974
     2008.04928       -31.62663         6.48713
     2008.05201       -14.80624         6.38992
     2008.05475       -10.02685         6.47226
     2008.05749        -8.50747         6.42308
     2008.06023        -5.32408         6.35217
     2008.06297         2.25631         6.34760
     2008.08327         8.05576        14.23921
     2008.08487       -13.42660         6.41279
     2008.08761       -21.47321         6.41165
     2008.09034         1.38217         6.35904
     2008.09308        -1.36844         6.38534
     2008.09582        -5.15505         6.59922
     2008.09856        -1.97766         6.60837
     2008.10130        -1.33328         6.60951
     2008.10403        -2.87389         7.12418
     2008.10677        -1.20750         6.36590
     2008.10951       -16.73112         6.35904
     2008.11225        -5.55973         6.37505
     2008.11498       -14.03634         6.39563
     2008.11795        -0.58101         9.17828
     2008.12046        -8.63357         6.33502
     2008.12320        -9.72118         6.63925
     2008.12571       -12.12974         7.81612
     2008.12871        -5.31542         8.19812
     2008.13141        -1.14902         6.41965
     2008.13415        -2.28863         6.37276
     2008.13689         1.11275         6.37047
     2008.13963        -6.30286         6.38305
     2008.14236         3.59153         6.34417
     2008.14510        -2.93009         6.40364
     2008.14784         0.90230         6.36018
     2008.15058        -6.95931         6.34531
     2008.15331       -11.56593         6.38077
     2008.15697       -10.03174        10.28769
     2008.15828       -10.01504         8.67848
     2008.16153       -10.23277         6.42766
     2008.16427       -10.53938         6.39907
     2008.16700       -11.86599         6.36704
     2008.16974       -13.35461         6.30871
     2008.17248        -7.11422         6.29270
     2008.17522        -8.65383         6.60036
     2008.17796       -15.50344         6.28355
     2008.18069       -10.90306         6.36018
     2008.18342       -11.69467         8.12721
     2008.18612        -6.48527         6.52945
     2008.18891        -8.32590         6.33959
     2008.19164       -12.50251         6.51344
     2008.19438        -6.07512         6.33845
     2008.19712        -3.13274         7.59539
     2008.19986        -4.98835         6.37734
     2008.20260        -2.85796         6.33044
     2008.20533        -2.54758         6.36132
     2008.20807       -15.38519         6.53288
     2008.21081        -5.71580         6.62095
     2008.21355        -5.65741         6.67356
     2008.21629        -2.84003         6.38534
     2008.21902        -6.44264         6.46998
     2008.22176       -15.85925         6.39563
     2008.22450        -9.09187         6.49628
     2008.22724        -7.35348         6.48599
     2008.22997        -8.07409         6.50657
     2008.23271        -8.32071         6.51229
     2008.23544        -3.43432         8.92781
     2008.23819         1.53807         6.39220
     2008.24093        -8.79255         6.36704
     2008.24366       -10.51916         6.35560
     2008.24640       -18.69677         6.40250
     2008.24914       -11.60239         6.44710
     2008.25188        -4.05500         6.37390
     2008.25462        -2.66961         6.35560
     2008.25735        -6.77722         6.36590
     2008.26009         0.22916         6.26068
     2008.26283        -4.27745         6.31672
     2008.26557        -9.23706         6.37276
     2008.26830       -10.00068         6.33044
     2008.27104        -4.15529         6.45168
     2008.27378        -7.53790         6.28813
     2008.27652       -12.01352         6.54432
     2008.27926        -6.35813         6.46426
     2008.28199        -1.17374         6.47341
     2008.28473        -8.85336         6.37962
     2008.28747        -6.13997         6.44024
     2008.29021        -4.51358         6.49171
     2008.29295        -7.02419         6.52144
     2008.29568       -11.92681         6.40250
     2008.29842       -10.31642         6.32816
     2008.30116        -5.81003         6.32816
     2008.30390        -5.37765         6.27555
     2008.30663        -5.44826         6.61866
     2008.30937        -4.36187         6.46426
     2008.31211       -11.69849         6.71931
     2008.31485        -5.96210         6.27555
     2008.31759        -9.95171         6.28355
     2008.32032        -5.59233         6.45396
     2008.32306        -5.21294         6.40822
     2008.32580        -8.70555         6.51572
     2008.32854        -9.54717         6.32129
     2008.33128       -11.58078         6.30414
     2008.33401        -6.25839         6.24352
     2008.33675        -7.53800         6.27669
     2008.33949        -5.68262         6.55804
     2008.34223        -2.48123         6.26868
     2008.34389        -8.70560        12.90678
     2008.34770        -7.57546         6.27326
     2008.35044        -0.23107         6.25839
     2008.35318        -4.70468         6.25381
     2008.35592        -2.09130         6.19892
     2008.35865        -3.78991         6.25725
     2008.36139        -2.64452         6.76391
     2008.36413        -5.63014         6.32472
     2008.36687        -6.84475         6.31672
     2008.36961       -15.85236         6.22865
     2008.37234       -12.94197         6.19777
     2008.37508         2.61741         8.65675
     2008.37782        -9.07720         6.34074
     2008.38056        -6.84781         6.31786
     2008.38329       -12.37643         6.33845
     2008.38603        -3.43304         6.21150
     2008.38877        -6.04165         6.34302
     2008.39151        -9.92727         6.48484
     2008.39425        -4.52288         6.28241
     2008.39698        -1.32849         6.26525
     2008.39972         0.49689         6.23323
     2008.40246        -0.95672         7.06127
     2008.40520        -5.35533         6.39792
     2008.40794         4.60305         6.25725
     2008.41005        -5.14742         8.59957
     2008.41341        -3.78817         6.29041
     2008.41615        -6.43678         6.28927
     2008.41889        -5.45540         6.29499
     2008.42162        -9.79501         6.35675
     2008.42431        -8.33761         7.63199
     2008.42710        -3.66724         6.18062
     2008.42984        -7.37385         6.38877
     2008.43258        -4.02346         6.45511
     2008.43531        -3.35108         6.36132
     2008.43805        -6.61469         6.37390
     2008.44079       -13.87930         6.31786
     2008.44353       -15.94592         6.20120
     2008.44626        -7.99253         6.31214
     2008.44900       -22.86014         6.35904
     2008.45174        -5.43375         6.46197
     2008.45448        -1.82837         6.41165
     2008.45722        -7.21898         6.24581
     2008.45995        -5.25459         6.20120
     2008.46269       -16.94821         6.28584
     2008.46543        -6.49082         6.32587
     2008.46817        -6.07543         6.29156
     2008.47091        -6.77005         6.38420
     2008.47364         0.03934         6.33731
     2008.47638         2.11073         6.23552
     2008.47912        -0.54989         6.25038
     2008.48186        -5.24350         6.34074
     2008.48459        -1.73311         6.51344
     2008.48733        -3.14073         6.60150
     2008.49007        -5.23034         6.33159
     2008.49281        -0.50795         6.22179
     2008.49555        -9.21856         6.47226
     2008.49828        -6.52118         6.59235
     2008.50102        -6.01479         6.51801
     2008.50376         3.44960         6.41393
     2008.50650        -0.09702         6.27326
     2008.50924        -1.19263         6.32701
     2008.51197        -1.68824         6.39563
     2008.51471        -8.62686         6.33959
     2008.51745         1.83153         6.28012
     2008.52019         2.01592         6.43566
     2008.52292       -10.82670         6.52716
     2008.52566        -3.97631         6.58778
     2008.52840         4.33108         6.36933
     2008.53114        -2.78353         6.30986
     2008.53388        -1.87215         6.40135
     2008.53661        -0.23876         6.42652
     2008.53935         5.63163         6.43566
     2008.54209        -1.36699         6.33616
     2008.54483         2.75940         6.42537
     2008.54757         5.43279         6.33502
     2008.55030         1.71617         6.33159
     2008.55304         9.66856         6.38191
     2008.55578         9.18095         6.30185
     2008.55852         2.16033         6.27440
     2008.56125         0.60272         6.27326
     2008.56399         3.60011         6.33845
     2008.56673         5.14449         6.28012
     2008.56947         6.35388         6.26754
     2008.57221        10.04527         6.46311
     2008.57494         8.37066         6.49628
     2008.57768         9.68604         6.47455
     2008.58042         8.15643         6.46769
     2008.58316        10.08482         6.31786
     2008.58590         5.99820         6.23895
     2008.58863         8.95359         6.42995
     2008.59137         2.60598         7.93507
     2008.59411         3.75336         6.19777
     2008.59685         4.27775         6.34302
     2008.59958        11.14514         6.50200
     2008.60232         8.00952         6.84740
     2008.60506        10.51391         6.60265
     2008.60780         7.52630         6.42080
     2008.61054         2.81769         6.32244
     2008.61327         5.11507         6.40478
     2008.61601        11.06746         6.29613
     2008.61875         3.95385         6.32358
     2008.62149         7.79923         6.50543
     2008.62423         0.22562         6.36475
     2008.62696        16.24101         6.52373
     2008.62970        14.98539         6.53860
     2008.63244         8.04378         6.41050
     2008.63518        16.28917         6.50772
     2008.63791        10.32855         6.37162
     2008.64065         5.43894         6.35332
     2008.64339         7.38433         6.39792
     2008.64613        11.60771         6.57748
     2008.64887         8.32810         6.39792
     2008.65160        10.61649         6.25153
     2008.65434        10.45588         6.46998
     2008.65708         3.68526         6.55461
     2008.65982         8.65865         6.82567
     2008.66256        13.62904         6.43910
     2008.66529         6.33842         6.32930
     2008.66803        -0.70719         6.33616
     2008.67077        -2.19680         6.34989
     2008.67351        -1.62142         6.42194
     2008.67624         6.62797         6.97092
     2008.67898        11.77236         6.74218
     2008.68172         5.91474         9.63234
     2008.68446         0.15513         6.32587
     2008.68720         8.84352         6.38534
     2008.68993         7.51791         6.61180
     2008.69267         6.24829         6.46883
     2008.69541         4.10168         6.32015
     2008.69815        11.59807         6.41737
     2008.70089         4.36645         6.49971
     2008.70362         8.17584         6.35560
     2008.70636         9.86823         6.38534
     2008.70910         3.90861         6.50772
     2008.71184         7.87500         6.56834
     2008.71457         0.03739         6.29613
     2008.71731         1.44077         7.93507
     2008.72005         9.65316         6.32701
     2008.72279         0.30555         6.34646
     2008.72553        -3.63907         6.47913
     2008.72826         1.97232         6.24123
     2008.73100         1.97771         6.38077
     2008.73374        -2.73490         6.36933
     2008.73648         2.83648         6.30414
     2008.73921         3.37587         6.35789
     2008.74469         7.62064         6.49171
     2008.74743         7.68403         6.29156
     2008.75017         0.48442         6.38077
     2008.75290         6.42980         6.38649
     2008.75564         9.76819         6.34302
     2008.75838        11.35758         6.29499
     2008.76112        12.45596         6.34989
     2008.76386         6.87535         6.32930
     2008.76659         2.82574         6.40250
     2008.76933         7.58613         6.47112
     2008.77207        -0.12249         6.17719
     2008.77481        -6.75510         6.18519
     2008.77754         3.58029         6.19892
     2008.78028         2.32267         6.25725
     2008.78302        -3.21594         6.33159
     2008.78576        -0.08355         6.32015
     2008.78850        -0.92217         6.32129
     2008.79123         8.21922         6.36475
     2008.79397        -4.04439         6.62095
     2008.79671        -3.64101         6.47684
     2008.79945        -4.74562         6.41279
     2008.80219         6.54477         6.25496
     2008.80492         7.15315         6.24695
     2008.80766         1.91254         6.26525
     2008.81040         3.78093         6.28584
     2008.81314         0.97232         6.56719
     2008.81587         3.01170         6.26068
     2008.81861        -0.94191         6.28584
     2008.82135         1.75848         6.26182
     2008.82409         4.09786         6.34417
     2008.82683        -3.91575         6.40250
     2008.82956        -4.27036         6.31214
     2008.83169         1.17416         8.18211
     2008.84325        10.30857         6.22179
     2008.84599         5.33596         6.24123
     2008.84879         0.57733         6.48370
     2008.85147         0.73573         6.32015
     2008.85420        -9.92888         6.41737
     2008.85694        12.85151         6.31557
     2008.85968         7.47589         6.32587
     2008.86242         7.46328         6.28813
     2008.86516         0.60267         6.49971
     2008.86789        10.70105         6.36132
     2008.87063         6.61744         6.48027
     2008.87337        -1.06817         6.36247
     2008.87606        -2.85478         6.40822
     2008.87914        -6.97947         7.25113
     2008.88158        -6.30501         6.40707
     2008.88432         2.59837         6.29613
     2008.88706         5.68276         6.39449
     2008.88980        -3.50685         6.72045
     2008.89253         5.45954         6.31901
     2008.89527        -8.36708         6.44253
     2008.89801        -4.55569         6.43910
     2008.90075        -2.20530         6.41165
     2008.90326       -10.60687         6.93890
     2008.90724         8.81524        14.17745
     2008.90896         3.01986         6.35217
     2008.91170        -1.77876         6.39335
     2008.91444        -0.99337         6.33845
     2008.91718        -2.45498         6.34188
     2008.91991         7.06640         6.41508
     2008.92265         5.26579         6.30986
     2008.92539         1.49318         6.37276
     2008.92813         7.45857         6.36361
     2008.93086        -5.92205         6.49857
     2008.93360        -2.90966         6.49285
     2008.93634         1.16073         6.32129
     2008.93908        -6.55789         6.36819
     2008.94182        -6.68850         6.38649
     2008.94455        -9.81411         6.45625
     2008.94729        -4.74873         6.98693
     2008.95003         2.88466         6.25610
     2008.95242         2.69013         7.20653
     2008.95659        -3.22681        14.16029
     2008.95824        -4.89218         6.37047
     2008.96098         0.39021         6.34417
     2008.96372         7.04160         6.29613
     2008.96646        -3.15902         6.38534
     2008.96919        -8.52163         6.26182
     2008.97193         0.37276         6.33502
     2008.97467         4.38114         6.41737
     2008.97741         5.44053         6.25496
     2008.98015         4.83392         6.25038
     2008.98288         5.52430         6.18405
     2008.98538        -4.23526         7.13447
     2008.98931        -9.95714        11.60867
     2008.99110        -8.79054         6.27440
     2008.99384        -9.92815         6.21836
     2008.99657       -14.01376         6.16918
     2008.99931       -17.32238         6.26640
     2009.00479        -6.93760         6.18977
     2009.00752        -0.74321         6.59464
     2009.01026        -3.56483         6.20006
     2009.01300         0.43156         6.29384
     2009.01574       -10.98105         6.83939
     2009.01848        -5.13967         6.37162
     2009.02121        -6.99828         6.54089
     2009.02395       -15.15289         6.64611
     2009.02669       -23.15451         6.35446
     2009.02943       -24.73512         6.36475
     2009.03216       -22.13073         6.46311
     2009.03490       -29.71735         6.39449
     2009.03764       -23.61496         6.36361
     2009.04038       -30.23457         6.34074
     2009.04312       -17.20218         6.33845
     2009.04585       -15.05780         6.32930
     2009.04859       -13.14841         6.32816
     2009.05133       -12.80102         6.34989
     2009.05407       -10.98764         6.39449
     2009.05681        -9.85825         6.28813
     2009.05960        -9.82388         6.52716
     2009.06228        -9.79448         6.28241
     2009.06502       -10.30109         6.36247
     2009.06776       -10.74870         6.34989
     2009.07049       -11.45132         6.33387
     2009.07323       -18.97693         6.36933
     2009.07597        -6.37654         6.26068
     2009.07871        -7.42816         6.49628
     2009.08145       -13.11677         6.34531
     2009.08418        -7.97338         6.67813
     2009.08692        -9.61699         6.45625
     2009.09240       -17.29322         6.25610
     2009.09514       -14.20183         6.24466
     2009.09787        -4.77245         6.28698
     2009.10061        -2.13706         6.37848
     2009.10335        -6.05167         6.30757
     2009.10609        -1.87529         6.25953
     2009.10882        -5.78690         6.25839
     2009.11139        -5.82547         6.73875
     2009.11704        -3.38974         6.36590
     2009.11978        -6.24335         6.32472
     2009.12251        -1.14696         6.45625
     2009.12525        -1.29658         6.26640
     2009.12799        -4.83619         6.31443
     2009.13073         0.91920         6.68385
     2009.13347        -7.25442         6.26182
     2009.13620       -10.65703         6.24581
     2009.13894        -7.17564         6.23780
     2009.14168        -6.34826         6.41393
     2009.14442        -8.46887         6.36018
     2009.14715       -10.75648         6.41737
     2009.14989        -6.94210         6.39106
     2009.15263        -2.65271         6.28584
     2009.15537        -4.85932         6.34188
     2009.15811        -6.84294         6.47798
     2009.16084        -7.40055         6.55690
     2009.16358        -7.01716         7.71090
     2009.16632        -5.65377         6.50200
     2009.16906       -10.67739         6.39335
     2009.17180        -9.00600         6.30071
     2009.17453        -7.36861         6.33959
     2009.17727         0.73577         6.56719
     2009.18001        -6.90384         6.28126
     2009.18280        -1.49447         6.43910
     2009.18548        -5.61407         6.32129
     2009.18822       -10.17768         6.34417
     2009.19096        -9.19129         6.38877
     2009.19370        -5.28891         6.35217
     2009.19644        -3.64752         6.30071
     2009.19915        -5.82813         6.36590
     2009.20201        -0.41577         6.97893
     2009.20465       -10.70536         6.33044
     2009.20739        -8.76497         6.42766
     2009.21013       -18.22358         6.30986
     2009.21286        -7.67520         6.34074
     2009.21560        -8.88681         6.37962
     2009.21834        -5.79342         6.32244
     2009.22108        -2.03104         6.40135
     2009.22381        -7.89465         6.30643
     2009.22655        -9.29026         6.40364
     2009.22929        -8.56688         6.28698
     2009.23203       -11.13249         6.24924
     2009.23477        -1.57910         6.50886
     2009.23750        -5.21972         6.35675
     2009.24024        -5.63933         6.40593
     2009.24298        -3.20394         6.35103
     2009.24572        -1.64555         6.34874
     2009.24846        -3.03317         6.35560
     2009.25119       -21.90478         6.54775
     2009.25393        -3.64339         6.65068
     2009.25667       -10.61901         6.39563
     2009.25941        -5.01962         6.36819
     2009.26214        -6.91123         6.34302
     2009.26488        -2.53485         6.33159
     2009.26762         1.99554         6.40822
     2009.27036        -0.84607         6.40478
     2009.27310        -8.05669         6.39792
     2009.27583        -5.92330         6.33502
     2009.27857       -10.14991         6.42308
     2009.28131        -8.67652         6.47684
     2009.28405       -13.34014         6.40822
     2009.28679        -6.22775         6.42995
     2009.28952        -7.15436         6.48942
     2009.29226       -11.61998         6.53174
     2009.29500       -15.88459         6.41737
     2009.29774       -10.56420         6.49743
     2009.30047        -9.36282         6.42080
     2009.30321       -13.41343         6.50429
     2009.30595       -11.78404         6.70329
     2009.30869        -0.55366         6.41965
     2009.31143        -1.94627         6.41737
     2009.31416        -0.48888         6.35217
     2009.31690        -7.46050         6.33731
     2009.31964        -8.03511         6.34760
     2009.32238        -7.99772         6.38077
     2009.32512        -2.98833         6.47341
     2009.32785       -10.83995         6.46426
     2009.33059        -5.98356         6.38649
     2009.33333        -3.93317         6.28355
     2009.33607        -3.48479         6.38649
     2009.33880        -3.08540         6.30986
     2009.34154         2.07999         6.40822
     2009.34428        -6.24463         6.37390
     2009.34702        -7.30524         6.32472
     2009.34976        -7.76785         6.28355
     2009.35249        -8.10347         6.27669
     2009.35523        -7.42708         6.42652
     2009.35797        -4.03869         6.38763
     2009.36070        -4.78630         6.65869
     2009.36344        -1.94792         6.42537
     2009.36618        -1.04553         6.32930
     2009.36892        -7.60714         6.36590
     2009.37166        -6.73776         6.40478
     2009.37440        -6.60137         6.41393
     2009.37713        -8.32298         6.46540
     2009.37987        -7.80960         6.51916
     2009.38261        -6.61621         6.31557
     2009.38535        -7.72882         6.35675
     2009.38809       -11.62144         6.38077
     2009.39082        -6.91005         6.37505
     2009.39356       -10.64866         6.40478
     2009.39630       -10.25528         6.40936
     2009.39904        -4.49889         6.42652
     2009.40177        -1.56950         6.42308
     2009.40451         1.34689         6.36819
     2009.40725         5.99027         6.39678
     2009.40999        -2.78834         6.40364
     2009.41273        -9.94995         6.49743
     2009.41546         7.26243         6.53746
     2009.41820        -5.95518         6.34074
     2009.42094       -13.33679         6.33044
     2009.42368        -2.37741         6.37390
     2009.42642        -7.51802         6.43910
     2009.42915        -4.15863         6.55232
     2009.43189        -2.53125         6.35560
     2009.43463        -0.58086         6.35332
     2009.43737        -3.07447         6.40364
     2009.44010        -1.75608         6.41737
     2009.44284        -4.73170         6.42652
     2009.44558        -2.10831         6.39563
     2009.44832        -5.21892         6.42766
     2009.45106        -8.61254         6.47112
     2009.45379        -0.97315         6.41622
     2009.45653        -6.79576         6.44481
     2009.45927        -8.49538         6.45511
     2009.46201         4.05501         6.43223
     2009.46475         3.35440         6.65297
     2009.46748        -4.49622         6.52030
     2009.47022        -3.03183         6.37505
     2009.47296        -3.44444         6.41050
     2009.47570        -6.26906         6.41737
     2009.47843        -4.07267         6.53288
     2009.48117         0.63772         6.48141
     2009.48391        -0.26589         6.44939
     2009.48665        -7.69451         6.45053
     2009.48939        -9.23112         6.59693
     2009.49212        -1.15573         6.54546
     2009.49486        -5.41935         6.60150
     2009.49760        -0.05296         6.45511
     2009.50034         3.52643         6.38649
     2009.50308        -5.40419         6.44367
     2009.50581        -1.15680         6.44253
     2009.50855        -1.59441         6.41851
     2009.51129        -0.99403         6.41393
     2009.51403         6.40536         6.38077
     2009.51676         0.74875         6.34531
     2009.51950        -1.01886         6.36018
     2009.52224        -9.65048         6.51115
     2009.52498        -1.62909         6.46311
     2009.52772         5.05830         6.61980
     2009.53045         1.57568         6.39449
     2009.53319         4.30607         6.38420
     2009.53593        -0.34354         6.41622
     2009.53867        -6.87216         6.46654
     2009.54141         7.14923         6.44367
     2009.54414         9.34162         6.62209
     2009.54688         2.09600         6.41393
     2009.54962         1.97939         6.49514
     2009.55236         2.94878         6.37848
     2009.55509         7.29616         6.38305
     2009.55783         9.74955         6.40707
     2009.56057         3.14994         6.80623
     2009.56331         9.47033         6.85541
     2009.56605         3.99571         6.89658
     2009.56878         0.34510         6.44596
     2009.57152         8.46449         6.51458
     2009.57426         7.70887         6.46426
     2009.57700         1.11826         6.72960
     2009.57974        -0.25235         6.48713
     2009.58247         4.09103         6.49285
     2009.58521        10.25242         6.52144
     2009.58795         4.32581         6.52602
     2009.59069         5.15219         6.52831
     2009.59342        13.69858         6.76505
     2009.59616        11.61297         6.46540
     2009.59890         5.64936         6.40707
     2009.60164        10.12574         6.42080
     2009.60438         3.53813         6.45396
     2009.60711         3.87152         6.39563
     2009.60985         0.38290         6.41851
     2009.61259         4.62229         6.39220
     2009.61533         3.55168         6.49857
     2009.61807         8.63906         6.41050
     2009.62080        11.76545         6.42995
     2009.62354         3.79984         6.43566
     2009.62628         4.28822         6.45168
     2009.62902         3.61961         6.52602
     2009.63175         7.69300         6.54660
     2009.63449         6.70638         6.65526
     2009.63723         3.70677         6.58549
     2009.63997         6.55516         6.57520
     2009.64271         1.35255         6.56033
     2009.64544         5.84993         6.55232
     2009.64818        14.69532         6.88629
     2009.65092         1.86071         6.46654
     2009.65366         2.90909         6.49857
     2009.65639         3.26948         6.41165
     2009.65913         1.23387         6.42652
     2009.66187        12.35725         6.28126
     2009.66461         4.56064         6.32244
     2009.66735         4.17703         6.54775
     2009.67008        11.31541         6.44596
     2009.67282        -3.04620         6.85769
     2009.67556         9.29319         6.40364
     2009.67830        19.10658         6.59464
     2009.68104         6.07096         6.54660
     2009.68369        -2.48163         6.57863
     2009.68657        12.15272         6.48713
     2009.68925        17.69212         6.54889
     2009.69199         3.19651         6.37734
     2009.69472         4.84090         6.51458
     2009.69746         9.51728         6.36475
     2009.70020        12.50367         6.56490
     2009.70294        14.72506         6.40593
     2009.70568         8.95144         6.36933
     2009.70841         6.49283         6.38420
     2009.71115         0.42822         6.74447
     2009.71389        11.08260         6.68728
     2009.71663         2.80899         6.69071
     2009.71937         3.73438         6.43910
     2009.72210        -2.86023         6.39335
     2009.72484         2.04815         6.50314
     2009.72758         1.24354         6.47226
     2009.73032        12.69393         6.68385
     2009.73305         1.09231         6.47569
     2009.73579         4.53770         6.60150
     2009.73853        15.12009         6.45854
     2009.74127        13.15247         6.62781
     2009.74401        10.51886         6.64268
     2009.74674         2.88425         6.51344
     2009.74948         7.38863         6.43452
     2009.75222         8.33202         6.53860
     2009.75496         2.02041         6.38763
     2009.75770        11.67280         6.45625
     2009.76043         5.62818         6.39449
     2009.76317        -1.61343         6.48599
     2009.76591         6.02896         6.44138
     2009.76865         3.62634         6.55004
     2009.77138        11.77173         6.43109
     2009.77412        10.45912         6.38877
     2009.77686        10.48850         6.42308
     2009.77960         8.57589         6.43795
     2009.78234        19.32228         6.39335
     2009.78507        14.81366         6.43910
     2009.78781        10.49305         6.69300
     2009.79055         0.93444         6.75019
     2009.79329         2.85782         6.84969
     2009.79603        -2.91179         6.62552
     2009.79876         3.76760         6.62895
     2009.80150         3.35899         6.52373
     2009.80424        10.26837         6.71931
     2009.80698         1.10576         8.10434
     2009.80971         7.49315         6.73532
     2009.81245        24.21953         6.90001
     2009.81519        -0.32308         6.64725
     2009.81793         5.14431         6.65754
     2009.82067         7.86669         6.53631
     2009.82340         3.00208         6.48599
     2009.82614         8.26147         6.54089
     2009.82888         4.07685         6.67241
     2009.83162         6.98524         6.95720
     2009.83436        -1.76037         6.56490
     2009.83709        -3.42198         6.75705
     2009.83983         4.97740         6.57405
     2009.84257        10.64879         6.54660
     2009.84531         6.06518         6.78678
     2009.84804        11.14956         6.75590
     2009.85078        10.63595         6.64153
     2009.85352         6.00634         6.64268
     2009.85626         1.63772         6.62895
     2009.85900         2.31511         6.73417
     2009.86173        -5.80850         6.49971
     2009.86447         8.22888         6.99608
     2009.86721         6.29127         6.80851
     2009.86995         2.83266         6.64611
     2009.87269         3.67604         6.55690
     2009.87542        11.96943         6.63467
     2009.87816         5.50482         6.87371
     2009.88090        -1.81779         6.71244
     2009.88364         5.90559         6.52487
     2009.88637         2.63898         6.68042
     2009.88911         7.26937         6.49971
     2009.89185         0.09475         6.42423
     2009.89459         3.20114         6.54317
     2009.89733        -1.51047         6.50200
     2009.90006        -6.91009         6.54775
     2009.90280        -3.76070         6.56605
     2009.90554        -8.95631         6.40936
     2009.90828        -4.47993         6.41965
     2009.91102        -7.04454         6.46883
     2009.91375        -0.43015         6.46769
     2009.91649        -5.05476         6.51572
     2009.91923        -2.31938         6.38191
     2009.92197        -5.35499         6.39449
     2009.92470        -7.51660         6.48256
     2009.92744        -1.87122         6.52259
     2009.93018        -4.67483         6.46654
     2009.93292        -1.01444         6.44024
     2009.93566        -1.33306         6.32244
     2009.93839        -3.48467         6.57634
     2009.94113        -0.36628         6.46083
     2009.94387         3.20210         7.12304
     2009.94661         3.56449         6.69757
     2009.94935         1.92688         6.34874
     2009.95208        -2.95674         6.35904
     2009.95482        -5.43235         6.44825
     2009.95756       -12.47096         6.43910
     2009.96030       -14.20557         6.48828
     2009.96303        -9.85619         6.49056
     2009.96577       -12.37280         6.59235
     2009.96851       -12.90841         6.49285
     2009.97125        -7.87103         6.55347
     2009.97399        -5.82564         6.50543
     2009.97672        -6.26425         6.33959
     2009.97946        -8.86887         6.44710
     2009.98220        -9.00448         6.34760
     2009.98494        -5.41109         6.39678
     2009.98773        -4.99072         6.59235
     2009.99041        -5.13132         6.38534
     2009.99315        -2.03293         6.33731
     2009.99589        -4.78054         6.35789
     2009.99863       -10.33816         6.33959
     2010.00410       -13.32638         6.44939
     2010.00684       -13.70800         6.41393
     2010.00958       -10.11961         6.40936
     2010.01232       -12.91922         6.45396
     2010.01505        -7.75284         6.31786
     2010.01779        -7.89145         6.42194
     2010.02053        -9.97806         6.39220
     2010.02327       -11.57968         6.41737
     2010.02600       -11.68429         6.37962
     2010.02874        -9.96190         6.35904
     2010.03148        -7.48152         6.37047
     2010.03422       -11.01613         6.46311
     2010.03696       -10.14274         6.77420
     2010.03969        -4.56335         6.62323
     2010.04243        -1.55397         6.56490
     2010.04517         3.07942         6.42537
     2010.04791         3.84681         6.42194
     2010.05065         4.57319         6.57291
     2010.05338         7.36858         6.59693
     2010.05612         5.71097         6.43795
     2010.05886         7.45035         7.10474
     2010.06160        -0.97926         6.31100
     2010.06433        -6.94387         6.35904
     2010.06707        -7.85249         6.36361
     2010.06981       -15.09710         6.53288
     2010.07255        -6.30671         6.54546
     2010.07529        -1.25032         6.49285
     2010.07802        -1.77394         6.45740
     2010.08076        -6.49155         6.32129
     2010.08361        -8.56919        10.48555
     2010.08624        -0.22178         6.39220
     2010.08898         2.12261         6.58092
     2010.09171         0.08700         6.33731
     2010.09445        -1.87362         6.46654
     2010.09719         0.61177         6.50429
     2010.09993       -10.11384         6.39907
     2010.10266         0.42054         6.35789
     2010.10540        -1.04007         6.48713
     2010.10814        -6.33468         6.43566
     2010.11088        -0.78030         6.50429
     2010.11362        -3.45491         6.40135
     2010.11635         3.38448         6.45854
     2010.11909        -3.44613         6.40593
     2010.12183        -5.05875         6.41622
     2010.12457        -6.31836         6.37047
     2010.12731        -2.98197         6.48027
     2010.12999       -10.59757         6.54432
     2010.13278        -1.22420         6.47112
     2010.13552         2.92819         6.62552
     2010.13826        -0.55943         6.41622
     2010.14099        -2.73804         6.28813
     2010.14373        -1.30365         6.50543
     2010.14647        -5.91127         6.54203
     2010.14921        -0.00288         6.49743
     2010.15195        -3.32249         6.37619
     2010.15468        -2.10010         6.36247
     2010.15742        -1.25472         6.37848
     2010.16016         1.18467         6.35560
     2010.16290        -2.58394         6.40707
     2010.16564        -0.46656         6.33845
     2010.16837        -1.91517         6.37962
     2010.17111        -4.80778         6.30986
     2010.17385        -7.50440         6.33044
     2010.17659        -1.51501         6.36933
     2010.17932        -0.79762         6.35675
     2010.18206         1.07276         6.42537
     2010.18480         3.13915         6.46426
     2010.18754         2.47254         6.25267
     2010.19028        -1.08808         6.45854
     2010.19301        -2.32569         6.38877
     2010.19575        -0.98530         6.36819
     2010.19849        -4.33491         6.39220
     2010.20123       -11.58753         6.32358
     2010.20397        -3.02614         6.52487
     2010.20669       -10.03875         6.56490
     2010.20952        -6.89739         6.47112
     2010.21218        -3.87798         6.30986
     2010.21492        -2.41559         6.29613
     2010.21765        -2.40721         6.35789
     2010.22039        -9.88682         6.40021
     2010.22313        -6.32543         6.37848
     2010.22587        -2.91005         6.45511
     2010.22864        -0.56067         6.48713
     2010.23134        -1.32027         6.42308
     2010.23408        -9.40988         6.47226
     2010.23956         6.71889         6.51458
     2010.24230        -0.23672         6.54660
     2010.24503        -5.23034         6.54889
     2010.24777         1.15905         6.53631
     2010.25051        -3.86356         6.74104
     2010.25325         4.78582         6.61866
     2010.25598         4.05221         6.43910
     2010.25872         4.56260         6.49857
     2010.26146         2.39998         6.58663
     2010.26420         2.52337         6.66898
     2010.26694        -2.05224         6.52144
     2010.26967        -2.55286         6.56262
     2010.27241         0.98453         6.47226
     2010.27515         2.58192         6.47226
     2010.27789         2.98731         6.62323
     2010.28062         1.46169         6.37962
     2010.28336        -3.48992         6.48370
     2010.28610        -8.15453         6.47341
     2010.28884        -4.37715         6.36819
     2010.29158         3.29424         6.56719
     2010.29431         1.51963         6.55232
     2010.29705         0.36201         6.37390
     2010.29979         1.29240         6.51458
     2010.30253         4.38079         6.63238
     2010.30527         4.83817         6.59350
     2010.30800        10.12156         6.42423
     2010.31074         2.67695         6.40822
     2010.31348         1.86134         6.36819
     2010.31622         7.13172         6.36361
     2010.31895         6.16611         6.78450
     2010.32169         4.40650         6.46083
     2010.32443         1.95688         6.48828
     2010.32717         0.34227         6.42880
     2010.32991         8.89466         6.53288
     2010.33264         5.59504         6.43681
     2010.33538        -0.32957         6.70215
     2010.33812         0.43982         6.35560
     2010.34086        -6.81880         6.39106
     2010.34360        -3.32241         6.38191
     2010.34633        -5.42702         6.44367
     2010.34907        -5.14564         6.42080
     2010.35181        -2.65725         6.37848
     2010.35449         0.97615         6.47455
     2010.35728        -4.99747         6.41279
     2010.36002        -3.23609         6.52716
     2010.36276        -1.92370         6.34417
     2010.36550         2.17269         6.66098
     2010.36824         0.47007         6.62095
     2010.37097         7.75946         6.40478
     2010.37371         6.40685         6.41851
     2010.37645        12.90223         6.42194
     2010.37919        -0.16738         6.64268
     2010.38193         3.53601         6.60150
     2010.38466        -3.76061         6.51687
     2010.38740         3.46378         6.40593
     2010.39014         2.80217         6.49399
     2010.39288        -3.66644         6.42652
     2010.39561        -4.12906         6.35675
     2010.39835        -3.56367         6.34646
     2010.40109        -3.75028         6.38077
     2010.40383        -4.66890         6.42537
     2010.40657        -0.96251         6.30071
     2010.40930         0.56888         6.26525
     2010.41203        -6.87873         6.31100
     2010.41478        -0.91835         6.40250
     2010.41752         2.94704         6.38191
     2010.42026         1.30442         6.36819
     2010.42299         5.02281         6.30986
     2010.42573        -3.94480         6.24123
     2010.42847        -3.31842         6.29499
     2010.43121        -7.07403         6.33159
     2010.43394        -8.74664         6.25381
     2010.43668        -4.94125         6.22522
     2010.43942        -4.08187         6.27898
     2010.44216        -5.89848         6.27669
     2010.44490        -9.70809         6.26868
     2010.44763        -8.44471         6.53974
     2010.45037        -9.08832         6.35789
     2010.45311        -4.52393         6.28469
     2010.45585        -2.71255         6.32244
     2010.45859        -2.50216         6.50314
     2010.46132        -2.13577         6.38763
     2010.46406        -1.49239         6.31214
     2010.46680        -3.49700         6.17604
     2010.46954         0.79239         6.37162
     2010.47227        -3.49922         6.40250
     2010.47501        -0.10884         6.41050
     2010.47775        -1.43545         6.49285
     2010.48049         1.19994         6.43452
     2010.48323         0.49632         6.21493
     2010.48596         9.77671         6.33731
     2010.48870         0.02410         6.40707
     2010.49144        -2.01052         6.55004
     2010.49418        -0.84213         6.26754
     2010.49692         0.08526         6.20578
     2010.49965         0.16864         6.25267
     2010.50239         6.48903         6.24466
     2010.50513         3.01242         6.21264
     2010.50787         3.83780         6.30986
     2010.50960         4.77342        14.35358
     2010.51434        -8.81364        11.78252
     2010.51608        -0.79703         6.26525
     2010.51882        -2.71265         6.35103
     2010.52156         6.40074         6.44481
     2010.52429        12.35713         6.32015
     2010.52703         2.81651         6.65983
     2010.52977         3.28690         6.35675
     2010.53251        -2.05271         6.26182
     2010.53525         5.21267         6.43109
     2010.53798        -1.43594         6.32129
     2010.54072        -2.61555         6.34188
     2010.54346         2.27583         6.34302
     2010.54620        -0.73078         6.28355
     2010.54893        -4.24639         6.28355
     2010.55167         0.85600         6.39792
     2010.55441         7.85238         6.48256
     2010.55715         3.82477         6.31100
     2010.55989         3.55416         6.32701
     2010.56262        -6.75346         6.40250
     2010.56536         1.38093         6.36018
     2010.56810         7.16732         6.23895
     2010.57084         5.57970         6.30757
     2010.57357         1.75509         6.50657
     2010.57631         0.94748         6.65640
     2010.57905        -2.52414         6.48027
     2010.58179         1.52725         6.26640
     2010.58453         3.58964         6.39449
     2010.58726        -4.20398         6.52602
     2010.59000         1.46841         6.42194
     2010.59274         4.86780         6.46998
     2010.59548         2.73219         6.35217
     2010.59822         8.69257         6.28927
     2010.60095         7.49096         6.24695
     2010.60369         4.24035         6.29728
     2010.60643        10.44473         6.28355
     2010.60917         3.11412         6.36819
     2010.61190         1.20151         6.48484
     2010.61464         4.97489         6.33616
     2010.61738         2.66728         6.34874
     2010.62012         2.93267         6.26640
     2010.62286         5.85805         6.29499
     2010.62559         7.06944         6.37047
     2010.62833         9.06983         6.29499
     2010.63107        11.29122         6.51229
     2010.63381         9.47460         6.32816
     2010.63655        11.24799         6.30414
     2010.63928         4.04538         6.34302
     2010.64202         2.85976         6.32587
     2010.64476         6.08015         6.48141
     2010.64750         5.95954         6.37619
     2010.65023        19.19292         6.62552
     2010.65297         2.89931         6.58206
     2010.65571         1.00270         6.21035
     2010.65845         8.00408         6.23780
     2010.66119         6.24647         6.29613
     2010.66392        16.38486         6.34760
     2010.66666         7.19624         6.28126
     2010.66940         2.12563         6.19892
     2010.67214         2.76802         6.24123
     2010.67488         8.39941         6.26868
     2010.67761        12.38279         6.29842
     2010.68035         7.14418         6.36704
     2010.68309        10.30157         6.26296
     2010.68583        12.79895         6.21493
     2010.68846         9.21136         6.35332
     2010.69131         6.67373         6.42080
     2010.69404         5.17911         6.45053
     2010.69678         3.37950         6.28927
     2010.69952         0.64689         6.26983
     2010.70225        -2.89973         6.28698
     2010.70499         3.82266         6.37505
     2010.70773         7.18405         6.38420
     2010.71047         5.42044         6.33845
     2010.71321         7.35382         6.41279
     2010.71594        20.79721         6.59350
     2010.71868        16.24460         6.45968
     2010.72142        13.13898         6.42080
     2010.72416         8.07237         6.47455
     2010.72689         7.68176         6.40135
     2010.72963         4.67514         6.35560
     2010.73237         6.27653         6.37962
     2010.73511         6.78992         6.44024
     2010.73785         5.20730         6.50886
     2010.74058         6.12169         7.02239
     2010.74332        -0.98892         6.29041
     2010.74606         8.17046         6.43338
     2010.74880         7.80685         6.32930
     2010.75154        10.28324         6.23780
     2010.75427        11.92563         6.38534
     2010.75701         8.33001         6.40822
     2010.75975         2.16640         6.25953
     2010.76249         2.15779         6.34989
     2010.76522         8.90417         6.28355
     2010.76796        10.64056         6.37162
     2010.77070         5.11095         6.52716
     2010.77344        14.84633         6.65983
     2010.77618        -1.74528         6.32244
     2010.77891        -5.83889         6.30871
     2010.78165         0.91549         6.27555
     2010.78439         0.27988         6.41965
     2010.78713         9.93627         6.46998
     2010.78987         3.00966         6.26296
     2010.79260         6.40604         6.29384
     2010.79534         0.26843         6.29041
     2010.79808         9.35782         6.31443
     2010.80082         1.74020         6.26525
     2010.80355         8.92059         6.32701
     2010.80629        12.50598         6.35904
     2010.80903         9.90236         6.33845
     2010.81177        12.70575         6.35789
     2010.81451        11.81514         6.24009
     2010.81724        14.60152         6.31214
     2010.81998         8.12191         6.44024
     2010.82272         8.41130         6.42880
     2010.82546         5.57868         6.26525
     2010.82820         8.63907         6.26296
     2010.83093         4.96546         6.60493
     2010.83367         0.78685         6.63925
     2010.83641        -0.57677         6.37505
     2010.83915         1.58262         6.29956
     2010.84188         6.46201         6.25953
     2010.84462         2.71539         6.31329
     2010.84736        -0.11222         6.33387
     2010.85010        12.94017         6.33731
     2010.85284        -3.09645         6.44596
     2010.85557        -6.39106         6.39792
     2010.85831        -1.48667         6.23323
     2010.86105        -9.18329         6.31901
     2010.86379       -15.44090         6.28584
     2010.86653        -8.77151         6.30071
     2010.86926       -25.03812         6.52259
     2010.87200       -23.23374         6.31443
     2010.87474         5.81165         6.37734
     2010.87748        -5.46296         6.26411
     2010.88021         6.19942         6.13601
     2010.88295         4.24281         6.32015
     2010.88569         5.69020         6.66669
     2010.88843         4.89958         6.53631
     2010.89117         8.15997         6.37162
     2010.89390        10.14836         6.11199
     2010.89664         5.72574         6.18748
     2010.89938        11.01913         6.24352
     2010.90212         2.54952         6.25267
     2010.90485         3.08690         6.18862
     2010.90759         2.55029         6.14287
     2010.91033        -1.42632         6.13944
     2010.91307        -7.45493         6.22179
     2010.91581         3.30145         6.26983
     2010.91854         1.70984         6.10399
     2010.92128        -5.84377         6.09141
     2010.92402        -6.37539         6.06167
     2010.92676         5.20700         6.17375
     2010.92950        -0.27361         6.16804
     2010.93223        -0.44223         6.18634
     2010.93497         2.12416         6.19892
     2010.93771        -4.19845         6.10971
     2010.94045         0.87893         6.27440
     2010.94318        -2.93668         6.17604
     2010.94592        -3.67129         6.19549
     2010.94866         4.00310         6.16918
     2010.95140         6.70648         6.33616
     2010.95414        -3.75513         6.10742
     2010.95687        -4.78774         6.17032
     2010.95961         0.05764         6.35904
     2010.96235         4.44803         6.14631
     2010.96509         3.85842         6.16918
     2010.96783         5.30280         6.11199
     2010.97056         2.24919         6.15774
     2010.97330         5.07258         6.19320
     2010.97604        -2.74504         6.20349
     2010.97878        -1.53165         6.20006
     2010.98151        -1.82426         6.30299
     2010.98425        -1.99488         6.10856
     2010.98699         4.86451         6.14287
     2010.98973         8.38290         6.31329
     2010.99247       -12.24271         6.33502
     2010.99520         5.12367         6.21150
     2010.99794        -0.84294         6.06739
     2011.00342        -0.49017         6.18634
     2011.00616         2.96822         6.19663
     2011.00889         3.19661         6.28126
     2011.01163       -28.25101         6.12000
     2011.01437        -2.49062         6.18290
     2011.01711        -2.77023         6.28469
     2011.01984        -0.25485         6.25610
     2011.02258       -24.27346         6.16346
     2011.02532        -5.16807         6.24009
     2011.02806         0.90432         6.33502
     2011.03080         0.45870         6.20578
     2011.03353       -11.17091         6.09141
     2011.03627        -9.89552         6.15088
     2011.03901        -3.00014         6.13944
     2011.04175         0.00925         6.14287
     2011.04449        -3.95836         6.09369
     2011.04722        -6.12398         6.29499
     2011.04996        -6.83759         6.28469
     2011.05270        -1.31420         6.11886
     2011.05544        -7.37682         6.23208
     2011.05817        -2.90643         6.13487
     2011.06091         0.27596         6.12915
     2011.06365        -3.56866         6.17261
     2011.06639        -5.49727         6.12572
     2011.06913        -8.48288         6.44138
     2011.07186       -13.80749         6.09827
     2011.07460       -14.18411         6.31443
     2011.07734        -5.56272         6.15088
     2011.08008        -3.70533         6.09026
     2011.08282        -9.91595         6.11886
     2011.08555        -8.70756         6.11314
     2011.08829        -6.88317         6.65754
     2011.09103       -11.70779         6.20349
     2011.09377        -3.06240         6.26182
     2011.09650         4.01099         6.23094
     2011.09924       -10.19363         6.10399
     2011.10198        -7.31124         6.25153
     2011.10472        -4.47085         6.22980
     2011.10746        -7.82546         6.11886
     2011.11019        -5.01208         6.26983
     2011.11293        -3.08369         6.22065
     2011.11567        -6.43630         6.24123
     2011.11841        -0.56592         6.26525
     2011.12115        -8.93853         6.20578
     2011.12388         5.52986         6.47569
     2011.12662         1.00924         6.39220
     2011.12936        -0.03637         6.26983
     2011.13210        -1.89698         6.13716
     2011.13483        -3.02060         6.17490
     2011.13757        -4.42621         6.18176
     2011.14031        -1.37782         6.12114
     2011.14305       -30.80144         6.28698
     2011.14579        -9.31105         6.28698
     2011.14852        -4.04666         6.37848
     2011.15126        -0.51527         6.14631
     2011.15400         4.04411         6.07997
     2011.15674        -1.06850         6.08340
     2011.15948        -0.40711         6.62438
     2011.16221        -2.61173         6.33616
     2011.16495         1.21366         6.28813
     2011.16769        -5.97695         6.15774
     2011.17043       -14.14157         7.30145
     2011.17323       -19.90919         6.30643
     2011.17590       -18.07679         6.18405
     2011.17864        -0.15641         6.14859
     2011.18138        -7.05802         6.19549
     2011.18412        -9.21863         6.10284
     2011.18685        -6.24924         6.20120
     2011.18959        -7.55586         6.17032
     2011.19233       -11.72547         6.14059
     2011.19507        -5.95808         6.16689
     2011.19780         0.74830         6.20235
     2011.20054        -8.27031         6.12915
     2011.20328        -1.72892         6.28469
     2011.20602        -3.75154         6.33273
     2011.20876        -2.15015         6.19434
     2011.21149       -10.67276         6.15202
     2011.21423        -8.87938         6.13601
     2011.21697       -10.07599         6.33273
     2011.21971         0.37440         6.42194
     2011.22245       -12.50422         6.15774
     2011.22518        -5.94083         6.10170
     2011.22792        -4.92944         6.15546
     2011.23066        -4.07405         6.19434
     2011.23340        -5.27467         6.16575
     2011.23613        -4.37628         6.20235
     2011.23887        -6.27089         6.20006
     2011.24161        -8.46751         6.14059
     2011.24435        -5.90712         6.16689
     2011.24709        -4.40473         6.36132
     2011.24982        -6.96935         6.15660
     2011.25256        -2.85296         6.19205
     2011.25530        -8.27857         6.09941
     2011.25804         3.09981         6.31214
     2011.26078        -8.92080         6.30299
     2011.26351        -6.29141         6.15431
     2011.26625       -14.62302         6.13716
     2011.26899         1.52136         6.16003
     2011.27173        -9.88525         6.18519
     2011.27446         0.94414         6.43223
     2011.27720       -10.54648         6.50314
     2011.27994        -3.69109         6.18290
     2011.28268       -10.24970         6.18748
     2011.28502       -13.92323         7.36550
     2011.28815        -9.71493         6.16346
     2011.29089        -7.19754         6.13258
     2011.29369        -7.70217         6.31672
     2011.29637        -7.29577         6.17833
     2011.29911        -5.80338         6.13830
     2011.30184        -8.96300         6.21950
     2011.30458        -7.90561         6.05367
     2011.30732        -1.84422         6.12229
     2011.31006         4.82017         6.18176
     2011.31279        -6.14845         6.20006
     2011.31553        -5.14606         6.12572
     2011.31827        -2.23267         6.20463
     2011.32101        -5.54429         6.19205
     2011.32375       -11.29890         6.14974
     2011.32648       -10.34651         6.16232
     2011.32922       -14.82513         6.14402
     2011.33196       -10.24474         6.12572
     2011.33470       -15.32835         6.22751
     2011.33744        -7.37597         6.25153
     2011.34017        -9.80158         6.40021
     2011.34291        -9.41619         6.35560
     2011.34565        -7.57780         6.23895
     2011.34839       -10.59042         6.22637
     2011.35112        -8.42103         6.27783
     2011.35386       -10.67664         6.26296
     2011.35660        -9.11826         6.10284
     2011.35934       -16.63887         6.13258
     2011.36208       -20.83748         6.16003
     2011.36481        -7.65810         6.43223
     2011.36755        -6.75471         6.30414
     2011.37029       -13.55032         6.38992
     2011.37303        -4.16294         6.23437
     2011.37577        -9.35655         6.36590
     2011.37850        -8.21216         6.37962
     2011.38124       -12.82178         6.33044
     2011.38398       -16.11639         6.30414
     2011.38672       -13.75700         6.27669
     2011.38945        -6.64461         6.23666
     2011.39219        -9.52323         6.26068
     2011.39493       -10.65784         6.36018
     2011.39767        -6.98445         9.77759
     2011.41796         1.05600        14.40276
     2011.41957        -8.35936         6.34417
     2011.42231       -15.47197         6.27211
     2011.42505        -8.50258         6.31329
     2011.42778        -6.15620         6.29384
     2011.43052        -6.48581         6.41165
     2011.43326       -13.99242         6.29156
     2011.43600       -11.14704         6.24238
     2011.43874       -16.54765         6.44939
     2011.44147        -9.26826         6.26868
     2011.44421        -2.17688         6.28584
     2011.44695        -8.42949         6.31672
     2011.44969        -9.29010         6.36933
     2011.45243       -13.68272         6.28355
     2011.45516        -9.09433         6.26868
     2011.45790        -8.69994         6.26754
     2011.46064        -7.26156         6.35217
     2011.46338       -14.44717         6.40250
     2011.46611       -11.07978         6.25725
     2011.46885        -5.90939         6.55004
     2011.47159       -10.58401         6.28813
     2011.47433        -8.15962         6.33387
     2011.47707        -8.36823         6.36590
     2011.47980        -5.79085         6.40707
     2011.48254        -6.65246         6.36819
     2011.48528        -6.36407         6.25038
     2011.48802        -5.09269         6.34074
     2011.49076        -5.24230         6.40364
     2011.49349        -9.30891         6.49171
     2011.49623        -3.77253         6.34989
     2011.49897        -1.12914         6.30757
     2011.50171        -7.29475         6.42995
     2011.50416       -12.02930         7.16307
     2011.50718        -6.71798         6.38534
     2011.50992        -4.94259         6.29270
     2011.51266        -2.14520         6.38877
     2011.51540       -10.10182         6.36361
     2011.51813        -3.55343         6.27669
     2011.52087         3.93096         6.36475
     2011.52361        -4.38766         6.31329
     2011.52635        -6.00327         6.29156
     2011.52908         1.96912         6.48828
     2011.53182        -2.25250         6.34417
     2011.53456        -0.01611         6.34074
     2011.53730        -2.21772         6.36247
     2011.54004        -3.46234         6.29156
     2011.54277        -1.80295         6.36018
     2011.54551         5.62444         6.38763
     2011.54825        -0.27017         6.29270
     2011.55099        -7.41579         6.44138
     2011.55373        -2.72640         6.26182
     2011.55646       -10.51201         6.32930
     2011.55920        -5.41963         6.40021
     2011.56194        -2.81424         6.31100
     2011.56468         3.47715         6.29956
     2011.56741         2.78053         6.30757
     2011.57015        -0.94308         6.39335
     2011.58658         0.90924         6.49056
     2011.58932        -4.60937         6.27097
     2011.59206        -9.55798         6.50772
     2011.59479         2.56340         6.32816
     2011.59753        -0.83521         6.29041
     2011.60027        -0.43782         6.29499
     2011.60301         4.58256         6.30528
     2011.60574         4.25095         6.31672
     2011.60848         5.06334         6.51801
     2011.61122         0.65072         6.60837
     2011.61396        -0.02889         6.52487
     2011.61670         4.25150         6.41851
     2011.61943         0.55488         6.45854
     2011.62217         0.96827         6.43109
     2011.62491         1.16966         6.45053
     2011.62765        -0.07795         6.35789
     2011.63039        -0.91757         6.30071
     2011.63312         0.45182         6.38763
     2011.63586         9.14321         6.43452
     2011.63860        10.64959         6.52831
     2011.64134         5.71898         6.65640
     2011.64407        -0.17063         6.38763
     2011.64681         0.73575         6.42537
     2011.64955         0.62514         6.73074
     2011.65229        -0.20347         6.53974
     2011.65503        -1.07909         6.58892
     2011.65776         0.03230         6.69872
     2011.66050        11.06369         6.50543
     2011.66324        11.92408         6.40593
     2011.66598         4.08646         6.55690
     2011.66872         8.69885         6.61751
     2011.67145         3.28524         6.33273
     2011.67419         4.38462         6.32701
     2011.67693         7.97601         6.33845
     2011.67967         4.63940         6.41737
     2011.68240         5.20578         6.53974
     2011.68514         3.18517         6.32472
     2011.68788         3.09656         6.42652
     2011.69062         6.20894         6.44367
     2011.69336         5.49033         6.40822
     2011.69609         7.17272         6.52831
     2011.69883         6.88710         6.44367
     2011.70157         7.59049         6.32358
     2011.70431        11.65688         6.38992
     2011.70705         3.47727         6.63353
     2011.70978         7.30865         6.49285
     2011.71252         7.53904         6.51115
     2011.71526         5.95043         6.64268
     2011.71800         7.33081         6.53517
     2011.72073        15.21920         6.44596
     2011.72347        10.82359         6.65068
     2011.72621         5.89297         6.53974
     2011.72895         5.01336         6.53746
     2011.73169        23.73875         6.83025
     2011.73442        11.28113         6.48942
     2011.73716        10.97052         6.74447
     2011.73990         2.43691         6.62666
     2011.74264         8.44730         6.37734
     2011.74538        17.57168         8.81115
     2011.74811        10.71207         6.59922
     2011.75085         7.06746         6.59693
     2011.75359         7.81484         6.48256
     2011.75633         6.01223         6.51687
     2011.75906        14.06262         6.46654
     2011.76180         7.51800         6.41737
     2011.76454         8.21339         6.48256
     2011.76728         2.41178         6.48370
     2011.77002         9.16216         7.19395
     2011.77275         4.86855         7.13676
     2011.77549         7.94794         7.64914
     2011.77823         5.60732         6.53288
     2011.78097        -1.77129         6.44253
     2011.78371         7.37510         6.46883
     2011.78644         8.30649         6.38763
     2011.78918         3.10687         6.44481
     2011.79192        -3.84974         6.38191
     2011.79466        -7.10335         6.35217
     2011.79739         3.01303         6.45740
     2011.80013        11.86642         6.46311
     2011.80287         4.50581         6.36819
     2011.80561        -1.23981         6.43109
     2011.80835         6.64458         6.34989
     2011.81108         6.21097         6.38877
     2011.81382         0.92135         6.98579
     2011.81650        -5.32525         6.48828
     2011.81930         5.74813         6.34302
     2011.82203        -0.48848         6.33044
     2011.82477         2.92390         6.41050
     2011.82751        -0.69471         6.58549
     2011.83025         0.33268         6.42995
     2011.83299        -5.73694         6.31214
     2011.83572        -6.78655         6.29613
     2011.83846         0.20684         6.41737
     2011.84120         0.30322         6.58435
     2011.84394         4.10261         6.38877
     2011.84668         6.71500         6.32587
     2011.84941         1.23138         6.29842
     2011.85215        -2.05523         6.49514
     2011.85489        -8.74084         6.54775
     2011.85763        -0.82446         6.63124
     2011.86036        -1.34507         6.50314
     2011.86310        10.15532         6.39792
     2011.86584         4.11071         6.50086
     2011.86858         6.92209         6.44939
     2011.87132        11.08148         6.52716
     2011.87405        -1.18813         6.43109
     2011.87676        10.91126         6.51916
     2011.89050         4.65118         6.47226
     2011.89322        -1.05043         7.16307
     2011.89596        -2.85004         6.31214
     2011.89869         0.62435         6.49514
     2011.90129        -8.76723         6.93661
     2011.90965        -1.83610         6.46197
     2011.91238        -1.49072         6.43910
     2011.91512       -11.63233         6.41851
     2011.91786        -3.58194         9.65521
     2011.92060        -2.04556         6.35904
     2011.92334        -8.38817         6.41279
     2011.92607        -4.16978         6.40478
     2011.92881        -6.21040         6.56376
     2011.93155        -2.16201         6.45854
     2011.93429        -4.78562         6.46654
     2011.93702         0.34076         6.41279
     2011.93976        -2.79085         6.35560
     2011.94250         2.00254         6.46083
     2011.94524        -4.46007         6.43795
     2011.94798         4.65731         6.44138
     2011.95071         3.92770         6.30299
     2011.95264         2.51327         9.60146
     2011.95724        -6.17676        13.96129
     2011.99001         4.06090        11.02195
     2011.99178         6.16850         6.27783
     2011.99452         5.00489         6.24466
     2011.99726         6.11328         6.24238
     2012.00273         2.24205         6.33616
     2012.00547        -4.79556         6.33387
     2012.00821        -1.51418         6.23323
     2012.01095        -1.47079         6.24810
     2012.01368         4.25360         6.20807
     2012.01642        -1.49402         6.26868
     2012.01916        -0.05463         6.17947
     2012.02190         0.68176         6.23895
     2012.02464        -2.87785         6.21722
     2012.02737        -3.42347         6.18062
     2012.03011        -0.77108         6.19777
     2012.03285        -8.93069         6.19434
     2012.03559        -7.70031         6.16575
     2012.03833        -2.04392         6.10056
     2012.04106         1.45047         6.10856
     2012.04380         0.41485         6.10971
     2012.04654         1.33024         6.24009
     2012.04928         3.57963         6.28469
     2012.05201         3.02101         6.14516
     2012.05475        -7.36660         6.17261
     2012.05749        -1.41521         6.26296
     2012.05995        -2.54776         7.11389
     2012.06415       -29.00970        18.95702
     2012.06544        -1.79199         7.14477
     2012.07392       -22.95689         6.24352
     2012.08814       -10.00807        17.55025
     2012.09120       -11.73676        10.92702
     2012.09308       -11.12418         6.28012
     2012.09582        -3.24580         8.14780
     2012.09856        -4.20541         6.15088
     2012.10130        -5.06502         6.25038
     2012.10403        -2.77563         6.15202
     2012.10677        -0.03125        10.11041
     2012.10951        -1.08986         7.01667
     2012.11225        -8.22647         6.29384
     2012.11498        -6.48309         6.21607
     2012.11772        -3.82270         6.58435
     2012.12046         1.40869         6.24695
     2012.12320        -8.92893         6.28584
     2012.12594        -5.77154         6.42995
     2012.12867        -5.81615         6.24238
     2012.13141        -7.34377         6.25038
     2012.13415        -1.78238         6.26411
     2012.13689         0.98801         6.25953
     2012.13963        -4.96460         6.51115
     2012.14236        -1.76222         6.46197
     2012.14510        -6.14783         6.36475
     2012.14776       -23.19443         6.37276
     2012.15067        -8.52708         6.50543
     2012.15331        -8.41567         6.17032
     2012.15605        -4.09128         6.32015
     2012.15879        -4.34490         6.31100
     2012.16153        -5.61151         6.22980
     2012.16427       -25.06312         6.29728
     2012.16700        -6.56374         6.32358
     2012.16974       -11.66635         6.17604
     2012.17248       -11.54596         6.20349
     2012.17522       -12.05858         6.21493
     2012.17796        -6.76019         6.32930
     2012.18057       -16.01177         6.89429
     2012.19178        -2.17628         7.19509
     2012.20100       -15.37835        15.61281
     2012.20260        -1.99571         6.29613
     2012.20533        -2.98832         6.42194
     2012.20807         0.19407         6.24810
     2012.21062        -5.83750         6.76963
     2012.21460        -5.86339        13.22245
     2012.21629        -8.27777         6.12686
     2012.21902        -6.49038         6.25953
     2012.22176        -3.03000         6.18634
     2012.22450       -10.11461         6.15431
     2012.22724        -8.84822         6.15774
     2012.22997        -4.70084         6.15317
     2012.23271        -5.98545         6.16689
     2012.23545        -8.29806         6.23094
     2012.23819        -3.17968         6.25725
     2012.24093        -6.18929         6.18062
     2012.24366        -2.70690         6.30299
     2012.24640        -8.35152         6.19777
     2012.24914        -4.42213         6.30414
     2012.25188       -13.29974         6.14631
     2012.25462       -11.35036         6.13830
     2012.25735        -9.03897         6.15088
     2012.26009        -9.38158         6.16232
     2012.26283       -18.05319         6.23552
     2012.26557       -11.42281         6.13487
     2012.26830       -12.19042         6.14631
     2012.27104        -8.90003         6.30071
     2012.27378        -6.28665         6.14402
     2012.27652        -1.40626         6.14287
     2012.27926        -8.48287         6.35446
     2012.28199        -6.19749         6.26411
     2012.28473        -7.80210         6.19091
     2012.28747        -9.30971         6.21264
     2012.29021        -9.54533         6.26754
     2012.29295       -16.87694         6.40364
     2012.29568       -14.88655         6.54775
     2012.29849        -9.46118         6.38077
     2012.30116       -14.45678         6.39678
     2012.30390       -15.88039         6.19434
     2012.30663        -6.06200         8.94611
     2012.30937       -10.31762         6.18977
     2012.31154       -10.08010         9.34184
     2012.31506        -3.13289         7.23626
     2012.31759        -9.70946         6.16689
     2012.32032       -11.66407         6.24924
     2012.32306       -15.89568         6.16346
     2012.32580       -15.31930         6.25496
     2012.32854       -13.87291         6.80508
     2012.33128       -13.87452         6.50772
     2012.33401        -8.32114         6.37276
     2012.33675        -6.80375         6.23094
     2012.33949       -17.40436         6.20463
     2012.34223       -17.96297         6.14287
     2012.34496       -19.99059         6.15889
     2012.34770       -15.39820         6.32244
     2012.35044        -8.14081         6.55919
     2012.35258        -5.95929         8.66590
     2012.35676       -13.18323         9.75586
     2012.35865       -11.14265         6.13944
     2012.36139       -13.07527         7.71090
     2012.36413       -12.81988         7.06585
     2012.36687       -14.41949         6.21607
     2012.36961       -10.52611         6.19549
     2012.37234        -7.86472         6.18748
     2012.37508       -10.17133         6.09941
     2012.37782        -8.50094         7.91563
     2012.38056       -23.42056        14.37874
     2012.38329        -6.66617         6.37619
     2012.38603        -7.16578         6.27097
     2012.38877       -14.00840         6.38992
     2012.39151        -6.80301         6.48027
     2012.39425       -11.45462         6.36361
     2012.39698        -8.69024         6.43223
     2012.39972        -7.45285         6.17490
     2012.40246        -7.98646         6.30871
     2012.40520       -13.64908         6.64725
     2012.40794        -9.95169         6.17147
     2012.41067        -4.28230         6.19434
     2012.41341       -11.00392         6.15431
     2012.41615       -13.50153         6.29270
     2012.41889       -10.28614         6.27669
     2012.42164       -11.91976         6.15202
     2012.42436       -12.63237         6.23780
     2012.42710       -12.45598         6.20578
     2012.42984        -9.96959         6.26754
     2012.43256       -13.20020         6.22980
     2012.43531       -13.45882         6.16918
     2012.43805        -9.09343         6.12343
     2012.44079       -12.02305         6.18405
     2012.44353       -12.87966         6.21264
     2012.44626        -8.57827         6.17490
     2012.44898        -7.96588         6.26525
     2012.45183        -5.76052         8.02314
     2012.45448        -7.10511         8.99643
     2012.45722        -5.93872         6.41737
     2012.45995        -8.16334         6.38305
     2012.46248       -10.55090         8.45660
     2012.46632        -3.67876        10.27968
     2012.46817       -10.74118         6.64725
     2012.47091        -9.71779         6.26868
     2012.47364       -10.33040         6.17833
     2012.47638        -8.46002         8.83746
     2012.47912        -9.78963         6.20692
     2012.48186       -14.01824         6.19663
     2012.48459        -7.90486         6.30414
     2012.48733       -14.06747         6.23895
     2012.49007        -7.03808         6.16003
     2012.49281        -9.86970         6.22865
     2012.49555        -6.06031         6.19663
     2012.49828       -10.21092         6.24009
     2012.50102        -2.90953         6.14974
     2012.50376        -4.58115         6.22865
     2012.50650        -0.59576         8.21185
     2012.50924       -10.15537         6.30299
     2012.51195        -0.98198         6.84054
     2012.51474       -13.90761         6.24352
     2012.51745        -9.15221         6.13258
     2012.52019        -4.67083         6.21722
     2012.52292       -14.42744         8.00141
     2012.52566        -5.79205         7.61712
     2012.52840        -8.88667         7.73149
     2012.53114        -2.68928         7.76466
     2012.53388       -12.72189         7.59081
     2012.53661         5.89150         7.92135
     2012.53935        -1.68612         7.67430
     2012.54209         4.52727         7.57823
     2012.54483         7.30566         7.71090
     2012.54757         7.50804         7.48788
     2012.55030        -1.80557         7.66973
     2012.55304        -4.27318         7.52333
     2012.55578        -2.75880         7.52333
     2012.55852        -5.17341         7.51876
     2012.56125         1.38598         7.51876
     2012.56399        -4.74564         7.57480
     2012.56673         5.09475         7.43756
     2012.56947        -4.07786         7.52905
     2012.57221         1.67052         7.49703
     2012.57494         1.98891         7.51304
     2012.57768         6.12830         7.51190
     2012.58042         5.19569         8.14323
     2012.58316         0.58007         7.63885
     2012.58590         7.38646         7.67545
     2012.58863         7.57185         7.65944
     2012.59137        10.93423         7.58967
     2012.59411        -1.49338         7.53592
     2012.59685         4.79401         7.54278
     2012.59958        -1.08761         7.61712
     2012.60232        -8.60322         7.62856
     2012.60506         5.78517         7.54392
     2012.60780        -0.20045         7.51876
     2012.61054        -0.65106         7.50503
     2012.61327         6.46033         7.60568
     2012.61601         9.09172         7.55879
     2012.61875         5.83910         7.59539
     2012.62149        14.42149         7.76580
     2012.62423         9.58288         7.47072
     2012.62696         3.56026         7.47187
     2012.62970         4.29165         7.63771
     2012.63244         2.00404         7.70061
     2012.63518         8.52442         7.62970
     2012.63791         0.59181         7.54392
     2012.64065         8.13820         7.55879
     2012.64339        11.32858         7.55993
     2012.64613         9.15797         7.58395
     2012.64887         7.45236         7.63542
     2012.65160         6.68274         7.66973
     2012.65434        15.07713         7.78296
     2012.65708        16.55852         7.86874
     2012.65982        12.47791         7.91448
     2012.66256        12.10729         7.59310
     2012.66529         4.60168         7.47301
     2012.66803         9.82807         7.64228
     2012.67077        10.40745         7.56680
     2012.67351         9.97184         7.61826
     2012.67624         4.42423         7.61254
     2012.67898         7.29761         7.62284
     2012.68172        18.77300         7.75894
     2012.68446         8.52439         7.70061
     2012.68719        16.19878         7.57595
     2012.68993         2.85016         7.72920
     2012.69267        12.17555         8.14094
     2012.69541        13.66994         7.98539
     2012.69815         1.88232         8.00941
     2012.70089         8.67771         7.91220
     2012.70362         0.72510         7.67202
     2012.70636        -1.16952         7.68917
     2012.70910        -3.19113         7.62741
     2012.71184        10.56326         7.64571
     2012.71457         5.97064         7.71090
     2012.71731         6.95003         7.67888
     2012.72005         9.89942         7.59882
     2012.72279         6.36180         7.70404
     2012.72553        12.25119         7.65829
     2012.72826        13.42258         7.60339
     2012.73100         6.18096         7.93736
     2012.73378        12.25834         7.95909
     2012.73648         6.02474         7.62512
     2012.73921        11.28813         7.71205
     2012.74195        10.26251         7.88932
     2012.74469        17.33990         7.83214
     2012.74743         9.19729         7.67316
     2012.75017        13.36467         7.86874
     2012.75290         5.82406         8.02657
     2012.75564         9.29245         7.62970
     2012.75838         8.58583         7.61941
     2012.76112        13.78522         7.55536
     2012.76386         6.79761         7.53820
     2012.76659         4.81899         7.62398
     2012.76933         6.96738         7.79783
     2012.77207        10.10377         7.82184
     2012.77481         9.57716         7.68002
     2012.77754         9.76454         7.64686
     2012.78028        17.81293         7.76123
     2012.78302         9.61532         7.78524
     2012.78576        -6.58030         7.85387
     2012.78850         4.53609         8.04144
     2012.79123        13.24948         7.92249
     2012.79397        14.07586         7.78524
     2012.79671         8.77025         7.70976
     2012.79945        14.17964         7.88932
     2012.80219        12.20202         7.86530
     2012.80492        11.63741         7.79211
     2012.80766         6.06280         7.70862
     2012.81040         6.61919         7.74979
     2012.81314         6.96957         7.71662
     2012.81587         1.68096         7.71891
     2012.81861         3.01135         7.89161
     2012.82135        10.49173         7.78410
     2012.82409         2.05612         8.12836
     2012.82683         3.13451         8.05974
     2012.82956         3.17389         7.79211
     2012.83230        -1.08272         7.67888
     2012.83504         8.52067         7.86645
     2012.83778        13.24205         7.84472
     2012.84052        10.08144         8.15009
     2012.84325        -0.29817         7.94079
     2012.84599         8.87821         8.09062
     2012.84873         2.23560         7.92821
     2012.85147         1.25599         8.09290
     2012.85420        -2.64862         7.89161
     2012.85694         4.93176         7.72234
     2012.85968         6.19715         7.80812
     2012.86242         0.20454         7.76123
     2012.86516         6.78492         7.79096
     2012.86789         0.40231         8.09748
     2012.87063         3.10270         7.81041
     2012.87337        -3.08492         7.93965
     2012.87611        -6.94153         7.90877
     2012.87885        11.02286         7.94422
     2012.88158         6.82024         7.78410
     2012.88432         7.55763         7.84929
     2012.88706         1.24802         8.34909
     2012.88980        18.32241         8.07460
     2012.89253         4.28179         7.84129
     2012.89527         3.78918         7.84815
     2012.89801         5.59957         8.10891
     2012.90075         3.05395         7.77495
     2012.90349        -7.41866         7.86530
     2012.90622         5.72873         8.00712
     2012.90896         8.88511         8.23244
     2012.91170         6.99550        11.04597
     2012.91444        -0.39611        10.24537
     2012.91718         6.68627        10.18589
     2012.91991         0.43366        10.87098
     2012.92265         8.52305        11.44169
     2012.92539         5.67543        11.10430
     2012.92816         2.45281        12.02613
     2012.93086        -6.70779        10.15845
     2012.93360         0.62560         9.56829
     2012.93634         1.70198         8.20156
     2012.93908         5.74837         8.65675
     2012.94182         1.15876         9.93313
     2012.94459        14.27214        11.84085
     2012.94732        12.45452        12.95596
     2012.95003        15.98192        13.04860
     2012.95277         5.98830         8.32279
     2012.95551         5.58269         8.32050
     2012.95824       -12.98692         8.05059
     2012.96098         9.09346         8.02428
     2012.96372         6.81785         7.95337
     2012.96646         9.88824         7.68345
     2012.96919        10.14863         7.76351
     2012.97193         0.61101         8.74139
     2012.97467         0.97740         7.95794
     2012.97741         3.06979         7.91105
     2012.98015        -0.39083         7.71662
     2012.98288         2.66956         7.63656
     2012.98562         1.27095         7.59196
     2012.98836         2.39233         7.63542
     2012.99110        -0.35228         7.62284
     2012.99384        -2.96489         7.71891
     2012.99657         4.53349         7.74521
     2012.99931         1.40588         7.63656
     2013.00205         1.84527         7.64571
     2013.00479         4.55065         7.75208
     2013.00752         0.55304         7.68689
     2013.01026        -4.53857         7.71319
     2013.01300        -5.70518         7.68689
     2013.01574         1.36020         7.72234
     2013.01848        -1.89941         7.74865
     2013.02121         4.60298         7.69260
     2013.02395        -3.57964         7.62970
     2013.02669        -2.88025         7.71891
     2013.02943        -1.65086         7.58166
     2013.03216        -0.90848         7.59424
     2013.03490        -1.22409         7.67087
     2013.03764        -2.85770         7.68002
     2013.04038        -6.33532         7.62284
     2013.04312       -14.48193         7.76809
     2013.04585       -10.76854         7.86530
     2013.04859        -6.67415         7.91677
     2013.05133        -6.90477         7.70404
     2013.05407        -4.26538         7.76809
     2013.05681         2.26601         7.78067
     2013.05954        -4.02061         7.80697
     2013.06228        -5.79722         7.81612
     2013.06502         1.18817         7.84357
     2013.06776         3.41355         7.94079
     2013.07044        -7.12705         8.10434
     2013.07323         3.91133         8.48748
     2013.07597        -1.26129         7.75665
     2013.07871         1.33210         7.75093
     2013.08145        -3.06151         7.75208
     2013.08418        -5.97813         7.77838
     2013.08692        -9.01274         7.85387
     2013.08966       -14.34935         7.77609
     2013.09240        -2.72796         7.80583
     2013.09514        -0.72058         7.71433
     2013.09787        -3.49019         8.13865
     2013.10061         0.97720         8.36396
     2013.10335         1.21158         8.04258
     2013.10609        -7.98103         7.89161
     2013.10882         1.82636         7.81041
     2013.11156        -9.61726         8.07803
     2013.11430        -7.41487         7.84586
     2013.11704       -11.00248         8.07918
     2013.11978        -1.03710         8.30563
     2013.12251        -9.94071         7.82299
     2013.12525       -10.98832         7.80697
     2013.12799        -3.49693         7.80583
     2013.13073        -5.65455         7.87217
     2013.13347        -4.53316         7.91220
     2013.13618        -0.33877         7.98311
     2013.13894         5.84261         7.82985
     2013.14168        -0.49700         7.91220
     2013.14442         1.58039         7.93621
     2013.14715         3.29677         8.07232
     2013.14989        -4.12384         7.85959
     2013.15263        -1.95045         7.88475
     2013.15537       -11.40107         7.82070
     2013.15811       -11.32268         7.77038
     2013.16084       -11.18329         7.94193
     2013.16358       -13.05591         7.80926
     2013.16632        -8.73552         7.88132
     2013.16906        -3.02213         8.07460
     2013.17180        -5.99574         7.76123
     2013.17453        -5.61136         7.76466
     2013.17727        -1.99097         8.11235
     2013.18001        -7.14658         8.28047
     2013.18383         0.27156        20.81555
     2013.18548        -5.58581         7.90991
     2013.18822       -14.85242         7.81612
     2013.19096        -3.32904         7.79439
     2013.19370       -11.73665         7.80011
     2013.19644       -11.35126         7.92135
     2013.19917        -4.66188         7.95794
     2013.20191        -9.08749         8.01284
     2013.20465        -5.44310         7.88818
     2013.20739        -3.93471         7.94880
     2013.21013        -4.57033         7.84815
     2013.21286        -5.16294         7.81041
     2013.21560        -1.66655         7.90305
     2013.21834        -6.60417         7.71090
     2013.22108       -12.63578         7.72577
     2013.22381       -11.32139         7.72806
     2013.22655       -10.57101         7.75208
     2013.22929       -14.62362         7.80812
     2013.23203       -13.05023         7.69375
     2013.23477       -17.41885         7.71205
     2013.23750       -12.10246         8.01399
     2013.24024       -11.58007         8.00484
     2013.24298       -16.28969         8.10434
     2013.24572        -2.87730         8.04144
     2013.24846        -2.21391         8.06660
     2013.25119        -7.89752         8.04487
     2013.25393        -4.43514         8.04487
     2013.25667        -9.28275         8.45546
     2013.25941       -11.46636         8.16267
     2013.26214        -8.81998         8.13865
     2013.26488        -5.11159         7.95108
     2013.26762        -9.41620         7.98196
     2013.27036       -15.33382         8.06317
     2013.27310       -11.14743         8.34909
     2013.27583       -12.41304         8.36854
     2013.27857        -4.70266         8.49091
     2013.28131        -7.70627         8.09062
     2013.28405       -14.09588         8.08947
     2013.28679       -16.55949         8.00941
     2013.28952       -14.67911         8.07232
     2013.29226       -16.80772         8.14894
     2013.29500       -17.18833         8.08604
     2013.29774       -20.25295         8.15238
     2013.30047       -24.42556         8.05859
     2013.30321       -20.10417         8.06088
     2013.30595       -24.85279         8.10091
     2013.30869       -14.87340         8.07918
     2013.31143       -20.02701         8.11006
     2013.31416       -10.84163         8.20270
     2013.31690       -19.14824         8.05059
     2013.31964        -3.43385         8.21070
     2013.32238        -5.63747         8.08375
     2013.32512        -1.83108         8.31364
     2013.32785        -7.89469         8.11921
     2013.33059       -19.17630         8.03800
     2013.33333       -22.33792         7.99111
     2013.33607       -14.98953         8.10320
     2013.33880        -7.33214         8.07575
     2013.34154       -10.94176         8.11235
     2013.34428       -13.63537         8.03686
     2013.34702        -9.71698         8.10663
     2013.34976       -11.30360         8.05516
     2013.35249       -15.36921         8.02657
     2013.35523       -16.20982         7.99912
     2013.35797        -7.89644         8.10205
     2013.36071       -17.48605         8.17182
     2013.36344       -11.47966         8.08490
     2013.36618         4.08273         7.97510
     2013.36892        -5.16889         7.96366
     2013.37166       -10.24550         7.96709
     2013.37440        -8.73811         8.02085
     2013.37713       -15.76173         8.01513
     2013.37987       -12.26734         8.02657
     2013.38261       -11.04995         8.08147
     2013.38535       -10.16457         8.01399
     2013.38809        -7.22718         8.02771
     2013.39082       -10.30279         8.01284
     2013.39907        -6.44964         9.52025
     2013.40177        -7.61625         8.12264
     2013.40451        -5.12886         8.03343
     2013.40725       -12.94847         8.38684
     2013.40999        -9.92908         8.34109
     2013.41273        -6.35570         8.08833
     2013.41546       -20.66431         8.35596
     2013.41820        -7.65092         8.02314
     2013.42094       -11.64654         8.15924
     2013.42368       -17.36015         8.06774
     2013.42642       -11.96976         8.40514
     2013.42915        -4.55338         8.07117
     2013.43195        -9.40800         8.54124
     2013.43463       -11.38860         8.16267
     2013.43737        -6.00222         8.01399
     2013.44010       -11.84683         8.09062
     2013.44284        -7.14344         8.50921
     2013.44558        -1.18205         8.49435
     2013.44832        -8.69767         8.08375
     2013.45106        -6.10128         8.07003
     2013.45379       -12.08789         7.99454
     2013.45653        -9.79951         8.15581
     2013.45927        -3.88212         8.51836
     2013.46201         1.91127         8.16953
     2013.46475        -7.36035         8.05402
     2013.46748        -6.38796         8.14094
     2013.47404         5.17857        19.15488
     2013.47570        -0.93980         8.14437
     2013.47763         5.81877        16.31733
     2013.48121        -1.16703        11.35248
     2013.48391        -4.39364         9.03075
     2013.48665         1.13075        10.70743
     2013.48939       -13.53086         9.05019
     2013.49212        -2.12348        10.50613
     2013.49486        -8.81809        10.22478
     2013.49760        -5.47170         9.17600
     2013.50034        -8.83732         8.50464
     2013.50308         2.95707         8.68992
     2013.50581        -1.36354         8.34681
     2013.50855        -3.19516         8.19355
     2013.51129        -2.95477         8.07575
     2013.51403        -6.14538         8.13636
     2013.51676        -9.81700         8.05402
     2013.51950        -0.05561         8.08375
     2013.52224         1.95178         8.40628
     2013.52498        -0.91883         8.44402
     2013.52772        -0.39445         8.03229
     2013.53023        -9.00001         8.41657
     2013.53944       -14.37507        25.00153
     2013.54787        11.22104        20.85787
     2013.54855       -10.00211        26.14639
     2013.56149         5.33299        17.55712
     2013.56331        -6.11942         8.16381
     2013.56605         1.37297         8.13865
     2013.56878         2.09936         8.11006
     2013.57152         2.25074         8.17525
     2013.57426         1.19513         8.11120
     2013.57700         3.03352         8.13636
     2013.57974        -0.89710         8.07803
     2013.58247         1.04229         8.17868
     2013.58521        -0.40532         8.05173
     2013.58795         1.03406         8.08718
     2013.59069        -0.05755         8.13408
     2013.59342         2.61284         8.23701
     2013.59616         3.17722         8.16953
     2013.59890        -3.10139         8.16381
     2013.60164         0.17500         8.13408
     2013.60438         7.89239         8.36282
     2013.60711         3.89377         8.31364
     2013.60985         8.00816         8.26903
     2013.61259        -1.78845         8.15009
     2013.61533        -4.37407         8.39027
     2013.61807         1.48732         8.48291
     2013.62080        13.40971         8.27933
     2013.62354         4.31409         8.15009
     2013.62628         7.19648         8.18440
     2013.62902         2.80487         8.09405
     2013.63175         8.79325         8.13636
     2013.63449         5.05064         8.24044
     2013.63723         0.95003         8.02085
     2013.63997         4.16841         8.05059
     2013.64271         0.48380         8.22786
     2013.64544         2.96719         8.15123
     2013.64818        -3.25142         8.12035
     2013.65092         2.69596         8.29076
     2013.65366         3.95235         8.18897
     2013.65639        15.24174         8.21871
     2013.65913         2.87212         8.40170
     2013.66187        -1.50849         8.34909
     2013.66461         6.70490         8.04372
     2013.66735         1.44028         8.27590
     2013.67008        16.01567         8.36396
     2013.67282         6.11706         8.80315
     2013.67556        -0.62756         8.68535
     2013.67830         6.05883         8.15009
     2013.68104        10.36122         8.24159
     2013.68377         0.59961         8.16953
     2013.68651         2.52799         8.07117
     2013.68925         0.97538         8.24730
     2013.69199         7.20677         8.23015
     2013.69472        15.75415         8.11235
     2013.69746         2.38554         8.21985
     2013.70020         3.73093         8.20384
     2013.70294        13.31131         8.06317
     2013.70538         8.76577         8.69106
     2013.70900        17.94996        12.37610
     2013.71115         5.16547         8.15466
     2013.71389         1.93186         8.34681
     2013.71663         0.52525         8.15009
     2013.71937         2.29563         8.18326
     2013.72210        19.23502         8.25874
     2013.72484        20.96341         8.29076
     2013.72758         8.31180         8.28962
     2013.73032         9.36318         7.99111
     2013.73305        13.10557         8.05745
     2013.73579         1.85196         8.18326
     2013.73853         5.80334         8.02771
     2013.74127         5.42173         8.19012
     2013.74401        15.08312         8.46003
     2013.74674         6.56350         8.39256
     2013.74948        18.54889        12.70320
     2013.75222         2.99728         8.22672
     2013.75496        -1.19034         8.02314
     2013.75770        -8.33495         8.50921
     2013.76043         4.38044         7.98997
     2013.76317        -1.34317         8.13865
     2013.76591         7.25521         8.40170
     2013.76865         0.20660         8.30678
     2013.77138        -7.72601         8.42344
     2013.77412         8.51737         8.25760
     2013.77686         1.65276         8.03915
     2013.77960         0.14515         8.13408
     2013.78182       -13.98535         9.20802
     2013.78525       -14.04512         8.93124
     2013.78781       -16.94969         8.21070
     2013.79055        -1.86831         8.20613
     2013.79329        -0.49792         8.12836
     2013.79603        -1.54153         8.16381
     2013.79876        -3.18515         8.16839
     2013.80150         4.18324         8.32622
     2013.80424        -1.32937         8.38798
     2013.80698         1.09402         8.03572
     2013.80971         0.31240         8.07003
     2013.81245        -0.26721         8.10205
     2013.81519        -4.32482         8.01284
     2013.81793         3.81656         8.09519
     2013.82067         4.81195         8.31593
     2013.82340        -5.22666         8.07117
     2013.82569         7.92083         9.61747
     2013.82888         1.77111         8.07460
     2013.83162         0.17550         8.06202
     2013.83436         5.22188         8.32965
     2013.83709         1.80927         8.52408
     2013.83983        11.20666         8.45317
     2013.84257        -6.59295         8.37540
     2013.84531         1.97243         8.51722
     2013.84804        -2.31318         8.00941
     2013.85078        -1.89279         8.16724
     2013.85352         3.46659         8.10434
     2013.85626        -4.81502         8.09062
     2013.85900        -2.44963         8.02199
     2013.86173        -0.78325         8.07117
     2013.86447        -2.57086         8.26789
     2013.86721         0.91253         8.15695
     2013.86995        -0.23409         8.10548
     2013.87269         7.44630         8.16953
     2013.87542         6.23469         8.13065
     2013.87816         6.50107         8.12264
     2013.88090         8.94446         8.07232
     2013.88364         4.23585         8.21070
     2013.88637         6.73924         8.05859
     2013.88911        -5.10438         8.01170
     2013.89185        -5.26899         7.97167
     2013.89459        -2.05360         8.08718
     2013.89733        10.00978         8.03572
     2013.90006        -5.33383         8.11806
     2013.90280        -2.37744         8.06774
     2013.90554        -2.81806         8.07232
     2013.90828         2.04333         8.12378
     2013.91102        -0.55928         9.55914
     2013.91262         3.41636        27.79791
     2014.02434       -12.12366        16.86288
     2014.02600         3.10997         8.44974
     2014.02874         9.48435         8.09748
     2014.03148         6.76574         8.15123
     2014.03422        -4.92887         7.97968
     2014.03694         3.31152         8.22557
     2014.03969       -10.16810         8.20270
     2014.04243         3.32329         8.56754
     2014.04517        -5.60432         8.38341
     2014.04791         5.02606         8.07803
     2014.05065         1.87845         8.04372
     2014.05338        -8.73816         8.12264
     2014.05612        -2.78778         8.00484
     2014.05886        -2.47539         8.10434
     2014.06160        -3.65900         7.99912
     2014.06433        -2.11162         8.58355
     2014.06707        -3.58923         8.50464
     2014.06981        -3.84484         8.09405
     2014.07255        -2.19346         8.09176
     2014.07529         3.19993         8.04601
     2014.07802         4.20832         8.01742
     2014.08076         1.42671         8.02885
     2014.08350         2.62009         8.18097
     2014.08624         1.31348         8.07689
     2014.09017        -3.48340        29.95266
     2014.09171         3.73025         8.42458
     2014.09445         0.00864         8.05173
     2014.09713        -4.09096         8.51264
     2014.09995         4.74041         8.44631
     2014.10266         4.89980         8.51836
     2014.10456        -4.05562        13.20644
     2014.11199         6.15771        19.91430
     2014.11362        -2.72065         8.37197
     2014.11635         0.90973         8.66476
     2014.11909        -1.14988         8.98500
     2014.12183         4.08751         8.38569
     2014.12457         0.81190        10.01777
     2014.12731         3.17428         8.16610
     2014.13004        10.47367         7.98882
     2014.13278         6.29806         8.76083
     2014.13552         6.59044         8.67734
     2014.13826         5.48783         9.47451
     2014.14099         3.00922         8.27247
     2014.14373        -5.36340         8.28962
     2014.14647        -4.18501         8.18897
     2014.14921        -0.68862         8.14208
     2014.15195         0.10176         8.21299
     2014.15468         3.20815         8.42000
     2014.15742         7.26754         8.43487
     2014.16016         2.03993         8.60643
     2014.16290        -0.48369         8.20041
     2014.16564        -4.05530         8.21299
     2014.16837        -9.82091         8.17296
     2014.17111        -6.38053         8.76541
     2014.17385        -2.73214         8.51379
     2014.17653         4.13726         9.29266
     2014.18206        -5.82898         8.63502
     2014.18480        -9.55859         8.32279
     2014.18754         5.60379         9.30981
     2014.19028       -11.21682         8.61100
     2014.19301        -5.32743         8.23358
     2014.19575         0.58095         8.36511
     2014.19787        -9.10552        13.83319
     2014.20979        -5.49719         9.57287
     2014.21218         1.26828         8.41772
     2014.21492        -3.95634         8.44059
     2014.21765       -12.57795         8.30220
     2014.22039       -10.58356        10.88813
     2014.22313       -11.23618         8.34338
     2014.22587        -6.07179         8.53438
     2014.22861        -2.86740         8.25874
     2014.23134        -5.73602         8.34223
     2014.23408        -7.57763         8.12035
     2014.23682        -7.62824         8.18554
     2014.23956       -10.61585         8.31593
     2014.24230       -18.49847         8.34452
     2014.24503       -12.83108         8.99758
     2014.24777        -8.38769         9.69296
     2014.25051        -9.47831         8.23015
     2014.25325        -9.49592         8.24502
     2014.25598       -11.21353         8.89121
     2014.25872        -8.91015         8.40971
     2014.26146       -10.11576         8.70136
     2014.26420       -15.19737         8.41200
     2014.26694       -15.32799         8.38112
     2014.26967        -9.51160         8.32279
     2014.27241       -15.36321         8.69449
     2014.27515       -12.05283         8.87291
     2014.27789       -10.45544         8.40170
     2014.28062        -7.39905         8.37769
     2014.28336        -6.82966         8.41429
     2014.28610       -13.67028         8.40857
     2014.28884       -11.48589         8.81802
     2014.29158       -13.03850         8.27247
     2014.29431       -19.31812         8.39942
     2014.29705        -3.97873         8.42000
     2014.29979       -11.50034         8.27590
     2014.30253        -5.20996         8.32851
     2014.30527       -11.42357         8.34338
     2014.30800       -10.57518         8.50121
     2014.31074       -18.59880         8.54009
     2014.31348       -10.69741         8.27475
     2014.31622       -13.57402         8.29877
     2014.31895       -11.67063         8.19469
     2014.32169       -16.20925         8.15009
     2014.32443       -21.45786         8.54124
     2014.32717       -15.81447         8.30220
     2014.32991        -9.51209         8.22900
     2014.33264        -8.69770         8.19927
     2014.33538       -20.10831         8.32050
     2014.33812        -9.64093         8.29305
     2014.34086        -6.70054         8.40399
     2014.34360        -7.73615         8.24730
     2014.34633        -7.64277         8.21414
     2014.34907       -19.27638         8.65675
     2014.35181        -5.84999         8.79285
     2014.35455       -13.89961         8.30906
     2014.35728       -15.04922         8.30906
     2014.36002       -24.87083         8.39484
     2014.36276       -22.33844         8.28047
     2014.36550       -12.31506         8.25188
     2014.36824       -10.06367         8.55496
     2014.37097        -2.26228         8.62816
     2014.37371       -13.29290         8.26446
     2014.37645        -3.25851         8.29763
     2014.37919        -7.51212         8.31936
     2014.38193       -15.78674         8.45546
     2014.38466        -8.49535         8.43716
     2014.38740       -11.02396         8.31478
     2014.39014       -11.39058         8.44860
     2014.39288       -16.05319         8.39027
     2014.39561        -7.21780         8.41772
     2014.39835        -1.76141         8.43373
     2014.40109       -11.52103         8.30220
     2014.40383        -8.92664         8.28962
     2014.40657        -3.89325         8.48520
     2014.40930        -8.63487         8.43487
     2014.41204       -17.79648         8.35710
     2014.41478        -7.44409         8.29534
     2014.41752        -5.36871         8.33423
     2014.42026        -1.02232         8.49206
     2014.42299        -7.03393         8.40399
     2014.42573        -7.69755         8.58355
     2014.42847        -3.80516         8.53895
     2014.43121       -12.66077         8.45088
     2014.43394        -5.96939         8.47376
     2014.43668       -11.11000         8.37997
     2014.43942        -0.31061         8.40170
     2014.44216       -11.17522         8.39827
     2014.44490        -5.10284         8.87749
     2014.44763         3.47855         8.71623
     2014.45037        -6.36906         8.42572
     2014.45311       -12.60068         8.49663
     2014.45585        -8.63429         8.48748
     2014.45859        -8.07090         8.40056
     2014.46132        -4.57252         8.42572
     2014.46406        -1.03013         8.26560
     2014.46680        -5.47974         8.42115
     2014.46954       -10.34636         8.49435
     2014.47227        -5.49497         8.45432
     2014.47501         2.19642         8.45203
     2014.47775        -9.07019         8.37997
     2014.48049        -6.52581         8.43602
     2014.48323        -1.90642         8.45546
     2014.48596         0.69397         8.84432
     2014.48870        -3.53765         8.55267
     2014.49144        -1.31626         8.46918
     2014.49418        -6.40487         8.41772
     2014.49692        -6.76849         8.31478
     2014.49965        -7.00910         8.76312
     2014.50239        -9.39271         8.65790
     2014.50513         2.50767         8.49320
     2014.50787        -6.36294         8.55267
     2014.51060       -10.28055         8.52866
     2014.51334        -3.84617         8.59385
     2014.51608        -3.18478         8.60643
     2014.51882         6.95361         8.78828
     2014.52156         6.99700         8.91294
     2014.52429         6.99438         8.52637
     2014.52703        -2.58423         8.61444
     2014.52977       -13.90684         8.66819
     2014.53251         0.02354         8.86605
     2014.53525         1.11993         8.59842
     2014.53798         0.33432         8.61558
     2014.54072        11.54770         9.05019
     2014.54346         6.53409         8.63045
     2014.54620         2.60348         8.82602
     2014.54893         5.83686         8.71394
     2014.55167        -0.66275         8.75282
     2014.55441        -6.47936         8.62130
     2014.55715        -0.20797         9.05133
     2014.55989         0.54741         8.68763
     2014.56262         0.90580         8.50807
     2014.56536       -10.66781         8.80315
     2014.56810        -8.50443         8.72423
     2014.57084        -1.92004         8.67276
     2014.57357        -9.68165         8.67505
     2014.57631        -6.26227         8.51836
     2014.57905         4.55612         8.64989
     2014.58179        -4.01449         8.75397
     2014.58453        -3.35011         8.77913
     2014.58726       -17.06672         9.58430
     2014.59000         5.44667         9.38187
     2014.59274         6.90805         9.05934
     2014.59548         7.33144         9.15312
     2014.59822       -10.65517         9.96287
     2014.60095       -12.98878         9.65864
     2014.60369        -2.90240         9.06734
     2014.60643         0.97699         8.91637
     2014.60917        -5.33262         9.05934
     2014.61190        -0.19724         9.67466
     2014.61464         0.11915         9.20688
     2014.61738         8.08154         9.62204
     2014.62012         5.87992         8.93124
     2014.62286        12.55031         9.02846
     2014.62559         7.39770         8.94726
     2014.62833         9.10408         9.03532
     2014.63107         2.54647         9.36128
     2014.63381        12.08886         9.08450
     2014.63655         6.08425         8.94497
     2014.63928        -0.07537         9.15084
     2014.64202         6.06302         8.85690
     2014.64476        -3.53159         9.18972
     2014.64750         6.52279         8.84432
     2014.65023        -4.22682         9.03189
     2014.65297         5.87457         8.94268
     2014.65571         3.71595         9.28579
     2014.65845        18.07934         9.02960
     2014.66119        10.38673         8.96899
     2014.66392         7.98211         9.23547
     2014.66666         8.12550         9.03418
     2014.66940         6.71189         9.09251
     2014.67214        11.75027         9.09479
     2014.67488         1.37366         9.05019
     2014.67761        -7.83995         9.16799
     2014.68035         6.82144         9.01473
     2014.68309         8.68982         9.00444
     2014.68583        15.25221         9.19658
     2014.68856         4.26260         9.36128
     2014.69130         9.91398         9.18057
     2014.69404         0.88137         9.25491
     2014.69678         3.36076         9.05591
     2014.69952        16.22314         8.91981
     2014.70225         9.06953         9.00215
     2014.70499         6.30792         9.01702
     2014.70773        14.26630         9.16685
     2014.71047        15.06969         9.19087
     2014.71321        10.18308         8.83174
     2014.71594        -1.17753         9.53284
     2014.71868         9.58485         9.14855
     2014.72142         7.52224         9.27093
     2014.72416         4.16463         9.22746
     2014.72689         8.61101         9.28122
     2014.72963        14.46440         9.23204
     2014.73237         0.32979         9.37500
     2014.73511         2.81717         9.10280
     2014.73785         2.48756         9.33840
     2014.74058         9.45495         9.14626
     2014.74332         3.27533         9.78102
     2014.74606        -1.77328         9.57172
     2014.74880        10.50311         9.31896
     2014.75154         5.41549         9.42075
     2014.75427        -2.01912         9.43562
     2014.75701         4.41327         9.74442
     2014.75975         2.09466         9.56143
     2014.76249        12.90404         9.15427
     2014.76522         6.74543         9.21260
     2014.76791        18.39483         9.81762
     2014.77002         9.74336        10.86068
     2014.79015        13.51985        10.97620
     2014.79260        -1.44270         8.98614
     2014.79534         2.52369         9.15655
     2014.79808        16.35607         9.16685
     2014.80082        13.96046         9.16685
     2014.80355         8.49085         8.98271
     2014.80629         3.57823         9.00673
     2014.80903         6.83662         9.06734
     2014.81177         4.55701         9.26978
     2014.81451        23.44039         9.11881
     2014.81724        10.20578         9.16914
     2014.81998         5.41217         8.99300
     2014.82270        11.25556         9.23661
     2014.82546        -0.17706         9.44934
     2014.82820        12.73533         9.01588
     2014.83093         6.84071         9.61747
     2014.83367        12.07510         9.51797
     2014.83641         4.86749         9.44019
     2014.83915         1.67388        10.23279
     2014.84188         2.11526         9.97088
     2014.84462         0.76665         9.87595
     2014.84736         5.24104         9.90340
     2014.85010         7.06242         9.50081
     2014.85284         2.88881         9.43562
     2014.85557        11.47520         9.53855
     2014.85831         6.16958         9.73985
     2014.86105        -3.83103         9.31782
     2014.86379        -2.45464         9.31439
     2014.86653         5.46674         9.33497
     2014.86926         3.05813         9.26063
     2014.87200         3.93552         9.30524
     2014.87474         3.31591         9.34755
     2014.87748        -2.03371         9.34755
     2014.88021        -4.44132         9.40474
     2014.88295         3.25307         9.30524
     2014.88569         2.92045         9.47108
     2014.88843         2.95484         9.72955
     2014.89117        18.93523         9.79589
     2014.89390         5.20061         9.42533
     2014.89664         6.72900         9.51454
     2014.89938        -2.37761         9.11309
     2014.90212        -7.72423         9.42075
     2014.90485         0.23316         9.45849
     2014.90759         4.50955        10.60221
     2014.91033         2.69693         9.22403
     2014.91307         6.35132         9.14969
     2014.91581         2.52471         9.11309
     2014.91854         9.52310         9.11195
     2014.92128         5.78448         9.19087
     2014.92402         1.21187         9.41275
     2014.92676        -2.88074         9.46764
     2014.92950         0.11864         9.34870
     2014.93223        -5.59297         9.59231
     2014.93497        -4.22258         9.31439
     2014.93771         3.48380         9.58316
     2014.94045         9.56819         9.32468
     2014.94318        21.41558         9.92055
     2014.94592         0.78796         9.43905
     2014.94866         1.14635         9.48366
     2014.95136       -13.81125        10.11384
     2014.95416         2.20112         9.53284
     2014.95687         7.80951         9.57287
     2014.95961         8.79290         9.85422
     2014.96235         1.48429         9.36928
     2014.96509         0.91167         9.51110
     2014.96783        -8.04694         9.54427
     2014.97056         3.39545         9.56600
     2014.97330        -6.06317         9.49281
     2014.97604        -8.41678         9.44477
     2014.97878        -1.68839         9.53970
     2014.98151         3.91099         9.40817
     2014.98425        -4.33862         9.72612
     2014.98699        -3.44223         9.47222
     2014.98973         0.56515         9.47679
     2014.99247        -0.09946         9.44134
     2014.99520        -9.26507         9.36014
     2014.99794         4.71932         9.53627
     2015.00068         5.55070         9.44477
     2015.00342        -2.34791         9.38301
     2015.00616        -7.44752         9.47565
     2015.00889         3.72286         9.92513
     2015.01163       -16.66875         9.68381
     2015.01437        -7.60436        10.44094
     2015.01711        -9.91898         9.85079
     2015.01984         8.78841        11.05512
     2015.02258         9.97080        10.35631
     2015.02532         0.47518         9.59002
     2015.02806         6.06657         9.79131
     2015.03080         8.82696        10.55074
     2015.03353        -2.36065         9.69067
     2015.03627        -1.39627         9.72727
     2015.03901         5.30812         9.71240
     2015.04175         2.51851         9.66436
     2015.04449        -6.05911         9.78445
     2015.04722        -9.95372        10.05094
     2015.04996        -0.28733         9.72384
     2015.05270        -2.08195         9.67122
     2015.05544       -11.66456         9.61518
     2015.05817         5.87183        10.26824
     2015.06091        -0.28779         9.70897
     2015.06365         5.14060         9.89082
     2015.06639         1.01499         9.87824
     2015.06913         5.79137         9.67351
     2015.07186       -12.87024         9.63234
     2015.07460        -8.12985         9.69410
     2015.07734       -14.63946         9.70782
     2015.08008        -4.07808         9.62319
     2015.08282        -2.00869         9.63119
     2015.08555         1.20870         9.69639
     2015.08829        -4.04892         9.65293
     2015.09103        -0.03153         9.57515
     2015.09377        -6.32314        11.36964
     2015.09650         2.89324        10.13214
     2015.09924        11.58263         9.87252
     2015.10198         8.53902         9.75586
     2015.10472        -3.29860         9.50310
     2015.10746         2.05079         9.68266
     2015.11019        -0.44882         9.87366
     2015.11293        -8.87143        10.50499
     2015.11567        -4.48805         9.67008
     2015.11841         0.06134         9.58202
     2015.12115        -1.33727         9.70439
     2015.12388        -5.04789         9.63806
     2015.12662        -5.28350         9.72498
     2015.12936        -0.36711         9.66665
     2015.13212         6.10827         9.92627
     2015.13483        -5.99734        10.89843
     2015.13762        10.01804        10.36546
     2015.14031        -5.27757         9.66551
     2015.14305        -5.68318         9.51454
     2015.14579        -6.59879         9.47565
     2015.14852         8.56259         9.59574
     2015.15126        -4.35202         9.54542
     2015.15400        -1.41463         9.74557
     2015.15643         2.97082        11.03796
     2015.15948         7.22514         6.18977
     2015.16221         6.91353         6.16346
     2015.16495         5.90392         6.20349
     2015.16769         3.27030         6.08683
     2015.17050         7.93567         6.53974
     2015.17316         3.14808         6.51001
     2015.17590        -1.11954         6.31786
     2015.17864        -3.50415         6.14859
     2015.18138         3.21224         6.10971
     2015.18412         1.36362         6.16918
     2015.18685         5.00101         6.19091
     2015.18959         2.39240         6.25725
     2015.19233         3.11479         6.55575
     2015.19507         1.14417         6.08798
     2015.19781         2.17656         6.27440
     2015.20054         3.41995         6.80165
     2015.20328         4.46133         6.13601
     2015.20602         1.33072         6.42423
     2015.20876        -0.32889         6.14516
     2015.21149        -2.32651         6.13830
     2015.21423        -1.00612         6.44825
     2015.21697        -3.55173         6.24810
     2015.21971        -4.36535         6.16804
     2015.22245         1.98604         6.15660
     2015.22518        -0.35757         6.10399
     2015.22792        -2.55219         6.13487
     2015.23066        -0.07280         6.16804
     2015.23340        -2.05441         6.34188
     2015.23613         5.94398         6.28355
     2015.23887         1.32436         6.51458
     2015.24161         5.69575         6.53174
     2015.24435         4.73514         6.51001
     2015.24697         6.46955         6.75590
     2015.30291        -0.67698        12.56367
     2015.30458         0.37065         6.24238
     2015.30609         0.43231        25.12505
     2015.31126         9.03715        18.98790
     2015.31209         1.79397         9.57630
     2015.38771        -8.12397       105.49687
     2015.38990        23.64654       297.33146
     2015.50171        11.30650         9.80046
     2015.50444        14.30689         9.94915
     2015.50718        13.35728         9.70782
     2015.50992         5.78767         9.66207
     2015.51266        -3.10195         9.74099
     2015.51540         1.29844         9.37157
     2015.51813        12.19083         9.95944
     2015.52087        19.50721         9.63348
     2015.52361        12.53460         9.64721
     2015.52635         9.28699         9.52140
     2015.52908         9.95837         9.50081
     2015.53182        12.41876         9.50081
     2015.53456         9.67215         9.58087
     2015.53730        12.46453        10.28082
     2015.54004         7.15592        12.59455
     2015.54277        17.41931        10.74059
     2015.54551         7.06669        10.04522
     2015.54825        12.94308        10.21792
     2015.55099        16.29147        10.17331
     2015.55373        24.75186        10.14701
     2015.55646        20.44024         9.94572
     2015.55920        20.02663        10.20419
     2015.56194        14.21702        10.15273
     2015.56468        20.33840        10.33229
     2015.56741        18.37479        10.67197
     2015.57015        18.58418        10.77948
     2015.57289        24.49256        11.00250
     2015.57563        11.31995        10.65139
     2015.57837        16.81834        10.82637
     2015.58110        21.03072        10.97849
     2015.58384         9.19211        10.81608
     2015.58658        29.11050        11.06541
     2015.58932        -1.69311        10.99793
     2015.59206        10.22527        10.93960
     2015.59479        17.82966        10.65367
     2015.59753        15.02705        11.09400
     2015.60027        26.82243        11.40509
     2015.60301        15.06582        10.70056
     2015.60574        18.71621        11.13174
     2015.60848        25.04259        10.73488
     2015.61122        20.80698        10.83895
     2015.61396        20.04337        11.74592
     2015.61670        26.15475        10.58162
     2015.61943         9.42114        10.96019
     2015.62217        18.20853        10.61364
     2015.62491        20.43791        10.86412
     2015.62765        24.83430        10.97048
     2015.63039        12.31169        10.97391
     2015.63312        21.22308        10.99107
     2015.63586        23.14646        10.93503
     2015.63860        15.01885        10.78291
     2015.64134        27.77224        10.80807
     2015.64407        24.92162        10.99107
     2015.64681        23.28701        11.62926
     2015.64955        25.72240        10.81494
     2015.65229        13.50778        11.15233
     2015.65503        20.34017        10.86640
     2015.65776        47.05356        11.24268
     2015.66050        30.01994        11.23353
     2015.66324         9.23333        10.63766
     2015.66598        24.01672        11.57093
     2015.66872        21.28011        10.65939
     2015.67145        17.34849        11.15805
     2015.67419        14.72988        10.55074
     2015.67693        20.95427        10.75318
     2015.67967        19.78765        10.67426
     2015.68240        12.79704        10.59306
     2015.68514        34.29943        10.85382
     2015.68788        12.73281        10.91215
     2015.69062        24.75120        11.47028
     2015.69336        17.29459        11.51260
     2015.69609        17.16597        10.57133
     2015.69883         4.77136        10.97162
     2015.70157        24.32175        11.10658
     2015.70431        18.31713        11.01394
     2015.70705        25.13852        10.85840
     2015.70978        32.70791        10.76804
     2015.71252        14.33630        10.94074
     2015.71526        19.39968        10.80236
     2015.71800        10.98707        10.96705
     2015.72073        17.24946        11.13975
     2015.72347        12.91184        10.78634
     2015.72621        26.58423        13.11837
     2015.72895        10.90162        10.65825
     2015.73169        13.59700        11.34333
     2015.73442         5.13539        10.68112
     2015.73703         2.61881        11.98038
     2015.73992        12.31916        10.67197
     2015.74264         7.55855        10.62737
     2015.74538        17.91794        10.70743
     2015.74811        20.72933        10.84010
     2015.75085        -5.99529        10.74746
     2015.75359        12.82910        10.84124
     2015.75633        16.29449        10.63309
     2015.75906        13.60487        10.70971
     2015.76180        -0.60174        10.70400
     2015.76454        15.98665        10.67883
     2015.76728         8.78303        11.08485
     2015.77002        14.26942        11.12717
     2015.77275        29.88181        11.38336
     2015.77549        19.37419        10.83667
     2015.77823        29.85958        11.50917
     2015.78097        24.10597        10.89500
     2015.78371        20.81735        10.76118
     2015.78644        14.86174        11.26556
     2015.78918        11.96113        10.64452
     2015.79192        16.73352        10.85382
     2015.79466        20.36190        10.80464
     2015.79739        28.07629        11.11916
     2015.80013         0.94868        11.92777
     2015.80287        25.94806        10.97849
     2015.80561        14.98545        10.73716
     2015.80835         1.14484        10.87327
     2015.81108         2.57122        11.05969
     2015.81382         5.19261        10.94875
     2015.81656         6.82500        11.23353
     2015.81930         6.48338        10.76004
     2015.82203        17.81977        10.90529
     2015.82477        -9.04984        11.18435
     2015.82751        20.27255        11.10315
     2015.83025        -2.05407        11.44512
     2015.83299         8.08832        10.97162
     2015.83572        15.95871        11.13060
     2015.83846         2.42109        11.91519
     2015.84120         7.37048        11.83398
     2015.84394         0.60887        11.70817
     2015.84668        -2.63475        11.62240
     2015.84941        11.20564        11.67386
     2015.85215         5.84203        11.56635
     2015.85489         6.42441        11.75278
     2015.85763         1.50980        11.84542
     2015.86036        -3.93081        12.09932
     2015.86310         7.26557        11.89117
     2015.86584        13.38396        11.60410
     2015.86858        10.65435        11.56292
     2015.87132        -2.76026        11.99296
     2015.87405         3.99712        11.82483
     2015.87679        10.77351        11.88316
     2015.87953         3.94690        11.90604
     2015.88227        19.69528        11.82712
     2015.88501         4.32567        13.41002
     2015.88774         6.82906        11.65671
     2015.89048         7.20344        11.46914
     2015.89322         9.77883        11.56750
     2015.89596        -0.69278        11.56635
     2015.89869        11.46760        11.49201
     2015.90143        -1.21801        11.55720
     2015.90417         1.79638        11.51489
     2015.90691         2.94176        11.52861
     2015.90965         2.04115        11.73791
     2015.91238         8.45554        11.83856
     2015.91512        13.31193        11.45656
     2015.91786        13.93331        11.51603
     2015.92060        15.13570        11.64641
     2015.92334         7.87509        11.74249
     2015.92607        -4.96953        11.50231
     2015.92881         4.52386        11.82483
     2015.93155         2.12725        11.94950
     2015.93429        19.88563        12.12449
     2015.93702        23.45902        11.80082
     2015.93976        13.39141        13.10122
     2015.94250        13.52479        12.43672
     2015.94524        -2.82482        11.36849
     2015.94798        14.79957        11.69559
     2015.95071        15.03996        11.81568
     2015.95345        12.04534        11.99067
     2015.95619         7.50773        12.42414
     2015.95893        -5.32888        13.04289
     2015.96167        13.56950        12.18053
     2015.96440        14.46389        12.05815
     2015.96714         9.89928        12.27660
     2015.96988         5.66766        12.17252
     2015.97262        12.72505        12.01812
     2015.97535        10.94944        12.00440
     2015.97809        -4.17818        12.10161
     2015.98083         5.00321        11.92777
     2015.98357         4.87460        13.21787
     2015.98631       -16.83201        13.81260
     2015.98904       -12.79563        12.18510
     2015.99178        -1.11124        12.24000
     2015.99452         8.15215        12.27431
     2015.99726         6.85853        12.29032
     2016.00000         4.48492        12.18282
     2016.00273        -4.53769        12.06387
     2016.00547         2.22469        12.21141
     2016.00821         3.09808        12.23428
     2016.01095         7.38147        12.14507
     2016.01368         6.28585        12.13364
     2016.01642        -2.34976        12.37153
     2016.01916         2.77363        12.15193
     2016.02190         5.24101        12.17367
     2016.02464        14.33640        11.83284
     2016.02737        -2.28121        12.64487
     2016.03011         0.23018        12.13935
     2016.03285         0.45356        12.20111
     2016.03559         5.49595        12.12220
     2016.03833         5.34534        13.38371
     2016.04106         9.01672        11.89117
     2016.04380        15.53011        14.80649
     2016.04654        -6.06450        12.12220
     2016.04928        14.61188        12.23314
     2016.05201        -8.37573        11.99296
     2016.05475         5.51266        11.95522
     2016.05749        11.94504        12.38754
     2016.06023         3.80243        11.99296
     2016.06297        -0.05718        12.25601
     2016.06570        -8.37979        11.94378
     2016.06844         8.23259        12.34408
     2016.07118       -14.74802        13.58386
     2016.07392         7.58037        13.39286
     2016.07666         7.23775        11.85114
     2016.07939         4.60614        12.05929
     2016.08213         2.02553        11.66929
     2016.08487         6.29591        11.57779
     2016.08761         2.21230        11.81568
     2016.09034        -8.19831        13.86865
     2016.09308         4.18107        12.93995
     2016.09582        -8.96654         6.33387
     2016.09856        -6.10015         6.31329
     2016.10130       -10.26477         6.26640
     2016.10403        -7.45138         6.20006
     2016.10677        -5.05799         6.23323
     2016.10951        -6.58360         6.28012
     2016.11225       -16.02722         6.88514
     2016.11498        -8.24183         6.34531
     2016.11772        -9.10044         6.26525
     2016.12046        -7.63906         6.79022
     2016.12320        -6.22967         6.28698
     2016.12594       -11.64928         6.28584
     2016.12867         3.61710         6.20235
     2016.13141         5.97049         6.21722
     2016.13415         2.73888         6.17947
     2016.13689        -2.22674         6.83939
     2016.13957       -12.84334         6.30185
     2016.14239       -10.16897         6.33959
     2016.14510       -13.31457         6.17947
     2016.14784        -6.23219         6.23780
     2016.15058        -4.28780         6.10742
     2016.15331        -1.98441         6.29384
     2016.15605        -2.27403         6.14974
     2016.15879        -5.66664         6.28126
     2016.16153         3.19975         6.28241
     2016.16427         1.46613         6.26754
     2016.16700        -5.08548         6.18062
     2016.16974        -2.25309         6.20807
     2016.17248       -14.91571         6.33159
     2016.17522        -8.18032         6.28469
     2016.17796         5.38107         6.31100
     2016.18069         0.58645         6.31100
     2016.18343        -5.37616         7.38495
     2016.18617         0.05123         6.17719
     2016.18891        -0.91138         6.24466
     2016.19164         6.77900         6.15202
     2016.19438         2.32039         6.17947
     2016.19712         5.57178         6.06167
     2016.19986        -2.21584         6.49285
     2016.20260        -6.70445         6.49399
     2016.20533        -9.53506         6.75705
     2016.20807        -9.05268         6.36475
     2016.21081        -8.06229         6.23666
     2016.21355        -2.72090         6.15546
     2016.21629        -7.49252         7.07271
     2016.21902        -3.67813         6.07540
     2016.22176        -4.23174         6.10513
     2016.22450        -5.24735         6.17604
     2016.22724       -10.23997         6.39678
     2016.22997        -7.00158         6.04680
     2016.23271        -5.00219         6.04909
     2016.23545        -7.04181         6.12686
     2016.23819        -5.26042         6.05023
     2016.24093        -3.65703         6.26296
     2016.24366        -2.19865         6.06510
     2016.24640         1.59974         6.11657
     2016.24914        -2.65687         6.05481
     2016.25188        -1.03549         6.92174
     2016.25462         0.85990         6.34074
     2016.25735        -6.00971         6.16575
     2016.26009         2.63367         6.22637
     2016.26283        -9.04394         6.14059
     2016.26557        -4.88555         6.11199
     2016.26830         0.78584         6.10056
     2016.27103        -0.56878         6.46197
     2016.27379         1.21561         6.10284
     2016.27652        -1.20500         6.72617
     2016.27926        -5.47262         6.12000
     2016.28199        -7.32423         6.85541
     2016.28473         2.82416         6.12343
     2016.28747        -3.23346         6.75247
     2016.29021       -12.54407         6.16117
     2016.29295        -3.54368         6.10284
     2016.29568        -3.49930         6.10170
     2016.29842        -1.97291         6.23323
     2016.30116        -0.07652         6.30643
     2016.30390        -7.05513         6.18405
     2016.30663         3.66325         6.24581
     2016.30937        -0.84536         6.08340
     2016.31211        -5.74797         6.11428
     2016.31485        -0.81259         6.18062
     2016.31759         1.93880         6.12343
     2016.32032         0.93219         6.16232
     2016.32306        -6.37143         6.11085
     2016.32580        -1.70804         6.17490
     2016.32854        -3.34865         6.12915
     2016.33128        -4.24327         6.16232
     2016.33401        -0.13688         6.23208
     2016.33675         1.01751         6.22293
     2016.33949        -0.13311         6.18977
     2016.34223         1.24928         6.21950
     2016.34496        -0.41133         6.33731
     2016.34770         0.62306         6.22980
     2016.35044         4.55444         6.58778
     2016.35318        -7.59617         6.12801
     2016.35592        -1.96978         6.13716
     2016.35865        -4.60440         6.10971
     2016.36139        -0.25201         6.14287
     2016.36413        -0.27562         9.17714
     2016.36687         4.21976         6.13144
     2016.36961        14.50615         6.08340
     2016.37234        13.58954         6.16575
     2016.37508         7.07592         6.23666
     2016.37782        -6.99869         6.14516
     2016.37979         0.21587         9.97774
     2016.39513        -5.49156        10.43179
     2016.39698         9.04202         6.05138
     2016.39972        12.55941         6.14402
     2016.40246        -3.11421         6.18405
     2016.40520        -1.21782         6.08683
     2016.40794        -8.13943         6.16575
     2016.41067        -7.19105         6.14059
     2016.41341        -6.29066         6.06968
     2016.41615        -2.30527         6.18748
     2016.41889        -7.13789         6.14631
     2016.42162         7.43150         6.19205
     2016.42436        -1.85611         6.09713
     2016.42710        -0.09372         6.10284
     2016.42984         0.77066         6.35332
     2016.43258         7.79105         6.17719
     2016.43531         6.84444         6.11085
     2016.43805         5.89782         6.00792
     2016.44079         8.75721         6.07768
     2016.44355         7.28459         6.19205
     2016.44626        -1.87302         6.09484
     2016.44900        -3.04163         6.09713
     2016.45174        10.42476         6.01821
     2016.45448         9.76614         6.11771
     2016.45722         5.35553         6.09713
     2016.45995         4.83892         6.19434
     2016.46269         5.24631         6.23780
     2016.46543         0.14569         6.05138
     2016.46817         4.05308         6.08798
     2016.47091         9.26947         6.11199
     2016.47364         2.17585         6.08683
     2016.47638         5.08124         6.13601
     2016.47912         8.83263         6.21950
     2016.48186         1.92701         6.29041
     2016.48459         1.54440         6.03651
     2016.48733        -5.14121         6.17261
     2016.49007         0.80317         6.07883
     2016.49281         4.71956         6.09713
     2016.49555         2.77995        13.88809
     2016.49828         6.94933         6.13944
     2016.50102         7.38572         6.14173
     2016.50376        -0.71089         6.33616
     2016.50650         7.55350         6.24352
     2016.50924         5.12588         6.10856
     2016.51197         3.02727         6.07654
     2016.51471         4.63966         6.06968
     2016.51745         4.38704         6.23552
     2016.52019        -3.62057         6.21035
     2016.52292         6.87482         6.05367
     2016.52566         6.24520         6.05938
     2016.52840         8.64159         6.04680
     2016.53114         1.12498         6.05710
     2016.53388         4.95936         6.03651
     2016.53661         5.29875         6.16804
     2016.53935         8.57914         6.02050
     2016.54209         8.43953         6.09026
     2016.54483         6.03791         6.11543
     2016.54757         3.55430         6.22522
     2016.55030         7.81269         6.18634
     2016.55304         9.55107         6.11657
     2016.55578        10.55046         6.30071
     2016.55852         9.45885         6.06396
     2016.56125        11.99523         6.02622
     2016.56399         5.08562         6.08340
     2016.56673         6.75201         6.20463
     2016.56947         2.69739         6.33159
     2016.57221         3.24178         6.01364
     2016.57494         4.74417         6.24695
     2016.57768        15.32556         6.08798
     2016.58042        10.71694         6.12343
     2016.58316         5.29133         6.06625
     2016.58590        13.39672         6.52716
     2016.58863         9.92210        11.27356
     2016.59137         6.91649        11.52632
     2016.59411        17.73188        11.62468
     2016.59685        21.01626        11.87058
     2016.59958        15.04965        11.68530
     2016.60232        25.80204        11.63498
     2016.60506         9.27742        11.56292
     2016.60780        13.15581        11.63955
     2016.61054        19.86020        11.35820
     2016.61327        13.14758        11.90718
     2016.61601        17.01797        11.72533
     2016.61875        34.34536        11.55377
     2016.62149        24.93575        11.35477
     2016.62423        14.83513        11.18321
     2016.62696        25.83752        11.57436
     2016.62970        29.59091        11.23811
     2016.63244        27.58629        11.35820
     2016.63518        22.04968        11.16377
     2016.63791        20.15307        11.16262
     2016.64065        -0.11955        11.03453
     2016.64339        18.11684        11.22553
     2016.64613         9.38423        11.30216
     2016.64887        19.54461        11.42453
     2016.65183         8.90595        12.89535
     2016.65434        11.15639        11.43712
     2016.65708        18.54178        11.41081
     2016.65982        16.69916        11.61096
     2016.66256         0.14355        11.42568
     2016.66529        12.70094        11.67729
     2016.66803         9.56932        11.46342
     2016.67077        10.31271        11.42911
     2016.67351        15.18510        11.56178
     2016.67624        12.83448        11.38107
     2016.67898        23.28387        11.49430
     2016.68172        16.54026        11.45770
     2016.68446        18.91864        11.36049
     2016.68720        20.19703        12.12906
     2016.68993        25.14842        11.77794
     2016.69267        20.40080        11.48858
     2016.69541        33.77919        11.59952
     2016.69815        22.52558        11.22782
     2016.70066        19.27102        13.22817
     2016.70362        13.45635        11.18092
     2016.70636        15.46574        12.72837
     2016.70910        22.37913        12.72036
     2016.71184        29.80851        11.48515
     2016.71457        25.59490        11.49544
     2016.71731        19.80029        11.65099
     2016.72005        21.06967        11.14204
     2016.72279        26.21806        11.34791
     2016.72553        22.18045        12.16566
     2016.72826        22.58183        12.07759
     2016.73100         6.79022        11.51946
     2016.73374         3.14361        11.34333
     2016.73648        28.46600        11.14661
     2016.73921         6.51038        11.57779
     2016.74195        23.09177        11.29072
     2016.74469        27.40816        11.45427
     2016.74743        22.18554        11.28615
     2016.75017        10.92393        11.14318
     2016.75290        21.08132        11.16491
     2016.75564        25.32270        11.27471
     2016.75838        23.45109        11.31131
     2016.76112        18.34748        11.35362
     2016.76386        20.61086        11.20265
     2016.76659        29.37025        11.41424
     2016.76933        11.02964        11.52404
     2016.77207        16.43602        11.43483
     2016.77481        15.34041        11.34791
     2016.77754        16.91580        11.19007
     2016.78028        12.11519        11.46113
     2016.78302        11.04857        11.70246
     2016.78576        18.09796        11.35820
     2016.78850        25.60235        11.35248
     2016.79123        17.62873        11.60638
     2016.79397        25.55012        11.36277
     2016.79671        11.97051        11.23697
     2016.79945        14.58589        11.65671
     2016.80219        15.89528        11.79967
     2016.80492        19.21367        11.50917
     2016.80766        19.71905        11.71504
     2016.81040        13.16044        11.35820
     2016.81314        17.01383        11.64870
     2016.81587         3.88122        11.35477
     2016.81861         4.44960         8.50235
     2016.82135        -0.88001         6.08455
     2016.82409         2.59938         6.05481
     2016.82683         2.65876         6.00220
     2016.82956         5.33915         5.95988
     2016.83230        11.75954         6.06853
     2016.83401        -0.08285        11.89689
     2016.83888        -8.17694        13.16526
     2016.84052         0.24970         6.11543
     2016.84325        -1.57392         6.10056
     2016.84599         0.05747         6.16346
     2016.84873         5.37486         6.24466
     2016.85147        -1.02676         6.21607
     2016.85420         4.78463         6.08226
     2016.85694         3.01702         6.16689
     2016.85968        -1.35159         6.23552
     2016.86242         5.80479         6.16346
     2016.86516         6.85518         6.34074
     2016.86789        -1.75743         6.21722
     2016.87063         3.07795         6.08111
     2016.87337         5.89234         6.14402
     2016.87611         4.40173         6.00677
     2016.87885         5.00011         6.06853
     2016.88158        -5.34250         6.11543
     2016.88432         6.48089         6.05138
     2016.88706         1.59327         6.16117
     2016.88980         2.78866         6.12229
     2016.89253         3.35905         6.10628
     2016.89527         3.61244         6.10628
     2016.89801         1.15382         6.11543
     2016.90075        -1.55179         6.13487
     2016.90349         0.87260         6.25725
     2016.90622         4.99198         6.22980
     2016.90896         4.52237         6.10742
     2016.91170         8.99576         6.06053
     2016.91444         0.30214         6.16689
     2016.91718        -1.76647         6.26296
     2016.91991        -4.31608         6.19892
     2016.92265         2.20430         6.10971
     2016.92539        -0.86931         6.05023
     2016.92813         0.86708         6.00220
     2016.93086         4.52646         6.03765
     2016.93360         5.86285         6.05595
     2016.93634         0.46824         6.06053
     2016.93908        -0.51037         6.13601
     2016.94182         7.15701         6.08912
     2016.94455        -1.05160         6.18977
     2016.94729         4.83579         6.07997
     2016.95003         6.46917         7.23626
     2016.95368         6.16536        10.11842
     2016.95551         0.51695         6.02393
     2016.95824         5.90633         6.01821
     2016.96098         4.07672         6.01821
     2016.96351         1.61115         6.63124
     2016.96919        -1.04212         6.15546
     2016.97193        -2.54473         6.09941
     2016.97467         4.02666         6.05138
     2016.97741         3.38404         6.11886
     2016.98015       -12.37557         6.08683
     2016.98288         4.82782         6.07311
     2016.98562         7.41320         6.05710
     2016.98836        10.02559         6.09941
     2016.99218         9.46673        12.63801
     2016.99384         0.41336         6.70672
     2016.99657         2.91975         6.04108
     2016.99931        -2.16886         6.07311
     2017.00205        -0.68848         6.04108
     2017.00479         3.54891         6.01935
     2017.00752         0.04330         6.02622
     2017.01300        10.06407         6.88972
     2017.01574         4.30846         6.02507
     2017.01848         2.01285         6.10513
     2017.02121         7.73723         6.02736
     2017.02395        -0.09238         6.03079
     2017.02669         2.68501         6.06510
     2017.02943        10.21839         6.01249
     2017.03216         1.18678         6.00449
     2017.03490         0.51817         6.10856
     2017.03764        -0.84445         6.05481
     2017.04038         0.08494         6.05824
     2017.04312        -1.29867         6.02850
     2017.04585         2.06771         6.31329
     2017.04859         7.06610         6.47684
     2017.05133         8.70449         6.08569
     2017.05407         8.34788         6.04223
     2017.05681        12.18826         6.03880
     2017.05954        -5.19735         6.06739
     2017.06228         5.30304         6.03079
     2017.06502        -1.02558         6.04337
     2017.06776        -5.93519         6.04452
     2017.07049        -0.76180         6.04337
     2017.07323        -4.23142         6.09255
     2017.07597       -11.18803         6.10513
     2017.07871        -1.66164         6.20807
     2017.08145        -8.63826         6.05481
     2017.08418        -5.38187         6.08912
     2017.08692        -2.45148         6.05824
     2017.08966        -1.43310         6.05938
     2017.09240         1.31529         6.03308
     2017.09514         5.66868         6.21035
     2017.09787         9.76507         6.00563
     2017.10061        11.75545         6.04680
     2017.10335        11.52884         6.12343
     2017.10609         8.38823         5.97132
     2017.10882        10.56461         6.17375
     2017.11156        -6.47600         8.56182
     2017.11430        -3.79061         6.03422
     2017.11704       -10.12823         6.07082
     2017.11978       -13.97084         5.98962
     2017.12251        -3.86845         6.04108
     2017.12525        -6.70207         6.09827
     2017.12799         4.34032         6.10284
     2017.13073         7.09671         6.02278
     2017.13347         4.33310         6.02622
     2017.13620         5.01548         6.06625
     2017.13894        -0.04713         6.08569
     2017.14168        -7.52374         6.05938
     2017.14442        -0.68136         6.08111
     2017.14715        -3.51397         6.07883
     2017.14989        -4.90658         6.18176
     2017.15263        -0.48720         6.03765
     2017.15537        -0.80381         6.07082
     2017.15811         7.70058         6.18862
     2017.16084        -3.33904         6.01935
     2017.16358       -11.49065         6.09713
     2017.16632        -5.93926         6.10971
     2017.16906        -5.52188         6.07311
     2017.17180        -4.76949         6.05710
     2017.17453        -0.24510         6.03193
     2017.17727       -10.80671         6.13716
     2017.18001        -0.93833         6.10742
     2017.18275       -19.48994         6.17490
     2017.18548       -15.18355         6.08569
     2017.18822       -12.80817         6.11199
     2017.19096        -9.31678         6.12801
     2017.19370        -6.31139         6.09026
     2017.19644        -9.55701         6.05710
     2017.19917       -11.44162         6.07425
     2017.20191        -8.36923         6.06968
     2017.20465        -5.14385         6.29041
     2017.20739        -5.27246         6.08683
     2017.21013        -3.92707         6.11085
     2017.21286        -1.85568         6.05252
     2017.21560         0.28170         6.08226
     2017.21834        -5.33591         6.03880
     2017.22108         1.02248         6.11543
     2017.22381        -5.92414         6.20692
     2017.22655        -1.76375         6.21950
     2017.22929        -6.57936         6.09713
     2017.23203       -11.45398         6.09598
     2017.23477        -5.57459         6.09255
     2017.23750       -12.44220         6.07311
     2017.24024       -10.56582         6.11199
     2017.24298       -12.60043         6.05138
     2017.24572       -11.14204         6.05023
     2017.24846       -16.54166         6.07768
     2017.25119       -10.59727         6.12572
     2017.25393       -19.76388         6.07425
     2017.25667       -10.12949         6.01707
     2017.25941       -13.35511         6.10856
     2017.26214        -9.09272         6.12458
     2017.26488        -1.96233         6.12229
     2017.26762        -1.84095         6.01592
     2017.27036        -9.61556         6.04566
     2017.27310       -10.11017         6.19777
     2017.27583       -11.23779         6.03537
     2017.27857       -13.34540         6.09941
     2017.28131       -10.92001         6.05710
     2017.28405       -16.54163         6.07196
     2017.28679       -19.41224         6.06396
     2017.28952       -11.52985         6.07768
     2017.29226        -8.50546         6.09369
     2017.29500        -8.73308         6.05252
     2017.29774       -14.71769         6.11543
     2017.30047       -15.44430         6.07425
     2017.30321       -12.01292         6.03308
     2017.30595       -13.01453         6.12458
     2017.30869       -10.82114         6.06739
     2017.31143        -9.09676         6.08226
     2017.31416        -7.61537         6.05824
     2017.31690       -11.54398         6.06510
     2017.31964        -9.98860         6.17375
     2017.32238        -8.99121         6.14516
     2017.32512       -15.39082         6.03079
     2017.32785       -10.23044         6.19663
     2017.33059       -17.69305         6.07540
     2017.33333       -19.09866         6.09484
     2017.33607       -15.99627         6.02050
     2017.33880       -22.41189         6.04452
     2017.34154        -9.18750         6.54203
     2017.34428       -11.53411         6.20578
     2017.34702        -6.09373         6.06739
     2017.34976        -6.83834         6.10856
     2017.35249        -9.86095         6.03880
     2017.35523       -12.47057         6.04108
     2017.35763        -8.28610         6.97092
     2017.36071       -16.34579         6.09598
     2017.36344        -9.66841         6.07196
     2017.36618       -18.81402         6.09026
     2017.36892        -8.52463         6.04566
     2017.37166        -9.46124         6.07997
     2017.37440        -9.64986         6.07883
     2017.37713        -9.18347         6.14516
     2017.37987       -18.38008         6.22408
     2017.38261        -6.38770         6.13487
     2017.38535       -11.44231         6.00563
     2017.38809        -8.17292         6.05481
     2017.39082       -11.07954         6.13830
     2017.39356        -3.22415         6.32015
     2017.39630        -3.62476         6.07311
     2017.39904        -6.04038         6.06625
