# ================= DQRFIT RESULTS ================
# INPUT FILE: series/DCSO.rad
# OUTPUT: LDETRENDED
# FILTER FUNCTION: f(t)
# f(t)=+line(t)+annual(t)
# line(t)=+P 1+P 2*t
# annual(t)=+P 3*sin(2*pi*t+P 4)
# heav(t)=(t<0?0:1)
# TOTAL OBSERVATIONS MTOT= 4043
# INITIAL TIME INTERVAL= 2016.2599 - 2005.0552 = 11.2047
# TOTAL OBSERVATIONS AFTER PREFILTER M= 4038
# TIME-SPAN= 2016.2599 - 2005.0552 = 11.2047
# OBSERVATIONS: USED M=  4038 REJECTED MTOT-M=     5 %USED=   99.8763
# N=  4 PARAMETERS
# MAXSIG= 175.00000
# MAXRES=  23.69413
# SCALE FACTOR FOR LENGTHS: SCL=  10.00000
# SCALE FACTOR FOR SIGMAS: SCLSIG=   1.00000
# CHI^2=   3273.742 DOF=  4034 CHI^2/DOF=   0.81154
# RMS=      5.145 SDEV=      5.145 MEAN=    0.04762
#  P #       PARAMETER +-    SIGMA %error PARAMETER NAME
# P 1 =       978.46679 +-   50.512   5.16 YZERO                              
# P 2 =        -0.48468 +-    0.025   5.18 SLOPE                              
# P 3 =         4.87989 +-    0.113   2.33 ANNUAL AMPLITUDE                   
# P 4 =        -2.67661 +-    0.029   1.10 ANNUAL PHASE                       
#       T            LDETRENDED       SIG_OBS
     2005.05515        -3.74208        11.48408
     2005.05681       -22.64628         5.18081
     2005.05954       -12.57795         5.31864
     2005.06228       -10.83862         5.33486
     2005.06502       -18.59530         5.27630
     2005.06776       -20.01497         5.22495
     2005.07049        -8.06964         5.26189
     2005.07323       -14.15832         5.16910
     2005.07597        -2.32099         5.37629
     2005.07871        -6.10566         5.09343
     2005.08145       -11.07434         5.06730
     2005.08418       -13.88801         5.26909
     2005.08692        -9.93568         5.16459
     2005.08966       -13.68736         5.08622
     2005.09240       -14.25503         5.11595
     2005.09514       -13.50770         5.06730
     2005.09787       -17.06637         5.10063
     2005.10061       -11.35405         5.08712
     2005.10335        -7.29772         5.06010
     2005.10609        -0.55339         5.12766
     2005.10882        -2.07307         5.13036
     2005.11156        -9.57274         5.06640
     2005.11430        -8.29341         5.03577
     2005.11704        -4.57909         5.07000
     2005.11978        -5.58776         5.13487
     2005.12251        -6.12743         5.05199
     2005.12525        -4.33810         5.06100
     2005.12799        -7.29278         5.03487
     2005.13073        -6.29045         5.12676
     2005.13347        -4.31312         5.12586
     2005.13620         1.69620         5.14207
     2005.13894        -6.72547         5.08802
     2005.14168        -2.69214         5.06910
     2005.14442       -11.04782         5.02676
     2005.14715       -11.75149         5.12586
     2005.14989        -9.98516         5.21684
     2005.15263        -6.42883         5.16279
     2005.15537        -2.65151         5.15108
     2005.15811         2.22682         5.18802
     2005.16084         3.39415         5.18621
     2005.16358        -1.57653         5.16730
     2005.16632         6.86480         5.22315
     2005.16906        -6.45187         5.14117
     2005.17180         2.61445         5.15559
     2005.17453         0.56378         5.10514
     2005.17727        -9.73689         5.17360
     2005.18001        -3.77257         5.14748
     2005.18275        -8.07324         5.16910
     2005.18548        -6.97491         5.25558
     2005.18822        -1.34958         5.08892
     2005.19096        -2.96126         5.10424
     2005.19370         0.66707         5.22495
     2005.19644        -4.13760         5.17811
     2005.19917         0.16372         5.15198
     2005.20191         3.50705         5.24837
     2005.20465        10.44938         5.25828
     2005.20739         2.85270         5.17360
     2005.21013        -7.15497         5.14658
     2005.21286         0.82536         5.13667
     2005.21560        -0.20531         5.24207
     2005.21834        -0.99399         5.17721
     2005.22108         7.95534         5.16009
     2005.22381         4.86567         5.26189
     2005.22655         5.52799         5.20874
     2005.22929        -4.77968         5.20063
     2005.23203         2.82265         5.14568
     2005.23477         2.73497         5.15378
     2005.23750         4.76830         5.19793
     2005.24024         4.17363         5.34476
     2005.24298        -6.35204         5.18892
     2005.24572        -2.87572         5.29792
     2005.24846         8.90261         5.26279
     2005.25119        -2.62006         5.15919
     2005.25393        10.05426         5.35287
     2005.25667         9.63359         5.51142
     2005.25941         8.30492         5.26729
     2005.26214         1.68624         5.26099
     2005.26488        13.21757         5.22045
     2005.26762         5.63690         5.23937
     2005.27036         0.61123         5.27180
     2005.27310        -0.20345         5.28171
     2005.27583        -1.74612         5.34567
     2005.27857         1.66621         5.27810
     2005.28131         8.26953         5.27810
     2005.28405         0.24986         5.37629
     2005.28679         0.66419         5.29792
     2005.28952         5.86151         5.23216
     2005.29226        -2.92816         5.27360
     2005.29500         6.00217         5.14117
     2005.29774         4.39449         5.13577
     2005.30047        -0.42418         5.17450
     2005.30321         2.21215         5.24207
     2005.30595        -0.95552         5.18621
     2005.30869         4.85380         5.15829
     2005.31143         3.53613         5.18892
     2005.31416        -0.05254         5.14478
     2005.31690         0.15878         5.20423
     2005.31964        -1.89789         5.30242
     2005.32238         5.72744         5.31233
     2005.32512         8.36176         5.14387
     2005.32785         5.89809         5.16550
     2005.33059         8.65042         5.13757
     2005.33333        10.03275         5.14027
     2005.33607         5.86707         5.47809
     2005.33880         2.69240         5.29071
     2005.34154        -0.36527         5.18531
     2005.34428         5.52305         5.12225
     2005.34702         9.76338         5.18171
     2005.34976         7.15971         5.23666
     2005.35249         3.98203         5.15198
     2005.35523         2.40936         5.27720
     2005.35797         1.42969         5.31954
     2005.36071        -9.42198         5.32405
     2005.36344         5.40034         5.38801
     2005.36618         4.12967         5.34296
     2005.36892         0.36000         5.62043
     2005.37166        10.22332         5.34567
     2005.37440         8.66465         5.40332
     2005.37713         5.79098         5.64295
     2005.37987         6.04330         5.43305
     2005.38261         0.41263         5.35287
     2005.38535        -0.51404         5.33305
     2005.38809        -4.91172         5.63394
     2005.39082        -3.37439         5.30693
     2005.39356        -2.15406         5.29252
     2005.39630        -2.45873         5.27900
     2005.39904        -2.12641         5.26729
     2005.40177        -4.09108         5.26369
     2005.40451         9.25425         5.55827
     2005.40725         3.87157         5.48350
     2005.40999         5.67490         5.30513
     2005.41273         0.96723         5.30152
     2005.41546        -4.84445         5.19522
     2005.41820        -0.25812         5.17811
     2005.42094        -1.49879         5.18261
     2005.42368        -1.57646         5.25198
     2005.42642         8.42686         5.21504
     2005.42915         1.24319         5.21504
     2005.43189        -0.78648         5.19612
     2005.43463        -6.76016         5.18441
     2005.43737         5.88617         5.34657
     2005.44010        -1.39050         5.33486
     2005.44284         7.70082         5.34026
     2005.44558         0.90815         5.37269
     2005.44832        -0.27652         5.38080
     2005.45106         1.68381         5.20964
     2005.45379        -0.07287         5.21504
     2005.45653        -6.10754         5.40512
     2005.45927         0.07079         5.29432
     2005.46201        -3.36189         5.22585
     2005.46475        -1.31056         5.17180
     2005.46748         0.65077         5.27900
     2005.47022         2.73709         5.28801
     2005.47296        -0.09458         5.18171
     2005.47553        -1.02233         5.61953
     2005.47952         9.97860        11.86695
     2005.48117         4.36740         5.24927
     2005.48391         3.18773         5.23486
     2005.48665        -1.61294         5.36278
     2005.48939         0.42638         5.13847
     2005.49212        -0.39529         5.18802
     2005.49486         0.65604         5.17270
     2005.49760         4.07536         5.15288
     2005.50034         4.98169         5.23666
     2005.50308        -2.34398         5.14117
     2005.50581         0.40634         5.22675
     2005.50855         7.16767         5.24117
     2005.51129         9.26800         5.21234
     2005.51403        -0.57967         5.24477
     2005.51676         2.08865         5.29432
     2005.51950        -0.90202         5.22855
     2005.52224         1.48531         5.30152
     2005.52498        -1.58937         5.15018
     2005.52772        -0.38604         5.18621
     2005.53045         5.37529         5.15378
     2005.53319         3.74261         5.21594
     2005.53593         9.94194         5.18892
     2005.53867         4.42427         5.31774
     2005.54141         7.60760         5.16189
     2005.54414         8.64692         5.20693
     2005.54682         9.17922         5.33936
     2005.54962         9.30058         5.17450
     2005.55236         7.54390         5.22855
     2005.55509        10.36823         5.36278
     2005.55783         4.68156         5.17631
     2005.56057        10.81888         5.31414
     2005.56331         7.79521         5.34206
     2005.56605         8.28754         5.46998
     2005.56878        11.99086         5.46548
     2005.57152         9.72119         5.47899
     2005.57426         6.35952         5.33936
     2005.57700        12.85585         5.38080
     2005.57974         8.11117         5.36008
     2005.58247         9.89050         5.67988
     2005.58521         2.44083         5.36999
     2005.58795        11.26415         5.15018
     2005.62462         2.35493        14.41726
     2005.62628         8.72873         5.43755
     2005.62902        10.78606         5.27450
     2005.63175        11.48339         5.23576
     2005.63415         9.63455         6.01770
     2005.64089         7.81181         9.60310
     2005.64271        12.98669         5.32405
     2005.64544         3.03702         5.18802
     2005.64818        10.92235         5.21955
     2005.65092        11.95967         5.24027
     2005.65366         9.20700         5.21144
     2005.65639        13.68933         5.20693
     2005.65913         9.37965         5.25378
     2005.66187        11.51398         5.17991
     2005.66461         4.39431         5.17180
     2005.66735        15.84864         5.18982
     2005.67008        14.49896         5.17090
     2005.67282        19.19629         5.19522
     2005.67556         8.05862         5.28441
     2005.67830        10.26994         5.17811
     2005.68104         5.58327         5.14387
     2005.68377         8.50860         5.23666
     2005.68651        13.91192         5.26909
     2005.68925         3.89325         5.43845
     2005.69199         4.25458         5.44206
     2005.69472        -0.61909         5.30152
     2005.69746        -1.51677         5.26008
     2005.70020         6.19656         5.37359
     2005.70294        10.55189         5.40873
     2005.70568         9.08921         5.39431
     2005.70841        10.56354         5.40332
     2005.71115         7.24787         5.17000
     2005.71389         0.18719         5.11144
     2005.71663         4.08352         5.34657
     2005.71937         9.30185         5.22495
     2005.72210        11.29718         5.39251
     2005.72484         3.72150         5.19252
     2005.72758         7.22783         5.22946
     2005.73032        -1.31984         5.27810
     2005.73305         6.78448         5.26909
     2005.73579        13.80681         5.32314
     2005.73853        12.43414         5.36188
     2005.74127         4.92946         5.27540
     2005.74401        10.12679         5.24117
     2005.74674        15.97812         5.31053
     2005.74948        19.35045         5.41323
     2005.75222         0.28877         5.28891
     2005.75496         7.53010         5.28621
     2005.75770         4.01643         5.28891
     2005.76043         6.75075         5.24657
     2005.76317         6.24108         5.25378
     2005.76591        14.22641         5.28891
     2005.76865        10.88273         5.15559
     2005.77138         4.77006         5.20874
     2005.77412        -0.70761         5.22405
     2005.77686        13.01171         5.31414
     2005.77960         3.10604         5.25828
     2005.78234         7.19237         5.39792
     2005.78507         4.90570         5.24207
     2005.78781         7.88102         5.30513
     2005.79055         6.07835         5.21684
     2005.79329         3.96968         5.15829
     2005.79603        11.15700         5.31774
     2005.79876        15.07233         5.38260
     2005.80150         3.94966         5.26099
     2005.80424         6.21698         5.19973
     2005.80698         2.59931         5.17270
     2005.80971         6.06864         5.21594
     2005.81245        13.45997         5.15468
     2005.81519         6.67129         5.24567
     2005.81793         9.70562         5.28801
     2005.82067         4.77195         5.18351
     2005.82340        16.76227         5.29612
     2005.82614        10.12360         5.16730
     2005.82888        11.67093         5.14478
     2005.83162         2.24625         5.37359
     2005.83436         3.44458         5.39251
     2005.83709         7.29591         5.29071
     2005.83983         9.36424         5.35738
     2005.84257        19.28556         5.45107
     2005.84531         5.12089         5.49611
     2005.84804         6.66622         5.49701
     2005.85078         5.61754         5.38530
     2005.85352        -0.36613         5.34296
     2005.86173        -0.55515         5.39431
     2005.86447         8.33018         5.31864
     2005.86721         4.62950         5.24387
     2005.86995         0.43483         5.30062
     2005.87269        -6.37784         5.22495
     2005.87542        -2.53851         5.21414
     2005.87816        -1.26019         5.20964
     2005.88090        -0.74686         5.17090
     2005.88364        -0.95253         5.12586
     2005.88637        -2.15121         5.22225
     2005.88911         0.63312         5.32224
     2005.89179         3.06942         5.41053
     2005.91102         1.59874         5.27089
     2005.91375        -0.49694         5.17270
     2005.91649        -0.95661         5.26819
     2005.91923        -6.00928         5.29882
     2005.92197        -2.04796         5.17000
     2005.92470       -14.02563         5.10514
     2005.92744       -12.46930         5.13667
     2005.92995       -14.11509         5.50422
     2005.93292        -1.80165         5.25378
     2005.93566       -11.49032         5.16550
     2005.93839        -3.52599         5.19612
     2005.94113        -7.07667         5.13757
     2005.94387         1.05466         5.14928
     2005.94661        -3.32301         5.14568
     2005.94935        -4.49369         5.11775
     2005.95208        -7.06036         5.18441
     2005.95482       -12.47803         5.27360
     2005.95756        -0.55871         5.13757
     2005.96030        -0.81938         5.09523
     2005.96303        -3.94405         5.16459
     2005.96577        -0.63272         5.48800
     2005.96851       -10.44940         5.50061
     2005.97125       -10.57207         5.24297
     2005.97399        -5.24174         5.34567
     2005.97672       -14.15742         5.40152
     2005.97946        -8.22809         5.32765
     2005.98220        -0.43976         5.45827
     2005.98494        -1.24944         5.33035
     2005.98767        -0.66011         5.23486
     2005.99041        -3.94978         5.23306
     2005.99315       -10.14345         5.22675
     2005.99583        -4.08316         5.36458
     2005.99863         8.76120         5.32314
     2006.00410        -3.09415         5.24387
     2006.00684       -17.50382         5.52313
     2006.00958       -18.33449         5.34026
     2006.01232       -14.49317         5.37089
     2006.01505       -15.36484         5.41233
     2006.01779        -5.16451         6.09247
     2006.02053        -2.75718         5.34296
     2006.02327        -1.92186         5.48800
     2006.02600        -8.58453         5.43935
     2006.02874        -9.09120         6.00419
     2006.03148         0.97612         5.29612
     2006.03422        -3.23355         5.22855
     2006.03696        -5.38522         5.18712
     2006.03969        -6.24090         5.26909
     2006.04243       -10.88457         5.32585
     2006.04517        -4.68724         5.34567
     2006.04791        -1.04692         5.17721
     2006.05065        -4.95459         5.17450
     2006.05338        -6.91426         5.24927
     2006.05612       -10.81493         5.08622
     2006.05886       -10.79161         5.15018
     2006.06160       -14.57628         5.06010
     2006.06433        -3.53395         5.20784
     2006.06707       -11.57163         4.99613
     2006.06981       -11.77030         5.00244
     2006.07255       -12.97597         5.06010
     2006.07529       -10.08865         5.12946
     2006.07802       -14.42432         5.06550
     2006.08076        -3.85799         5.06910
     2006.08350       -15.87766         5.05919
     2006.08624        -6.97334         5.07631
     2006.08898        -4.53001         5.02316
     2006.09171        -5.60668         5.02406
     2006.09445         0.25664         5.76276
     2006.09747       -11.87889         5.62763
     2006.09993       -18.90570         5.07000
     2006.10266       -19.57938         5.02496
     2006.10540       -20.18305         5.03667
     2006.10814        -5.84272         5.11775
     2006.11088       -17.50839         5.20243
     2006.11362       -17.25207         5.12045
     2006.11635        -8.61574         5.04928
     2006.11909        -9.60141         5.14387
     2006.12183        -7.12709         5.04928
     2006.12457        -7.13876         5.07991
     2006.12731       -13.42243         5.11144
     2006.13004        -6.46111         5.11955
     2006.13278        -5.08778         5.11234
     2006.13552        -2.63845         5.05649
     2006.13826         0.64087         5.12676
     2006.14099         1.21620         5.06100
     2006.14373        -7.33847         5.06550
     2006.14647        -3.49914         5.11775
     2006.14921        -2.95382         5.05559
     2006.15195        -5.32349         5.05559
     2006.15468        -2.74216         5.05019
     2006.15742         0.65916         5.15559
     2006.16016         3.43549         5.15108
     2006.16290        -7.76518         5.24027
     2006.16564        -6.41286         5.15198
     2006.16837        -0.18153         5.22765
     2006.17111       -10.04420         5.03307
     2006.17385        -0.52887         5.10334
     2006.17659        -9.81955         5.17360
     2006.17932         1.26078         5.12586
     2006.18206        -3.31789         5.09523
     2006.18480        -5.93257         5.12766
     2006.18754       -10.96624         5.15198
     2006.19028         2.17009         5.14297
     2006.19301        -2.18859         5.17000
     2006.19575        -1.97826         5.20603
     2006.19849        -1.19293         5.23756
     2006.20123        -7.55260         5.18982
     2006.20397       -12.08328         5.36278
     2006.20670        -6.11795         5.39161
     2006.20944        -9.42862         5.23036
     2006.21218        -2.84330         5.22045
     2006.21492        -9.97197         5.20423
     2006.21765        -4.53564         5.24477
     2006.22039        -1.09532         5.21504
     2006.22313        -2.16499         5.32855
     2006.22587        -3.64166         5.41323
     2006.22861        -2.42433         5.34567
     2006.23134        -5.84201         5.27180
     2006.23408        -2.22768         5.27270
     2006.23682        -0.66535         5.15829
     2006.23956        -0.60403         5.04748
     2006.24230        -3.68770         5.05829
     2006.24503        -8.63337         5.04388
     2006.24777        -6.74405         5.09613
     2006.25051        -3.91072         5.04658
     2006.25325         2.75061         5.14568
     2006.25598        -5.30007         5.12856
     2006.25872        -0.71174         5.11234
     2006.26146        -7.09041         5.27990
     2006.26420         0.68392         5.35377
     2006.26694         2.42524         5.22045
     2006.26967        -3.44143         5.11775
     2006.27241         1.12690         5.14297
     2006.27515         2.80222         5.24657
     2006.27789        -0.74445         5.27900
     2006.28062         2.85988         5.15288
     2006.28336         2.89520         5.22765
     2006.28610         7.11253         5.12766
     2006.28884         2.52886         5.13397
     2006.29158        -3.62581         5.14207
     2006.29431        -6.88349         5.10694
     2006.29705        -2.93816         5.09343
     2006.29979        10.87417         5.21504
     2006.30253         1.61449         5.10694
     2006.30527         4.59882         5.09793
     2006.30800         0.16615         5.72853
     2006.31074        -0.23453         5.11955
     2006.31348         1.53380         5.23576
     2006.31622         3.72713         5.10063
     2006.32169        -1.22222         5.16640
     2006.32443        -0.36089         6.39696
     2006.32717         1.51644         5.15468
     2006.32991        -0.71724         5.12586
     2006.33264         1.55009         5.11955
     2006.33538         5.48642         5.10694
     2006.33812         5.05574         5.12135
     2006.34086         1.82507         5.12406
     2006.34360         4.22640         5.14387
     2006.34633        10.67772         5.23126
     2006.34907        -2.55095         5.14568
     2006.35181         2.98738         5.20063
     2006.35728         0.84303         5.18441
     2006.36002         2.13236         5.35918
     2006.36276        -0.29831         5.18171
     2006.36550        -4.54499         5.10604
     2006.36824        -3.02166         5.24117
     2006.37097        -1.38633         5.28711
     2006.37371         2.46899         5.23396
     2006.37645         1.32832         5.27180
     2006.37919         2.66065         5.30242
     2006.38193         3.53698         5.45467
     2006.38466        15.74930         5.43485
     2006.38740         5.62263         5.38170
     2006.39014        -3.84704         5.27990
     2006.39288         3.36528         5.28351
     2006.39561        -5.85039         5.37629
     2006.39835         4.53594         5.40692
     2006.40109        -5.20774         5.27270
     2006.40383        -3.42541         5.26459
     2006.40657         2.42592         5.28981
     2006.40930        -6.09975         5.28261
     2006.41204         2.00757         5.31143
     2006.41478        -1.11310         5.35017
     2006.41752        -5.75677         5.56277
     2006.42026         5.56155         5.44116
     2006.42299         4.02988         5.54205
     2006.42573         6.68821         5.38170
     2006.42847         7.16053         5.36278
     2006.43121         2.64286         5.32945
     2006.43394         5.06419         5.21054
     2006.43668        -0.00349         5.23306
     2006.43942        -4.56216         5.39701
     2006.44216         8.54217         5.24207
     2006.44490         9.63450         5.37179
     2006.44763         4.40982         5.22765
     2006.45037         4.68615         5.25738
     2006.45311        -0.22352         5.23666
     2006.45585         3.90380         5.32765
     2006.45859         6.39113         5.25648
     2006.46132         1.34346         5.34927
     2006.46406         4.54378         5.31324
     2006.46680         5.49811         5.41863
     2006.46954        -3.27856         5.42584
     2006.47227         6.41077         5.34837
     2006.47501         5.08609         5.35558
     2006.47775         4.82042         5.29972
     2006.48049        -4.09425         5.34026
     2006.48323         1.84607         5.42494
     2006.48596        10.74440         5.40062
     2006.48870         9.97273         5.39161
     2006.49144        17.16505         5.39251
     2006.49418         3.68238         5.36729
     2006.49692         6.91771         6.28616
     2006.49965         4.56704         5.34116
     2006.50239         8.26836         5.29792
     2006.50513         2.69769         5.45827
     2006.50787         5.38002         5.28080
     2006.51060         5.35434         5.31143
     2006.51334        -3.47233         5.33395
     2006.51608        -1.64700         5.35017
     2006.51882         7.53432         5.38801
     2006.52156         5.86565         5.31233
     2006.52429         4.65998         6.53299
     2006.52703         7.96330         5.33756
     2006.52977         8.95063         5.33936
     2006.53251         2.13996         5.33215
     2006.53525         7.24029         5.30693
     2006.53798         4.52761         5.33666
     2006.54072         3.31094         5.39882
     2006.54346        12.27527         5.17270
     2006.54622         5.00360         5.18441
     2006.54893         7.57692         5.16730
     2006.55167         5.97325         5.18081
     2006.55441        13.10357         5.22495
     2006.55715         5.73690         5.15288
     2006.55989         5.08923         5.16189
     2006.56262         7.98456         5.28981
     2006.56536         6.38288         5.17090
     2006.56810         7.93821         5.20153
     2006.57084         5.58454         5.20153
     2006.57357        11.38686         5.23036
     2006.57631         5.62219         5.18441
     2006.57905         9.48452         5.16279
     2006.58179         8.23084         5.14838
     2006.58451         3.28516         5.32495
     2006.58726         3.23150         5.26729
     2006.59000         9.76783         5.48079
     2006.59274         7.88215         5.42314
     2006.59548         3.84948         5.31954
     2006.59822         4.77781         5.52944
     2006.60095         2.45613         5.23756
     2006.60363         2.47143         5.44206
     2006.60649         3.91781         5.44116
     2006.60917         7.48411         5.23666
     2006.61190         5.05244         5.18892
     2006.61464         9.04777         5.17450
     2006.61738        14.44909         5.15468
     2006.62012         8.72442         5.22405
     2006.62286         9.81675         5.21684
     2006.62559         2.48908         5.18531
     2006.62833         4.73740         5.39972
     2006.63107         5.30273         5.12315
     2006.63381        11.94106         5.13487
     2006.63655         5.36038         5.26729
     2006.63928         8.35171         5.28441
     2006.64202         6.10804         5.27270
     2006.64476         8.34436         5.21684
     2006.64750        12.50269         5.41593
     2006.65023        10.33102         5.47269
     2006.65297         8.99135         5.53034
     2006.65571        12.04167         5.54566
     2006.65725        11.04142        17.20360
     2006.66119         7.88733         5.48169
     2006.66392         7.82365         5.48890
     2006.66666         3.96598         5.45557
     2006.66940         8.27731         5.46368
     2006.67214        14.47563         5.53485
     2006.67488         2.71296         5.56818
     2006.67761        -0.48971         5.61502
     2006.68035         7.72462         5.48620
     2006.68309        12.15494         5.67087
     2006.68583        13.86527         5.70601
     2006.68856        14.88160         5.41773
     2006.69130         6.21592         5.34386
     2006.69404         7.62725         5.37810
     2006.69678         8.16958         5.36999
     2006.69952        16.28290         5.34026
     2006.70225         7.49823         5.59160
     2006.70499         6.08856         5.37179
     2006.70665        -8.89564        13.75694
     2006.71680        18.68728         8.53199
     2006.71868         3.95019         5.32224
     2006.72142        11.42452         5.43035
     2006.72416        12.95585         5.46998
     2006.72689         6.99817         5.44476
     2006.72963         9.53650         5.33576
     2006.73237         5.95383         5.25378
     2006.73511         4.16615         5.22495
     2006.73785         2.45048         5.28801
     2006.74058         9.43281         5.25558
     2006.74332        15.56414         5.32855
     2006.74606        10.82046         5.30783
     2006.74880        13.18779         5.32765
     2006.75154         4.85212         5.47719
     2006.75427        10.56344         5.46098
     2006.75701        16.82877         5.30333
     2006.75975         9.26910         5.29702
     2006.76249         6.61142         5.45287
     2006.76522        10.47975         5.37629
     2006.76796         8.43908         5.35648
     2006.77070        15.04541         5.31684
     2006.77344         7.68373         5.21865
     2006.77618        11.43406         5.23576
     2006.77891        11.18239         5.22225
     2006.78165        11.45271         5.16640
     2006.78439         8.52804         5.23036
     2006.78713         5.92037         5.58980
     2006.78987        12.08369         5.23756
     2006.79260        14.56802         5.23846
     2006.79534         2.28735         5.29071
     2006.79808         6.19168         5.25828
     2006.80082         8.28200         5.34747
     2006.80355         4.32133         5.22946
     2006.80629         4.52766         5.23846
     2006.80903         5.76898         5.23666
     2006.81177         5.99831         5.27270
     2006.81451         1.14064         5.37810
     2006.81724         2.20396         5.34116
     2006.81998         0.72329         5.16730
     2006.82272         2.83362         5.15739
     2006.82546         9.15594         5.26189
     2006.82820         4.12027         5.15559
     2006.83093         5.15060         5.19432
     2006.83367         8.37393         5.22225
     2006.83641         3.08625         5.33936
     2006.83915         8.40758         5.40782
     2006.84188         4.78491         5.46458
     2006.84462         0.94023         5.35107
     2006.84736        -3.58944         5.30333
     2006.85010         7.34489         5.45107
     2006.85284        12.01121         5.54656
     2006.85557        12.44454         5.47629
     2006.85831         0.52687         5.34386
     2006.86105        -0.70580         5.53124
     2006.86379        -1.48048         5.51413
     2006.86653         4.16985         5.60962
     2006.86926        10.31918         5.20874
     2006.87200         4.04550         5.22765
     2006.87474         0.42083         5.23306
     2006.87748         0.28616         5.15288
     2006.88021         2.07848         5.21144
     2006.88295        -2.51019         5.28261
     2006.88569        -1.20986         5.29071
     2006.88843         2.02847         5.16459
     2006.89117         0.93379         5.22045
     2006.89390        -5.83288         5.34567
     2006.89664         1.40845         5.32675
     2006.89938        -2.32723         5.23306
     2006.90212        -0.14890         5.27810
     2006.90485         4.70543         5.26729
     2006.90759       -19.88925         5.21234
     2006.91033         1.53508         5.18081
     2006.91307        -6.64959         5.31504
     2006.91581        -5.42027         5.21955
     2006.91854        -3.95794         5.17811
     2006.92128        -7.36961         5.16820
     2006.92402        -4.56228         5.23846
     2006.92676       -11.69196         5.26729
     2006.92950       -10.01763         5.32855
     2006.93223        -7.26430         5.24477
     2006.93497       -10.58498         5.37089
     2006.93771         2.25435         5.27089
     2006.94045         4.15868         5.41143
     2006.94307         2.04595         5.57088
     2006.94695        23.05183        12.41286
     2006.94866         7.29666         5.39521
     2006.95140        -0.27001         5.22315
     2006.95414         8.35131         5.45737
     2006.95687        -1.97736         5.28531
     2006.95961         0.07797         5.17360
     2006.96235         2.36129         5.18712
     2006.96509         2.69262         5.30423
     2006.96783        -1.59205         5.32585
     2006.97056         0.89527         5.36008
     2006.97330        -7.23640         5.25648
     2006.97604         3.63093         5.35017
     2006.97878        -3.93174         5.24297
     2006.98151        -0.27842         5.28621
     2006.98425        -6.78009         5.46638
     2006.98699        -0.51076         5.55376
     2006.98973       -11.80944         5.35377
     2006.99247        -8.00811         5.46548
     2006.99520        -8.63278         5.35828
     2006.99794        -3.95046         5.41233
     2007.00342         1.31920         5.46278
     2007.00616        -2.63148         5.33936
     2007.00889        -5.61515         5.25558
     2007.01163        -3.70782         5.22045
     2007.01437         1.25851         5.49160
     2007.01711       -14.13217         5.22225
     2007.01984       -12.77584         5.21504
     2007.02258        -8.36451         5.07541
     2007.02532        -1.15919         5.19973
     2007.02806       -17.90386         5.14928
     2007.03080        -7.27153         4.99704
     2007.03353       -11.19221         4.98262
     2007.03627        -9.81988         4.90875
     2007.03901        -6.25555         4.92136
     2007.04175       -10.88122         5.15919
     2007.04449       -17.80990         4.91326
     2007.04722       -10.59057         5.03757
     2007.04996       -10.44924         5.09343
     2007.05270        -5.94592         5.20243
     2007.05544        -6.60459         4.95560
     2007.05817        -9.80826         4.95560
     2007.06091       -15.31894         4.97812
     2007.06365        -8.13061         4.98172
     2007.06639       -10.85028         5.08172
     2007.06913        -4.30695         4.89524
     2007.07186         1.20837         4.90154
     2007.07460        -0.76330         4.89884
     2007.07734        -6.80797         4.92767
     2007.08008        -7.76865         4.93848
     2007.08282        -3.91432         4.89434
     2007.08555        -1.73599         5.01235
     2007.08829        -5.13067         4.99343
     2007.09126        -5.04623         5.51593
     2007.09377        -4.40501         4.94208
     2007.09650        -3.15369         4.97451
     2007.09924        -5.40036         4.95650
     2007.10198        -3.92303         4.97451
     2007.10472       -13.22270         5.12315
     2007.10746        -7.68738         5.08532
     2007.11019       -11.79205         4.98442
     2007.11293         0.95428         4.96731
     2007.11567        -8.14140         4.93578
     2007.11841        -4.59207         4.94569
     2007.12115       -13.20974         4.96821
     2007.12388        -7.04042         4.94208
     2007.12662        -6.60309         4.90335
     2007.12936        -7.01576         5.08172
     2007.13210        -5.06743         5.06280
     2007.13483         2.12989         5.03757
     2007.13757        -1.73578         5.02136
     2007.14031        -0.27445         4.97992
     2007.14305        -3.40513         4.94118
     2007.14579        -5.63780         5.04208
     2007.14852        -6.60747         5.05829
     2007.15126        -4.30315         4.99884
     2007.15400       -11.04282         4.98713
     2007.15674        -1.24749         4.95379
     2007.15948       -23.01816         5.02947
     2007.16221       -14.53184         5.17000
     2007.16495        -6.61851         5.20964
     2007.16769       -10.13718         5.05019
     2007.17043       -11.45786         5.06370
     2007.17316        -1.11153         5.07901
     2007.17590        -7.11620         5.11955
     2007.17864         3.32512         5.16369
     2007.18138         0.56645         5.18171
     2007.18412         3.35578         5.12496
     2007.18685        -2.40990         5.24477
     2007.18959        -2.05057         5.07000
     2007.19233         1.73376         5.09343
     2007.19507        -2.89491         5.03217
     2007.19780         5.44341         5.17180
     2007.20054        -4.90226         5.07991
     2007.20328        -7.89093         5.05019
     2007.20602        -1.46961         5.03307
     2007.20876        -2.71928         5.10784
     2007.21149        -4.83895         5.10694
     2007.21423         1.46537         5.12406
     2007.21697         1.90470         5.02857
     2007.21971        -2.05697         4.95920
     2007.22245         3.06536         5.06370
     2007.22518         2.23368         5.07991
     2007.22792         5.51201         5.07721
     2007.23066        -1.16466         4.98623
     2007.23340        -2.49534         5.08352
     2007.23613        -9.32001         5.02586
     2007.23887        -7.00168         4.99794
     2007.24161        -9.11236         5.09433
     2007.24435         7.65897         5.13757
     2007.24709        -1.07770         4.96100
     2007.24982         6.17763         4.93488
     2007.25256        -2.75405         4.99613
     2007.25530        -0.78772         5.13306
     2007.25804         0.73061         5.08172
     2007.26078         0.75393         5.05829
     2007.26625         5.50859         5.00604
     2007.26899         0.19291         5.04298
     2007.27173         7.43124         5.08712
     2007.27446         8.52357         5.02136
     2007.27692        -0.42224         5.70691
     2007.28091         9.35569         9.12565
     2007.28268         9.15755         7.17530
     2007.28542         3.76888         4.97632
     2007.28782        -5.97396         5.79429
     2007.29089         2.50453         5.00965
     2007.29363        -2.81414         4.98532
     2007.29637         0.53118         4.96100
     2007.29911        -2.56749         4.98352
     2007.30184        -0.76616         4.95289
     2007.30458         1.49016         4.95650
     2007.30732         5.43849         5.04838
     2007.31006         1.27482         5.20513
     2007.31279         2.57915         5.06640
     2007.31553        -1.63353         4.92857
     2007.31827        -1.22920         4.99974
     2007.32101         4.72513         4.97271
     2007.32375         1.58945         4.99523
     2007.32648         3.60078         5.08262
     2007.32922        -0.80489         5.03307
     2007.33196        -4.42757         5.28801
     2007.33470         0.61276         5.18441
     2007.33744        -2.35291         4.99253
     2007.34017        -4.21358         5.07091
     2007.34291        -0.65726         5.00334
     2007.34565        -7.45593         4.97541
     2007.34839        -5.92060         4.98713
     2007.35112         3.74872         4.97812
     2007.35386        -1.65795         5.37359
     2007.35660        -9.18762         5.40152
     2007.35934        -1.92230         5.01055
     2007.36208        -0.24497         5.01415
     2007.36481        -6.16564         5.09523
     2007.36755        -7.06431         5.08892
     2007.37029        -0.74999         5.08081
     2007.37303        -1.72666         5.19973
     2007.37577       -10.96533         5.20784
     2007.37850        -0.97001         5.13036
     2007.38124         0.63032         5.09253
     2007.38398        -4.33135         5.07631
     2007.38672        -4.80503         5.05559
     2007.38945        -9.26870         5.05739
     2007.39219        -3.64137         5.15829
     2007.39493        -2.76905         5.12135
     2007.39767        -5.94972         5.01866
     2007.40041         5.79961         5.10964
     2007.40314        -5.55506         5.01956
     2007.40588        -4.28974         4.97091
     2007.40862        -4.25041         5.03847
     2007.41136        -4.64908         5.00604
     2007.41410        -2.93976         5.07991
     2007.41683        -1.87143         5.13667
     2007.41957         0.14090         5.18802
     2007.42219         6.54117         5.37629
     2007.45517         0.32015         6.85820
     2007.45790        -2.78852         4.97451
     2007.46064        -0.74920         4.95199
     2007.46432        -4.45341        13.76955
     2007.46611         2.00146         5.13397
     2007.46885         6.76378         5.03757
     2007.47159        -1.15689         4.98442
     2007.47433        -1.84956         5.03127
     2007.47707        -2.56724         5.18531
     2007.47980        -8.04291         5.07901
     2007.48254        -4.41558         5.08802
     2007.48528        -4.15026         5.02766
     2007.48802         8.46607         5.15018
     2007.49076         0.81940         5.12496
     2007.49395        -4.75505         6.06995
     2007.49623        -1.40095         5.07181
     2007.49994         4.48085         9.83192
     2007.50171        -5.33629         5.14027
     2007.50444         2.48503         5.07631
     2007.50718         3.89636         5.07541
     2007.50992        -2.73431         5.07991
     2007.51294         3.14915         5.76006
     2007.51540         4.92834         5.13757
     2007.51813        -1.58733         5.08712
     2007.52087         1.57200         5.12045
     2007.52361         1.71432         5.17090
     2007.52635         5.64765         5.29792
     2007.52908         2.91698         5.12676
     2007.53182         1.82730         5.21774
     2007.53456        -4.85537         5.35287
     2007.53730         8.51796         5.28891
     2007.54004         5.66328         5.19252
     2007.54277         5.00761         5.15919
     2007.54551        -4.62206         5.09883
     2007.54825         4.50327         5.12766
     2007.55099         5.71659         5.11775
     2007.55373        -4.86208         5.16820
     2007.55646         0.63025         5.23036
     2007.55909         9.97652         5.35197
     2007.56194         5.38490         5.13216
     2007.56468         4.41923         5.14568
     2007.56741         0.13955         5.13847
     2007.57015         6.15588         5.17991
     2007.57289        -0.00179         5.12045
     2007.57563         3.49353         5.07091
     2007.57837         0.25886         5.11775
     2007.58110         1.54519         5.10514
     2007.58384         5.76352         5.10514
     2007.58658         1.35984         5.06010
     2007.58932        -1.89783         5.04928
     2007.59206         6.18650         5.11955
     2007.59479         7.73182         5.15649
     2007.59753         8.06215         5.12406
     2007.60027         9.60648         5.05289
     2007.60301         8.01180         5.09793
     2007.60574         4.79813         5.14297
     2007.60848         5.01846         5.14478
     2007.61122         0.40379         5.11595
     2007.61396       -11.11689         5.16279
     2007.61670        -6.35856         5.43485
     2007.61943         2.52677         5.35287
     2007.62217         6.86709         5.32224
     2007.62491         5.15342         5.28441
     2007.62765         7.75375         5.39701
     2007.63039        -0.44393         5.50422
     2007.63312        -1.10660         5.26099
     2007.63586         3.60473         5.26189
     2007.63860         2.98206         5.25108
     2007.64134         1.64238         5.17721
     2007.64407        10.93971         5.40782
     2007.64681         2.63504         5.25198
     2007.64955         3.74236         5.47359
     2007.65229         2.40869         5.45737
     2007.65503         1.10102         5.30963
     2007.65776         8.83834         5.33395
     2007.66050         7.63767         5.36188
     2007.66324        12.75200         5.30152
     2007.66598         1.18332         5.33756
     2007.66872         2.64365         5.30152
     2007.67145         5.42198         5.32585
     2007.67419        11.43131         5.56547
     2007.67693         8.18963         5.33846
     2007.67967         1.28896         5.34567
     2007.68240         7.21729         5.35467
     2007.68514        11.20761         5.36548
     2007.68788         9.08794         5.35918
     2007.69062        11.97427         5.28261
     2007.69336         8.67959         5.29792
     2007.69609         5.60392         5.34026
     2007.69883        17.00625         5.38801
     2007.70157         8.28358         5.31414
     2007.70431        11.50690         5.56187
     2007.70705         4.73723         5.39882
     2007.70978        10.69256         5.33936
     2007.71252        10.64988         5.27270
     2007.71526        13.08421         5.09343
     2007.71800        14.62454         5.18261
     2007.72073        13.39086         5.23846
     2007.72347        14.50919         5.17540
     2007.72621        13.07552         5.09883
     2007.72895         6.90385         5.03397
     2007.73169        13.40117         5.22946
     2007.73442         4.55950         5.18802
     2007.73716         4.78483         5.36098
     2007.73990         5.44415         5.12315
     2007.74264         6.63748         5.09253
     2007.74538         8.50581         5.03757
     2007.74811        10.72213         5.27630
     2007.75085         3.55046         5.42674
     2007.75359         8.44679         5.40332
     2007.75633        10.39612         5.17991
     2007.75906        10.31844         5.03037
     2007.76180         2.11277         5.16550
     2007.76454         1.46110         5.09973
     2007.76728         8.55942         5.42854
     2007.77002         5.24475         5.47719
     2007.77275         5.12608         5.47629
     2007.77549         7.22240         5.20153
     2007.77777        12.82751         6.24832
     2007.79739        15.57002         5.37449
     2007.80013        10.11235         5.12045
     2007.80287         4.15167         5.07361
     2007.80561         3.51700         5.12676
     2007.80835         6.93633         5.20874
     2007.81108         7.90265         5.23216
     2007.81382         8.37698         5.40692
     2007.81656         2.34331         5.22315
     2007.81930        -2.33336         5.15559
     2007.82203        -2.96604         5.14928
     2007.82477        -5.06771         5.18441
     2007.82751         4.28162         5.14297
     2007.83025         3.83694         5.08982
     2007.83287         0.23621         5.28531
     2007.83572        -1.37640         5.69520
     2007.83846        -1.15008         5.03577
     2007.84120         1.69525         5.01325
     2007.84394        -2.76042         5.05559
     2007.84668        -4.26209         5.10964
     2007.84941        -1.10077         5.12315
     2007.85215         3.62756         5.24117
     2007.85489         2.63289         5.25648
     2007.85763         6.87221         5.21594
     2007.86036         0.88154         5.13306
     2007.86310        -1.53013         5.27540
     2007.86584         6.07919         5.15468
     2007.86858        -1.58948         5.11144
     2007.87132        -8.30115         5.22765
     2007.87405         2.78417         5.22675
     2007.87679         1.22450         5.20243
     2007.87953        -3.61417         5.15108
     2007.88227        -7.55384         5.13126
     2007.88501         2.36748         5.04748
     2007.88774       -10.07119         5.07091
     2007.89048       -12.68686         5.09883
     2007.89322        -4.93554         5.20513
     2007.89596         1.51879         5.18351
     2007.89869        -3.90188         5.04748
     2007.90143        -3.22856         5.10424
     2007.90417        -7.74723         5.25198
     2007.90691        -1.90490         5.09163
     2007.90965        -0.74957         5.30423
     2007.91238         1.83175         5.09343
     2007.91512         0.82108         5.09613
     2007.91786        -1.42159         5.14117
     2007.92060        -7.75227         5.31684
     2007.92334        -4.06994         5.35197
     2007.92607        -1.02261         5.17631
     2007.92881        -4.17429         5.23306
     2007.93155         1.80804         5.10874
     2007.93429        -2.05463         5.11325
     2007.93702        -6.91030         5.15378
     2007.93976        -9.70898         5.19973
     2007.94250         2.51435         5.17270
     2007.94524        -7.71832         5.34206
     2007.94798       -12.20100         5.22495
     2007.95071        -0.55467         5.21955
     2007.95345         3.16366         5.30062
     2007.95619        -2.15002         5.23666
     2007.95893         6.09631         5.26279
     2007.96167         7.29464         5.26369
     2007.96440        -1.71404         5.23666
     2007.96714         1.56829         5.26729
     2007.96988        -5.78938         5.19342
     2007.97262        -2.93505         5.33846
     2007.97535       -15.82973         5.29702
     2007.97809         1.07660         5.35738
     2007.98083        -6.08607         5.22675
     2007.98357        -1.85175         5.17270
     2007.98631        -1.40442         5.23846
     2007.98904        -2.31109         5.34657
     2007.99178        -1.22677         5.28801
     2007.99452        -6.56944         5.32495
     2007.99726        -1.59311         5.08352
     2008.00000       -14.57278         5.11234
     2008.00273       -11.18546         5.29522
     2008.00547        -1.52713         5.09613
     2008.00821        -1.39180         5.14568
     2008.01095        -3.78648         5.07901
     2008.01368        -0.64315         5.06910
     2008.01642        -3.40582         5.04388
     2008.01916        -6.98450         5.15288
     2008.02190        -8.57417         5.12676
     2008.02464        -2.92684         5.07181
     2008.02737       -10.04551         5.07631
     2008.03011        -0.68619         5.19973
     2008.03285       -15.39586         5.09523
     2008.03559       -11.09053         5.11505
     2008.03833       -14.43821         5.07451
     2008.04106       -16.87288         5.12676
     2008.04380       -12.17055         5.16910
     2008.04654        -7.70923         5.12496
     2008.04928        -5.62490         5.10334
     2008.05201        -9.14157         5.06100
     2008.05475        -5.12925         5.04928
     2008.05749       -11.74492         5.02676
     2008.06023        -5.37359         5.07000
     2008.06297        -3.65126         5.03577
     2008.06570        -8.66094         5.04478
     2008.06844        -2.64761         5.03577
     2008.07118        -9.04528         5.04658
     2008.07392        -3.14696         5.00334
     2008.07666        -1.95563         5.28981
     2008.08213        -3.50898         5.08262
     2008.08487       -14.40065         5.06910
     2008.08761       -11.16332         5.02586
     2008.09034        -4.39799         5.12315
     2008.09308       -11.65567         5.05199
     2008.09582        -7.92134         5.33486
     2008.09856       -10.40801         5.22315
     2008.10130        -1.46869         5.22225
     2008.10403       -11.29136         5.12406
     2008.10677        -9.01403         5.09163
     2008.10951        -9.75771         5.08712
     2008.11225        -3.55638         5.00875
     2008.11498        -6.49505         5.03487
     2008.11772         0.60128         5.06550
     2008.12046       -10.55540         5.07451
     2008.12320       -11.83707         5.17450
     2008.12594        -9.01374         5.06100
     2008.12833       -13.78058         6.04653
     2008.13141        -8.41609         5.01325
     2008.13415        -5.20676         5.10063
     2008.13689         3.30456         5.20603
     2008.13963        -0.06411         5.04748
     2008.14236        -0.13278         5.03217
     2008.14510        -0.94346         5.04388
     2008.14784         4.28487         5.03217
     2008.15058        -3.55680         5.05739
     2008.15331        -8.37547         5.05739
     2008.15605        -5.70915         5.04208
     2008.15879        -5.11282         5.01325
     2008.16153        -8.99549         5.11415
     2008.16427        -6.48917         5.04118
     2008.16700        -9.13784         5.04568
     2008.16974       -10.93751         5.07451
     2008.17225        -9.63130         5.65106
     2008.17522        -6.55086         5.11234
     2008.17796        -5.84353         5.10334
     2008.18069       -11.08620         5.04478
     2008.18343        -6.00488         5.06910
     2008.18617        -2.32455         5.03938
     2008.18891        -6.66722         5.06820
     2008.19164        -4.25290         5.06730
     2008.19438        -2.98357         4.98172
     2008.19712        -2.63724         5.07091
     2008.19986         5.20708         5.07361
     2008.20260        -3.20559         5.03487
     2008.20533        -2.11026         5.02857
     2008.20807        -4.47893         5.19793
     2008.21081        -3.05061         5.17180
     2008.21355        -0.29228         5.13216
     2008.21629        -1.67295         5.13397
     2008.21902        -4.72363         5.16640
     2008.22176       -11.94830         5.08352
     2008.22450        -4.27497         5.22045
     2008.22724        -5.45165         5.13126
     2008.22997        -8.08632         5.19702
     2008.23271         2.07001         5.17901
     2008.23545        -3.29066         5.15198
     2008.23819        -4.24234         5.03577
     2008.24093        -5.33801         5.07271
     2008.24366        -3.87568         5.02406
     2008.24640        -5.06036         5.07361
     2008.24914        -2.38303         5.02857
     2008.25188        -3.12270         5.07721
     2008.25462        -2.43738         4.97902
     2008.25735        -1.02305         5.14568
     2008.26009         2.24528         5.08532
     2008.26283        -1.62940         5.03217
     2008.26557         1.57993         5.02136
     2008.26830        -1.73474         4.97722
     2008.27104         1.07359         5.03127
     2008.27378        -3.01709         5.05379
     2008.27652        -7.22576         5.06730
     2008.27926        -3.48643         5.11234
     2008.28199        -2.01011         4.98893
     2008.28473         2.13422         5.05559
     2008.28747         6.18455         5.13667
     2008.29021         3.28887         5.13397
     2008.29295        -3.86980         5.08892
     2008.29568         2.31253         4.99343
     2008.29842        -2.52414         4.98893
     2008.30116       -20.04282         5.01685
     2008.30390        -2.28349         5.04748
     2008.30663        -2.55616         5.10244
     2008.30937        -6.58584         5.13397
     2008.31211        -4.85451         5.07361
     2008.31485         2.04682         5.07631
     2008.31759        -5.66186         5.17540
     2008.32032        -4.14953         5.18531
     2008.32306         0.75180         5.23396
     2008.32580        -4.44287         5.37089
     2008.32854        -2.35555         5.07091
     2008.33128        -8.61022         5.15739
     2008.33401         0.97511         5.11054
     2008.33675        -0.30957         5.08532
     2008.33949         2.44876         5.08352
     2008.34223        -8.03191         5.06640
     2008.34496        -0.17659         5.09523
     2008.34770         4.77874         5.09433
     2008.35044         2.98107         4.99253
     2008.35318        -7.08761         5.08442
     2008.35592        -1.71728         5.06190
     2008.35865         2.16605         4.97632
     2008.36139         3.06738         5.02046
     2008.36413         5.74070         5.01055
     2008.36687        -1.06997         4.98623
     2008.36961        -8.30764         5.02046
     2008.37234        -8.67432         5.01415
     2008.37508         5.69201         4.94208
     2008.37782         5.80334         5.06010
     2008.38056         3.40966         5.09793
     2008.38329         7.87999         5.11234
     2008.38603         3.69032         4.96821
     2008.38877         0.29965         5.05469
     2008.39151         3.70197         5.06190
     2008.39425        -1.30370         4.96460
     2008.39698        -2.47737         4.93398
     2008.39972         8.29595         4.94839
     2008.40246         2.92728         4.93578
     2008.40520         4.05361         5.03847
     2008.40794         0.14393         4.97271
     2008.41067        -1.90174         4.94298
     2008.41341        -2.95641         5.02586
     2008.41615         1.58592         4.96641
     2008.41889        -1.22576         4.96641
     2008.42162        -6.95043         5.06370
     2008.42436         0.42590         4.97632
     2008.42710        -1.02678         4.97271
     2008.42984        -0.60345         5.05199
     2008.43258         0.62088         5.13036
     2008.43531        -0.43780         5.04388
     2008.43805         4.96553         5.18802
     2008.44079        -2.51514         4.96551
     2008.44353        -2.34082         4.96190
     2008.44626        -8.27149         5.02586
     2008.44900        -6.78016         5.01776
     2008.45174         1.67017         5.11325
     2008.45448         2.44649         5.11325
     2008.45722         0.44682         5.03217
     2008.45995        -1.19985         5.01325
     2008.46269        -2.07253         5.03217
     2008.46543        -4.33320         4.97541
     2008.46817        -6.73587         5.03847
     2008.47091        -7.18255         5.13397
     2008.47364        -2.66222         5.02136
     2008.47638         0.84611         5.09072
     2008.47912         3.45144         5.01505
     2008.48186         1.85676         5.05739
     2008.48459        -1.47891         5.09613
     2008.48728         0.26739         5.09523
     2008.49008        -5.48725         4.95830
     2008.49281         6.99907         5.18441
     2008.49555        -1.09260         5.08442
     2008.49828        -3.48228         5.11325
     2008.50102        -0.77895         5.14928
     2008.50376         2.66338         5.00694
     2008.50650         1.92071         5.36098
     2008.50924         2.08103         5.10784
     2008.51197         3.98436         5.01866
     2008.51471         1.60369         5.14207
     2008.51745         0.80601         5.01415
     2008.52019        12.68434         5.09793
     2008.52292         0.80167         5.17000
     2008.52566         4.09499         5.17270
     2008.52840         5.07232         5.09163
     2008.53114         3.58565         5.09523
     2008.53388         6.72997         5.04388
     2008.53661        -0.49570         5.02496
     2008.53935         0.36963         4.97992
     2008.54209         4.38596         5.08712
     2008.54483         4.66928         5.24747
     2008.54757         1.29561         5.14928
     2008.55030         9.58394         4.96731
     2008.55304         3.32726         5.11505
     2008.55578         5.24459         5.14748
     2008.55852         4.96692         5.22225
     2008.56125         0.88124         5.07991
     2008.56399         4.63657         4.99343
     2008.56673         2.23390         5.00785
     2008.56947         6.07323         5.02316
     2008.57221         8.45555         5.15739
     2008.57494        10.34988         5.31233
     2008.57768        10.42121         5.23937
     2008.58042        12.14253         5.11234
     2008.58316         4.60686         5.04388
     2008.58590         7.15219         5.11505
     2008.58863         3.69851         5.22855
     2008.59137         6.03984         5.08982
     2008.59411         3.82017         5.04748
     2008.59685         7.75350         5.21865
     2008.59958         0.67282         5.37179
     2008.60232         6.80515         5.31053
     2008.60506        11.44448         5.26729
     2008.60780         2.25080         5.15198
     2008.61054        11.04513         5.12856
     2008.61327         4.47546         5.18982
     2008.61601        10.10078         5.14658
     2008.61875         6.37411         5.22675
     2008.62149        11.52144         5.19702
     2008.62423         7.52476         5.20063
     2008.62696         4.01009         5.40782
     2008.62970        12.59442         5.47719
     2008.63244        10.12875         5.17811
     2008.63518         6.27407         5.16550
     2008.63791         9.08640         5.21414
     2008.64065         9.80873         5.17360
     2008.64339         0.85505         5.16640
     2008.64613         9.19038         5.28801
     2008.64887        11.32371         5.36909
     2008.65160        13.32503         5.14387
     2008.65434        10.24336         5.31053
     2008.65708         7.47769         5.30423
     2008.65987         6.79504         5.22855
     2008.66256        20.70334         5.26819
     2008.66529         9.00267         5.18802
     2008.66803         4.19600         5.20603
     2008.67077         2.07732         5.25198
     2008.67351         8.17765         5.29252
     2008.67624         6.23398         5.65646
     2008.67898         7.43030         5.23126
     2008.68172         5.16763         5.20513
     2008.68446        10.49896         5.22405
     2008.68720        12.40729         5.18261
     2008.68993        10.16561         5.32675
     2008.69267        -0.43906         5.28981
     2008.69541         5.90027         5.16099
     2008.69815        10.72759         5.27900
     2008.70089         8.11692         5.17721
     2008.70362         8.30525         5.15288
     2008.70636         9.68957         5.18441
     2008.70910         7.04490         5.22225
     2008.71184         3.01523         5.35197
     2008.71457         9.29556         5.08172
     2008.71731         0.24988         5.15559
     2008.72005         6.38421         5.15829
     2008.72279         6.98954         5.14297
     2008.72553         2.88486         5.15288
     2008.72826         6.48819         5.13937
     2008.73100         2.32752         5.18081
     2008.73374         8.31884         5.18621
     2008.73648         5.14717         5.16550
     2008.73921         3.46950         5.13036
     2008.74469         0.96915         5.07901
     2008.74743         5.35348         5.15108
     2008.75017         1.00381         5.16640
     2008.75290        12.21613         5.23576
     2008.75564         9.74146         5.19973
     2008.75838        -0.42521         5.21774
     2008.76112         5.59511         5.08892
     2008.76386        -2.89756         5.09613
     2008.76659         7.75977         5.34837
     2008.76933         1.88009         5.16279
     2008.77207        -1.59758         4.97451
     2008.77481        -1.11825         5.01055
     2008.77754        -4.07392         4.99794
     2008.78028        -1.29660         4.98893
     2008.78302         1.88073         4.99433
     2008.78576        -0.32594         5.03667
     2008.78850         1.14938         5.15108
     2008.79123         5.98371         5.11415
     2008.79397        -4.04496         4.98623
     2008.79671         2.16336         5.03667
     2008.79945         2.29869         5.01145
     2008.80219         3.09702         5.23306
     2008.80492        -0.90865         5.11415
     2008.80766         3.25267         5.08622
     2008.81040         1.27600         5.06730
     2008.81314         2.51033         5.02136
     2008.81587         2.62765         5.04568
     2008.81861        -2.15202         5.01685
     2008.82135        -2.61769         5.05559
     2008.82409         2.26163         5.12856
     2008.82683         4.46396         5.07361
     2008.82956        -2.81571         5.09883
     2008.83230         0.45261         5.12406
     2008.83504         5.49394         5.16189
     2008.83778         8.69227         5.22765
     2008.84052         2.80860         5.09703
     2008.84325         3.82992         5.02676
     2008.84599         2.57525         5.03217
     2008.84873        -1.06542         5.04928
     2008.85147        -0.71810         5.02496
     2008.85420        -9.95677         5.24837
     2008.85694         5.03956         5.03757
     2008.85968         2.44988         5.04478
     2008.86242        -0.60279         5.07991
     2008.86516         8.09754         5.05199
     2008.86789         4.32587         5.08802
     2008.87063        -1.31481         5.09253
     2008.87337        -5.26348         5.01505
     2008.87611         0.68785         5.07901
     2008.87885         0.28517         5.06100
     2008.88158        -7.24150         5.08172
     2008.88432        -2.81017         5.05739
     2008.88706        -8.31885         5.24117
     2008.88980         0.89348         5.20243
     2008.89253        -0.40919         5.15468
     2008.89527        -1.59486         5.14568
     2008.89801        -3.01454         5.15649
     2008.90075        -5.50121         5.09973
     2008.90349         0.92512         5.06640
     2008.90622         2.45744         5.28080
     2008.90896         2.97677         5.08712
     2008.91170        -6.86290         5.09523
     2008.91444         0.94042         5.07451
     2008.91718         2.43275         5.01415
     2008.91991         0.97508         5.18802
     2008.92265        -1.17960         5.11865
     2008.92539         1.23673         5.12406
     2008.92813         0.49906         5.05109
     2008.93086        -2.26761         5.08532
     2008.93360        -2.73229         5.10784
     2008.93634        -3.74596         5.14568
     2008.93908        -6.89663         5.16550
     2008.94182       -10.00831         5.31504
     2008.94455        -8.33598         5.17000
     2008.94729         0.67635         5.29342
     2008.95277        -0.32500         5.01595
     2008.95551       -15.96367         5.05019
     2008.95824        -7.07334         5.03127
     2008.96098        -7.01802         5.03847
     2008.96372        -2.37769         5.05199
     2008.96646       -11.60636         5.18261
     2008.96919        -5.85404         5.05109
     2008.97193        -0.23371         5.07901
     2008.97467         0.78862         5.00694
     2008.97741        -8.22506         5.04388
     2008.98015        -1.44473         5.04748
     2008.98288       -13.27140         5.10784
     2008.98562         0.71993         5.09613
     2008.98836        -3.23075         4.99253
     2008.99110        -3.54642         5.03938
     2008.99384       -14.64309         5.13667
     2008.99657       -13.35577         5.05829
     2008.99931        -8.06444         5.04478
     2009.00479         1.84321         5.06820
     2009.00752        -3.27546         4.99343
     2009.01026        -5.87513         5.00064
     2009.01300        -0.12881         5.20964
     2009.01574         0.94752         5.12045
     2009.01848         0.91285         5.02766
     2009.02121         1.11118         5.19793
     2009.02395        -8.57050         5.12406
     2009.02669        -9.89717         5.01235
     2009.02943       -19.39784         5.10964
     2009.03216       -13.27752         4.97812
     2009.03490       -15.76219         5.02496
     2009.03764        -7.00086         5.03037
     2009.04038       -10.02554         5.03667
     2009.04312       -13.62021         4.96911
     2009.04585       -12.66588         4.98713
     2009.04859       -11.58255         5.02496
     2009.05133        -5.64423         4.98172
     2009.05407        -9.54290         5.04838
     2009.05681        -5.88157         5.00875
     2009.05954        -2.32625         5.01505
     2009.06262       -12.25275         5.81591
     2009.06502        -7.73159         5.02226
     2009.06776        -7.67427         5.06460
     2009.07049        -7.74694         5.01595
     2009.07323        -7.03961         5.02676
     2009.07597        -8.54728         5.03847
     2009.07871       -10.55596         4.98172
     2009.08145        -8.37363         4.97361
     2009.08418        -6.02030         5.04118
     2009.08692        -7.74698         5.01866
     2009.08966       -13.20265         4.99343
     2009.09240        -9.43132         5.06820
     2009.09514        -6.14900         5.01956
     2009.09787        -3.42467         5.00875
     2009.10061        -1.73734         4.99794
     2009.10335        -1.37202         5.01505
     2009.10609        -2.15569         5.03757
     2009.10882        -1.12336         5.02766
     2009.11156        -1.10403         5.01325
     2009.11430        -3.19771         5.14568
     2009.11704        -0.00038         5.11595
     2009.11978        -0.42705         4.97992
     2009.12251         1.86627         5.01055
     2009.12525         1.03360         5.00875
     2009.12799         0.99393         4.97812
     2009.13073         2.58825         5.07091
     2009.13347        -7.94642         4.98262
     2009.13620        -7.07309         5.00154
     2009.13894       -13.61376         5.00514
     2009.14168        -9.12144         5.04298
     2009.14442        -0.48011         5.07721
     2009.14715        -3.07578         5.12766
     2009.14989        -1.71646         5.11144
     2009.15263        -8.37313         5.00514
     2009.15537        -5.79880         5.10874
     2009.15811        -9.10348         5.09883
     2009.16084        -7.81615         5.07451
     2009.16367        -1.26278         5.20693
     2009.16632         4.02751         5.08262
     2009.16906         0.39783         5.25018
     2009.17180        -3.75984         4.98983
     2009.17453        -3.81051         5.00875
     2009.17727         0.41181         5.12315
     2009.18001       -10.46186         4.98442
     2009.18275        -3.77453         4.98623
     2009.18548        -8.49321         5.03487
     2009.18822        -7.53788         5.05559
     2009.19096        -8.26055         5.01866
     2009.19370        -8.74822         4.97722
     2009.19644        -3.67590         4.97902
     2009.19917         4.27843         4.97902
     2009.20191        -3.33124         4.99433
     2009.20465        -9.67292         5.07541
     2009.20739        -2.96059         5.03217
     2009.21013        -3.98626         4.97451
     2009.21286        -3.48194         4.93398
     2009.21560        -3.86561         4.94118
     2009.21834        -3.54228         5.04118
     2009.22108        -1.25496         5.05109
     2009.22381        -9.02763         4.95199
     2009.22655        -4.27530         4.97541
     2009.22929        -6.23397         4.97722
     2009.23203        -3.39765         5.02226
     2009.23477        -3.17432         5.05379
     2009.23750        -2.77299         5.06370
     2009.24024        -4.44267         5.09793
     2009.24298        -2.61634         4.98803
     2009.24572        -7.57901         5.12045
     2009.24846        -1.76469         5.12045
     2009.25119        -2.73736         5.17901
     2009.25393        -4.16503         5.18351
     2009.25667        -4.58470         4.99974
     2009.25941        -6.18038         5.05289
     2009.26214        -4.74205         5.06910
     2009.26488        -3.76972         5.22946
     2009.26762        -0.36440         5.11865
     2009.27036         0.41493         5.08081
     2009.27310        -2.72574         5.02496
     2009.27583        -4.96842         5.08802
     2009.27857        -6.96309         5.09613
     2009.28131        -3.63876         5.24477
     2009.28405        -8.42143         5.15919
     2009.28679         0.63089         5.08532
     2009.28952        -9.95478         5.07991
     2009.29226        -7.48845         5.13306
     2009.29500        -8.01413         5.12315
     2009.29774        -8.61680         5.15649
     2009.30047        -4.74547         5.08712
     2009.30321       -11.43515         5.15829
     2009.30595         2.56318         5.09163
     2009.30869         0.25351         5.07901
     2009.31143        -2.59317         5.07271
     2009.31416        -2.69184         5.06550
     2009.31690        -2.19951         5.03217
     2009.31964        -5.23818         5.03217
     2009.32238         1.35814         5.11595
     2009.32512        -2.91253         5.18531
     2009.32785        -2.93420         5.15378
     2009.33059        -2.64988         5.06100
     2009.33333         2.75145         5.25918
     2009.33607        -6.83322         5.06640
     2009.33880        -2.45790         5.08532
     2009.34154        -1.59557         5.21955
     2009.34428        -5.31324         5.19973
     2009.34702        -9.96891         5.08442
     2009.34976        -7.91759         5.02316
     2009.35249        -7.90226         5.04208
     2009.35523        -4.83393         5.10244
     2009.35797        -1.34061         5.08802
     2009.36071         1.80572         5.21684
     2009.36344        -4.12395         5.07361
     2009.36618        -5.52263         5.07811
     2009.36892        -3.25330         5.08081
     2009.37166        -5.22297         5.09072
     2009.37440        -4.29764         5.09703
     2009.37713       -12.72532         5.05469
     2009.37987        -4.52099         5.57538
     2009.38261        -3.52566         5.08262
     2009.38535        -7.11534         5.07991
     2009.38809        -2.42001         5.10063
     2009.39082        -3.24268         5.07091
     2009.39356        -1.19836         5.08442
     2009.39630        -9.65503         5.06910
     2009.39904        -3.13970         5.36548
     2009.40177        -1.63438         5.07000
     2009.40451        -0.09505         5.06550
     2009.40725         1.96728         5.17721
     2009.40999        -2.41839         5.10334
     2009.41273        -2.81907         5.15018
     2009.41546         3.33226         5.09163
     2009.41820         0.53059         5.53665
     2009.42094         3.44791         5.20063
     2009.42368        -2.15176         5.22585
     2009.42642        -0.36043         5.09973
     2009.42915        -0.01511         5.21054
     2009.43189        -5.42578         5.06010
     2009.43463        -2.25445         5.07721
     2009.43737        -1.17312         5.47359
     2009.44010        -3.78780         5.07091
     2009.44284        -6.01947         5.07181
     2009.44558        -4.85614         5.05649
     2009.44832         3.16618         5.12315
     2009.45106         0.93951         5.08802
     2009.45379         1.84184         5.12496
     2009.45653         0.34516         5.44476
     2009.45927        -2.28651         5.08172
     2009.46201        -1.96418         5.10964
     2009.46475         2.21415         5.33125
     2009.46748         0.75247         5.17270
     2009.47022        -4.47820         5.10334
     2009.47296        -3.48987         5.08532
     2009.47570        -1.53355         5.39431
     2009.47843        -3.95222         5.09703
     2009.48117         0.87811         5.17000
     2009.48391        -7.02357         5.15559
     2009.48665        -5.93824         5.17450
     2009.48939        -4.39991         5.15739
     2009.49212         2.93941         5.17631
     2009.49486        -0.26226         5.46548
     2009.49760        -1.60093         5.12676
     2009.50034        -0.73160         5.12856
     2009.50308         3.34872         5.08802
     2009.50581         7.14805         5.17180
     2009.50855         3.56738         5.10244
     2009.51129         3.58870         5.09343
     2009.51403         5.90503         5.44746
     2009.51676         1.79236         5.05289
     2009.51950         2.70368         5.05919
     2009.52224        -2.12299         5.12586
     2009.52498         5.39534         5.09163
     2009.52772         0.04667         5.20693
     2009.53045        -2.11401         5.06100
     2009.53319        -3.44968         5.39521
     2009.53593        -3.79035         5.05109
     2009.53867         3.04597         5.09793
     2009.54141        -0.54070         5.07451
     2009.54414        -5.06337         5.17721
     2009.54688         1.36795         5.12496
     2009.54962         4.70228         5.13306
     2009.55236        -5.43939         5.36909
     2009.55509         5.88894         5.08172
     2009.55783         2.33126         5.08081
     2009.56057         1.13459         5.20964
     2009.56331         2.71592         5.26459
     2009.56605        -0.80676         5.23846
     2009.56878        -0.38043         5.07631
     2009.57152         2.33690         5.51953
     2009.57426         3.36022         5.15288
     2009.57700         7.63555         5.24207
     2009.57974         3.18088         5.08982
     2009.58247         3.30220         5.14568
     2009.58521         7.20253         5.50512
     2009.58795         3.04686         5.12946
     2009.59069         5.96719         5.35377
     2009.59342        -3.32649         5.22765
     2009.59616         3.51284         5.07541
     2009.59890         6.58317         5.09613
     2009.60164         5.07449         5.06460
     2009.60438         0.32782         5.07000
     2009.60711        -3.45585         5.14568
     2009.60985         1.12447         5.29161
     2009.61259        -1.41320         5.32405
     2009.61533        10.46713         5.22405
     2009.61807         3.70146         5.15468
     2009.62080         0.41678         5.08982
     2009.62354         0.46911         5.15378
     2009.62628         4.73944         5.12676
     2009.62902         5.79276         5.29792
     2009.63175         5.53309         5.07541
     2009.63449        -0.23658         5.23126
     2009.63723        -4.50026         5.25918
     2009.63997        -0.49193         5.20423
     2009.64271        -3.84360         5.19342
     2009.64544         1.60973         5.14658
     2009.64818         4.31205         5.63394
     2009.65092        -5.60262         5.18441
     2009.65366        -1.54629         5.16279
     2009.65639         1.68403         5.23756
     2009.65913         0.25336         5.02586
     2009.66187         4.06169         5.04028
     2009.66461         3.35001         5.05739
     2009.66735        11.14434         5.35738
     2009.67008         0.90667         5.18351
     2009.67282         3.41100         5.16730
     2009.67556         8.27032         5.07271
     2009.67830         9.34265         5.25018
     2009.68104         5.44998         5.14478
     2009.68377        -6.13770         5.12315
     2009.68651         3.18363         5.32765
     2009.68925         5.32196         5.14297
     2009.69199         2.76428         5.19883
     2009.69472        -2.67439         5.11775
     2009.69746        -1.93906         5.10694
     2009.70020         9.07626         5.25018
     2009.70294         7.27459         5.13667
     2009.70568        -2.59908         5.36909
     2009.70841        -2.18875         5.18081
     2009.71115        -4.03543         5.25468
     2009.71389        -3.16010         5.29522
     2009.71663         0.34723         5.22495
     2009.71937        -3.13145         5.01956
     2009.72210        -4.21912         5.03938
     2009.72484        -2.10179         5.43935
     2009.72758        -0.84647         5.24477
     2009.73032        -0.86114         5.06370
     2009.73305         2.05019         5.12406
     2009.73579        -0.10648         5.10244
     2009.73853         4.05084         5.13757
     2009.74127         2.46717         5.22855
     2009.74401        11.57150         5.48350
     2009.74674         1.53482         5.09613
     2009.74948        -3.51085         5.04028
     2009.75222        -1.41652         5.22585
     2009.75496        -3.86720         5.11775
     2009.75770         0.26613         5.18892
     2009.76043         1.66146         5.11144
     2009.76317        -0.77021         5.19883
     2009.76591        -0.74189         5.23036
     2009.76865         0.34644         5.19702
     2009.77138        -6.12423         5.10153
     2009.77412        -2.32991         5.11325
     2009.77686         0.68842         5.06910
     2009.77960         2.08975         5.09072
     2009.78234         4.29207         5.20693
     2009.78507         9.94740         5.32495
     2009.78781         1.50373         5.39161
     2009.79055        -4.85295         5.28711
     2009.79329        -0.43562         5.46818
     2009.79603        -3.75629         5.22315
     2009.79876         4.38704         5.22946
     2009.80150        -2.08864         5.25648
     2009.80424        -5.85131         5.38620
     2009.80698        -1.44098         5.23576
     2009.80971         1.45834         5.30423
     2009.81245         8.46867         5.28891
     2009.81519         8.18900         5.31143
     2009.81793         3.10632         5.35017
     2009.82067         9.15365         5.29882
     2009.82340         4.05398         5.20153
     2009.82614        -0.19069         5.19883
     2009.82888        -1.96037         5.13577
     2009.83162        11.21896         5.48530
     2009.83436        -0.95971         5.15198
     2009.83709        -2.42839         5.31233
     2009.83983         0.09494         5.34657
     2009.84257         0.51527         5.21774
     2009.84531        -0.97741         5.43215
     2009.84804        -1.55908         5.52854
     2009.85078         5.89125         5.31684
     2009.85352         4.99958         5.35107
     2009.85626        -2.16510         5.42134
     2009.85900        -3.96777         5.41053
     2009.86173        -8.46144         5.27360
     2009.86447         2.51088         5.59340
     2009.86721        -2.44179         5.37720
     2009.86995        -0.81146         5.24657
     2009.87269        -2.65914         5.27900
     2009.87542        -4.53581         5.28891
     2009.87816         5.50352         5.56367
     2009.88090        -0.37716         5.47269
     2009.88364         9.32417         5.25828
     2009.88637         3.75250         5.32765
     2009.88911         2.66583         5.17180
     2009.89185         2.38615         5.44206
     2009.89459        -1.02052         5.23306
     2009.89733       -11.21919         5.38530
     2009.90006        -8.75887         5.19793
     2009.90280        -8.52354         5.22225
     2009.90554        -2.55521         5.10604
     2009.90828        -6.12989         5.10694
     2009.91102        -8.56256         5.10874
     2009.91375        -4.15423         5.08262
     2009.91649        -2.70390         5.19522
     2009.91923        -7.98658         5.11775
     2009.92197        -5.64625         5.05919
     2009.92470        -8.62392         5.06370
     2009.92744        -3.56060         5.07631
     2009.93018        -8.92227         5.07451
     2009.93292        -3.56394         5.10424
     2009.93566        -4.24062         5.15919
     2009.93839        -1.57629         5.25468
     2009.94113        -2.94396         5.08442
     2009.94387        -0.57763         5.18892
     2009.94661        -3.16131         5.16820
     2009.94935        -3.05798         5.07901
     2009.95208        -4.58165         5.12135
     2009.95482        -8.00333         5.16820
     2009.95756        -7.88500         5.14117
     2009.96030        -8.97167         5.08892
     2009.96303        -1.97235         5.25648
     2009.96577       -12.83802         5.30693
     2009.96851        -4.53769         5.40602
     2009.97125         0.79763         5.21324
     2009.97399        -3.64104         5.13306
     2009.97672        -8.85871         4.99433
     2009.97946        -8.25638         5.00334
     2009.98220        -8.72906         5.00785
     2009.98494        -3.80773         5.04028
     2009.98767        -5.37340         5.02136
     2009.99041        -4.22408         4.94749
     2009.99315        -6.83875         5.09072
     2009.99589        -2.34442         5.15288
     2009.99863        -7.80910         5.17901
     2010.00410        -9.17144         5.07271
     2010.00684       -14.90611         5.03757
     2010.00958        -9.12079         5.09163
     2010.01232        -6.43546         5.19162
     2010.01505        -9.47313         5.18531
     2010.01779        -1.36581         5.17901
     2010.02053        -7.00048         5.12135
     2010.02327        -8.58215         5.13757
     2010.02600         0.22417         5.15919
     2010.02874        -4.98650         5.11865
     2010.03148        -2.42817         5.15018
     2010.03422        -8.58984         5.19973
     2010.03696        -7.37152         5.30513
     2010.03969       -10.78119         5.26549
     2010.04243         0.00614         5.07811
     2010.04517        -5.10454         5.07901
     2010.04791        -0.24221         5.06910
     2010.05065         9.24412         5.29522
     2010.05338         2.70944         5.23937
     2010.05612         5.77277         5.08622
     2010.05886        -0.98890         5.07181
     2010.06160        -3.41558         5.06910
     2010.06433       -10.29325         5.10874
     2010.06707        -7.76492         5.11234
     2010.06981        -8.16559         5.16189
     2010.07255        -6.69427         5.21684
     2010.07529        -7.86194         5.15288
     2010.07802        -7.53161         5.09433
     2010.08076        -5.76829         5.03487
     2010.08350         0.38304         4.97541
     2010.08624        -4.01863         5.09703
     2010.08898         4.17069         5.25918
     2010.09171         3.94302         5.08352
     2010.09445         1.11235         5.51322
     2010.09719        -6.16532         5.12496
     2010.09993        -2.63700         5.00694
     2010.10266         0.32033         5.01595
     2010.10540        -2.28334         5.12766
     2010.10814         0.73598         5.15018
     2010.11088        -0.47669         5.21594
     2010.11362        -2.97436         5.06730
     2010.11635        -0.76604         5.11595
     2010.11909         0.58729         5.09163
     2010.12183        -0.51738         5.11685
     2010.12457         4.14395         4.99343
     2010.12731        -0.73373         5.44836
     2010.13004        -7.36040         5.09883
     2010.13278        -5.02507         5.07721
     2010.13552        -2.36875         5.16459
     2010.13826        -1.36642         4.99253
     2010.14060        -6.49329         6.08887
     2010.14373        -8.94977         5.15829
     2010.14647        -1.94144         5.28891
     2010.14921        -1.27911         5.13667
     2010.15195        -1.45478         5.03217
     2010.15468        -5.88446         5.05559
     2010.15742        -5.42113         5.04028
     2010.16016        -3.13580         5.01685
     2010.16290        -7.31548         5.05379
     2010.16564        -1.48915         5.07271
     2010.16837         2.16318         5.01145
     2010.17111        -3.32750         5.01776
     2010.17385        -8.53117         4.99704
     2010.17659        -3.26384         4.94479
     2010.17932         0.87448         4.99343
     2010.18206         4.92081         5.00694
     2010.18480         0.53014         5.03757
     2010.18754        -1.79953         5.00424
     2010.19028        -1.16421         5.07901
     2010.19301         0.61712         5.03487
     2010.19575         0.21745         5.03487
     2010.19849        -4.96923         5.02676
     2010.20123       -11.48090         4.98623
     2010.20397        -6.44257         5.20513
     2010.20670       -10.67525         5.12496
     2010.20944        -3.76792         5.05019
     2010.21218        -3.32559         5.05559
     2010.21492        -6.48026         4.96821
     2010.21765        -2.20894         5.03577
     2010.22039        -6.34861         4.97541
     2010.22313        -8.64028         5.07991
     2010.22587        -6.31396         5.13397
     2010.22861        -1.76263         5.19162
     2010.23134       -11.65930         5.13577
     2010.23408       -13.52398         5.15108
     2010.23956        -0.87332         5.19973
     2010.24230        -3.55399         5.40692
     2010.24503        -0.84467         5.24117
     2010.24777        -1.19034         5.25558
     2010.25051         0.26299         5.40692
     2010.25325         0.12831         5.15198
     2010.25598         1.34564         5.17090
     2010.25872         1.66997         5.15919
     2010.26146        -8.41971         5.38801
     2010.26420        -5.30138         5.37900
     2010.26694         5.57295         5.31053
     2010.26967        -3.02473         5.14928
     2010.27241        -2.33640         5.16550
     2010.27515        -4.39107         5.18621
     2010.27789        -2.08674         5.17631
     2010.28062        -1.39842         5.08262
     2010.28336        -1.87509         5.18892
     2010.28610        -2.44776         5.18171
     2010.28884        -2.84244         5.09883
     2010.29158        -2.42811         5.16550
     2010.29431        -0.41178         5.12766
     2010.29705         5.69854         5.15378
     2010.29979        -3.78713         5.18441
     2010.30253         4.80420         5.12135
     2010.30527         1.97453         5.19612
     2010.30800        -0.12415         5.12586
     2010.31074        -1.85782         5.06820
     2010.31348        -3.25249         5.02046
     2010.31622         7.57583         5.06010
     2010.31895         3.08016         5.44296
     2010.32169         3.60849         5.06640
     2010.32443         1.75081         5.14658
     2010.32717         0.50314         4.98983
     2010.32991         1.66447         5.03037
     2010.33264         0.98380         4.99253
     2010.33538         7.93512         5.21414
     2010.33812        -3.95655         5.05469
     2010.34086        -3.88722         4.97722
     2010.34360        -3.62490         4.97091
     2010.34633         0.65943         5.07991
     2010.34907        -1.33024         5.04118
     2010.35181         3.68508         4.97181
     2010.35455        -1.38459         4.92857
     2010.35728        -5.81326         5.02766
     2010.36002         0.80306         5.03577
     2010.36276         4.39439         5.07271
     2010.36550        -0.40228         5.19252
     2010.36824        -4.71395         5.12676
     2010.37097         3.28837         5.00514
     2010.37371         5.21670         5.04118
     2010.37645        -0.71597         5.07181
     2010.37919         2.00535         5.48440
     2010.38193        -1.33532         5.33486
     2010.38466        -2.99699         5.16459
     2010.38740        -0.30067         5.05559
     2010.39014         1.34266         5.04928
     2010.39288        -4.97801         5.09163
     2010.39561        -4.69568         5.09523
     2010.39835        -2.76836         4.99884
     2010.40109         4.46997         5.05379
     2010.40383        -3.52070         4.95109
     2010.40657        -4.36138         4.99974
     2010.40930         1.36795         5.00875
     2010.41204        -5.69672         5.08532
     2010.41478         7.83660         4.93938
     2010.41752         0.51493         4.93307
     2010.42026         2.35426         5.00604
     2010.42299         0.53159         5.05469
     2010.42573        -4.19009         4.96731
     2010.42847        -1.56876         5.17090
     2010.43121        -5.57043         4.91866
     2010.43394        -1.53211         4.99613
     2010.43668        -3.46978         4.96370
     2010.43942         6.31755         5.03217
     2010.44216         0.18287         4.91596
     2010.44490        -5.99480         4.94569
     2010.44763         1.04253         5.02947
     2010.45037        -4.05515         4.90875
     2010.45311        -0.19282         4.92317
     2010.45585        -0.72049         4.96821
     2010.45859        -1.99416         5.07991
     2010.46132        -4.70384         5.01505
     2010.46406        -3.85951         4.94659
     2010.46680        -7.37618         4.91145
     2010.46954         2.26514         4.91956
     2010.47227        -6.93253         4.97271
     2010.47501        -5.28620         5.00064
     2010.47775        -8.57088         5.27540
     2010.48049        -0.35255         5.08802
     2010.48323         2.26378         4.91055
     2010.48596         7.92011         5.02676
     2010.48870         3.49043         4.93668
     2010.49144         2.51876         4.97361
     2010.49418         1.86409         4.89524
     2010.49692         2.37741         4.94389
     2010.49965        -0.99826         4.94569
     2010.50239         1.54907         4.90695
     2010.50513         0.68339         4.93848
     2010.50787         4.21072         4.99974
     2010.51060         3.50705         4.94659
     2010.51334        -1.84662         4.94028
     2010.51608         3.24270         4.97722
     2010.51882         6.50903         5.02586
     2010.52156         1.75036         4.97902
     2010.52429         6.61668         4.94749
     2010.52703        12.32101         5.10514
     2010.52977         3.18234         5.01595
     2010.53251        -2.70034         4.92677
     2010.53525        -0.32401         4.99163
     2010.53798        -1.34468         4.97902
     2010.54072         1.64164         4.94028
     2010.54346        -2.57103         5.01235
     2010.54620        -4.06870         4.95560
     2010.54893        -3.14037         4.92317
     2010.55167        -6.11105         4.96551
     2010.55441        -2.92972         4.99343
     2010.55715         2.25161         5.03397
     2010.55989         2.09693         5.00785
     2010.56262         0.27126         5.01685
     2010.56536         5.55659         4.97812
     2010.56810        -0.20009         4.97001
     2010.57084         1.05024         5.15288
     2010.57357        -0.52043         5.11234
     2010.57631         2.11090         5.03938
     2010.57905        -0.49078         4.92136
     2010.58179        -1.92345         4.92317
     2010.58453        -5.50812         4.95289
     2010.58726        -3.45780         5.02766
     2010.59000         1.74853         5.05019
     2010.59274         8.18586         4.95109
     2010.59548         6.71218         4.97541
     2010.59822         1.29951         4.95740
     2010.60095         4.67784         4.92046
     2010.60369         3.39617         4.93578
     2010.60643         0.16249         5.07451
     2010.60917         3.89582         4.93578
     2010.61190         1.07415         5.02316
     2010.61464         2.67747         4.92317
     2010.61738         1.31680         4.99343
     2010.62012         8.54513         4.94479
     2010.62286         2.25545         4.93307
     2010.62559         4.07078         4.99974
     2010.62833         1.76311         5.09973
     2010.63107         6.04243         5.15559
     2010.63381         2.57176         5.11415
     2010.63655         6.41509         5.04118
     2010.63928         8.67342         4.98352
     2010.64202         4.27674         4.99343
     2010.64476        -1.45493         5.03667
     2010.64750        -1.40560         4.95740
     2010.65023         6.92472         5.11775
     2010.65297         3.21905         5.17270
     2010.65571         5.76438         4.98713
     2010.65845         7.45070         4.86461
     2010.66119         6.13403         4.98442
     2010.66392         5.52836         5.05109
     2010.66666        10.17069         4.96010
     2010.66940         1.85801         5.03127
     2010.67214         1.23834         4.96010
     2010.67488         8.61967         5.00514
     2010.67761        12.61599         4.90875
     2010.68035         8.94432         4.92587
     2010.68309        14.54465         5.03938
     2010.68583         9.47697         4.93488
     2010.68856         1.18530         4.99343
     2010.69130         1.39363         4.89254
     2010.69404        -3.61804         4.99974
     2010.69678        -3.82372         4.91055
     2010.69952        -1.21639         4.95019
     2010.70225         0.88194         4.96911
     2010.70499        -2.60174         4.93938
     2010.70773         0.91659         5.07811
     2010.71047         8.82892         4.96370
     2010.71321         4.97424         5.08081
     2010.71594        10.86857         5.19702
     2010.71868         7.33290         4.97091
     2010.72142         1.18523         5.02496
     2010.72416         5.77055         5.05109
     2010.72689         1.28888         5.11234
     2010.72963         1.30621         4.98983
     2010.73237         1.90553         5.04478
     2010.73511         4.64886         5.07811
     2010.73785         3.30519         5.08802
     2010.74058         5.28851         5.03757
     2010.74332         5.97784         4.98082
     2010.74606         7.84117         5.09613
     2010.74880         8.39249         5.21955
     2010.75154         9.59482         4.97992
     2010.75427         4.77715         5.08081
     2010.75701         5.15048         5.09973
     2010.75975         8.13380         4.98532
     2010.76249         5.71813         5.01325
     2010.76522         0.38646         4.97812
     2010.76796         5.51678         5.02496
     2010.77070        -1.89289         4.96280
     2010.77344         1.55844         5.31594
     2010.77618         4.98876         4.96731
     2010.77891        -2.54391         4.94479
     2010.78165         1.64442         4.92407
     2010.78439         0.06375         5.08532
     2010.78713        16.27007         5.07361
     2010.78987        11.84740         4.96370
     2010.79260         7.12073         4.91416
     2010.79534        -4.28695         4.90335
     2010.79808         1.34938         4.88533
     2010.80082         3.10071         4.91776
     2010.80355         8.92103         5.00875
     2010.80629         5.91236         4.98262
     2010.80903         8.75569         4.98262
     2010.81177         5.58802         5.03307
     2010.81451         8.80334         5.01235
     2010.81724        10.51667         4.97541
     2010.81998         3.74100         4.94208
     2010.82272         8.00532         5.16459
     2010.82546         5.33965         4.96370
     2010.82820         0.74698         4.94389
     2010.83093         4.93430         5.28171
     2010.83367         0.15663         5.16910
     2010.83641        -1.72304         4.94479
     2010.83915         3.86828         4.94298
     2010.84188         1.23961         4.96641
     2010.84462         5.92194         4.91866
     2010.84736         6.77027         4.95199
     2010.85010         5.02559         5.01685
     2010.85284        12.50792         5.16730
     2010.85557         0.36925         5.04388
     2010.85831         2.07257         4.98442
     2010.86105        -9.23010         4.98532
     2010.86379        -6.05277         4.92046
     2010.86653        -5.86845         4.95019
     2010.86926        -4.36412         4.95740
     2010.87200        -0.06979         4.96911
     2010.87474        -1.42446         5.04568
     2010.87748        -7.33114         5.01505
     2010.88021         0.74919         4.98803
     2010.88295        -2.49848         5.12225
     2010.88569         4.94684         5.00154
     2010.88843         0.91417         5.18531
     2010.89117         4.10450         5.20333
     2010.89390         5.50782         4.95379
     2010.89664        -1.42185         4.89794
     2010.89938         2.51948         4.94118
     2010.90212         1.26781         4.98172
     2010.90485        -1.51887         5.04208
     2010.90759         3.26246         4.97722
     2010.91033         4.24879         4.88533
     2010.91307        -4.47889         4.92497
     2010.91581        -0.09756         4.96551
     2010.91854         3.29377         4.93127
     2010.92128        -2.99991         4.90965
     2010.92402        -0.02658         5.05559
     2010.92676         5.57375         4.90425
     2010.92950         0.73107         4.97451
     2010.93223         1.91740         5.08172
     2010.93497         8.21873         5.04028
     2010.93771         3.18506         5.01776
     2010.94045         1.17738         5.13667
     2010.94318         3.70771         5.04298
     2010.94592         0.70404         4.98352
     2010.94866         6.61436         4.99073
     2010.95140         7.83669         5.17000
     2010.95414        -0.59898         4.90785
     2010.95687        -1.80866         4.88173
     2010.95961        -6.73333         4.98713
     2010.96235        -2.02900         4.95289
     2010.96509        -1.09067         4.94298
     2010.96783        -0.35435         4.91326
     2010.97056        -2.38602         4.88983
     2010.97330         1.83431         5.01505
     2010.97604        -6.81137         4.99343
     2010.97878         1.00296         4.94569
     2010.98151        -2.12971         4.95830
     2010.98425         0.81761         4.97541
     2010.98699         1.09994         4.93578
     2010.98973        -2.84173         5.02046
     2010.99247        -4.77340         5.11955
     2010.99520         4.21792         5.00875
     2010.99794        -8.91375         4.93037
     2011.00342         0.70790         4.87542
     2011.00616         3.65323         4.91686
     2011.00889         2.10956         5.00785
     2011.01163        -1.60012         4.87002
     2011.01437        -7.53379         4.97632
     2011.01711         0.41454         5.01325
     2011.01984        -1.06614         4.98172
     2011.02258        -3.83281         4.91326
     2011.02532        -1.35448         5.01776
     2011.02806         0.67085         5.13487
     2011.03080        -9.04483         4.87632
     2011.03353        -3.33050         4.97722
     2011.03627        -5.12217         4.92226
     2011.03901        -3.83185         5.00694
     2011.04175        -1.83052         5.00064
     2011.04449        -6.73819         4.99974
     2011.04722        -9.19987         5.00604
     2011.04996        -4.38654         5.01325
     2011.05270        -4.40021         4.92226
     2011.05544       -10.71988         4.96911
     2011.05817        -4.62056         4.86641
     2011.06091        -5.62523         4.89254
     2011.06365        -4.33390         4.94659
     2011.06639        -8.33858         4.89704
     2011.06913        -6.57525         5.20243
     2011.07186       -10.53492         5.00334
     2011.07460       -13.00260         4.96821
     2011.07734        -3.60527         4.93398
     2011.08008        -6.62694         4.87452
     2011.08282       -13.70261         4.98262
     2011.08555       -10.64729         4.95109
     2011.08829        -5.72996         4.96100
     2011.09103       -11.90363         4.95019
     2011.09377        -9.11431         4.95379
     2011.09650         0.39802         4.94118
     2011.09924        -9.80165         4.96280
     2011.10198         1.14267         5.08352
     2011.10472        -2.29200         4.92857
     2011.10746        -6.17167         4.92226
     2011.11019        -6.01935         4.88263
     2011.11293        -8.96202         4.95650
     2011.11567        -5.73069         4.93758
     2011.11841         1.90564         5.13216
     2011.12115        -5.90204         4.96370
     2011.12388       -16.43271         5.05649
     2011.12662        -0.73938         5.02136
     2011.13210        -6.26073         4.93668
     2011.13483        -3.34840         8.21398
     2011.13757        -7.84808         4.90335
     2011.14031        -3.48275         4.90965
     2011.14305        -7.04342         4.98262
     2011.14579        -9.43509         4.99433
     2011.14852       -15.23177         4.90064
     2011.15126        -3.43344         4.94389
     2011.15400         0.74089         4.94569
     2011.15674        -2.61379         4.87452
     2011.15948         1.60954         6.66091
     2011.16221        -0.74713         4.92947
     2011.16495        -2.22281         4.96821
     2011.16769        -9.85148         4.95740
     2011.17043       -12.80915         4.93578
     2011.17316       -15.64682         4.90605
     2011.17590       -10.02650         4.91055
     2011.17864        -2.09617         4.95740
     2011.18138        -5.58484         5.01776
     2011.18412        -8.66552         4.95650
     2011.18685        -7.70319         4.96551
     2011.18959        -4.31586         4.87722
     2011.19233        -4.84354         4.92677
     2011.19507        -1.01821         5.03757
     2011.19780        -2.13288         5.07091
     2011.20054        -3.48355         5.31594
     2011.20328        -7.68923         5.05559
     2011.20602        -2.36990         5.03397
     2011.20876        -7.12657         4.95109
     2011.21149        -8.11225         5.03757
     2011.21423        -5.48192         5.03037
     2011.21697        -7.00359         5.05379
     2011.21971        -7.73727         5.00064
     2011.22245        -7.11194         4.91416
     2011.22518        -5.99261         5.02586
     2011.22792        -6.89029         5.06820
     2011.23066        -8.10996         4.94298
     2011.23340        -6.98663         4.95740
     2011.23613        -0.98430         4.89254
     2011.23887        -8.07298         4.90875
     2011.24161        -5.98665         5.01325
     2011.24435       -11.50132         4.95740
     2011.24709        -5.87300         4.94659
     2011.24982        -7.91267         5.00334
     2011.25256        -5.82934         4.88443
     2011.25530        -1.13602         4.96010
     2011.25804         0.24231         5.08982
     2011.26078        -6.80736         5.11505
     2011.26351        -9.79403         4.92947
     2011.26625        -3.93071         4.90335
     2011.26899        -0.59238         4.85740
     2011.27173        -4.39305         5.05019
     2011.27446        -6.68573         5.19072
     2011.27720       -11.32040         5.14838
     2011.27994        -6.38507         4.97271
     2011.28268        -7.52175         4.87272
     2011.28542        -5.80642         4.96100
     2011.28815       -11.26909         4.92497
     2011.29089        -1.37476         4.94659
     2011.29363        -8.88944         4.94569
     2011.29637        -2.35311         4.85020
     2011.29911         3.18322         4.86281
     2011.30184         0.57854         5.08712
     2011.30458        -2.39813         4.97181
     2011.30732        -2.25780         4.96190
     2011.31006        -5.14048         4.86911
     2011.31279         7.86685         4.94028
     2011.31553        -0.29682         4.92226
     2011.31827        -5.42150         4.93307
     2011.32101        -5.27317         4.96460
     2011.32375       -10.77884         4.91776
     2011.32648       -11.90651         4.86821
     2011.32922        -8.97219         4.84209
     2011.33196        -5.76186         5.02766
     2011.33470       -11.44153         4.98532
     2011.33744        -9.72321         4.99523
     2011.34017        -3.34188         5.08352
     2011.34291        -2.25755         4.97722
     2011.34565        -2.56723         5.03217
     2011.34839        -9.24590         5.00604
     2011.35112        -4.79857         5.01145
     2011.35386       -11.40624         4.92947
     2011.35660        -5.75492         4.85110
     2011.35934       -17.06759         4.86461
     2011.36208        -9.94026         4.94118
     2011.36481       -11.30194         5.06460
     2011.36755        -5.29261         5.04388
     2011.37029        -7.47828         4.98082
     2011.37303        -3.79196         4.92317
     2011.37577        -4.48863         5.01956
     2011.37850       -12.14530         5.09343
     2011.38124        -5.71097         5.73303
     2011.38398        -9.73665         4.99433
     2011.38672        -6.52532         4.95289
     2011.38945        -5.61799         4.97632
     2011.39219        -5.19567         5.02676
     2011.39493        -2.71634         5.10604
     2011.39767        -9.81401         5.00154
     2011.40041        -5.92669         5.05379
     2011.40314        -9.41236         5.01595
     2011.40588        -5.78703         5.01325
     2011.40862        -2.93871         5.03577
     2011.41136       -10.71938         5.05919
     2011.41410        -7.81205         4.97902
     2011.41683        -9.15872         5.04838
     2011.41957        -6.69240         5.07091
     2011.42231       -15.25707         5.02046
     2011.42505        -5.09374         5.04568
     2011.42778       -10.42342         5.05109
     2011.43052        -5.41409         5.01595
     2011.43326        -5.88576         4.95740
     2011.43600       -12.29944         5.01415
     2011.43874       -10.47211         5.04838
     2011.44147        -8.77878         5.06100
     2011.44421        -4.85645         5.14027
     2011.44695       -11.53313         5.00514
     2011.44969        -8.49580         4.94929
     2011.45243        -7.28747         5.01145
     2011.45516       -12.07415         5.09163
     2011.45790       -10.64082         5.15649
     2011.46064        -3.17149         5.04118
     2011.46338        -7.89117         5.06190
     2011.46611        -9.99084         5.01595
     2011.46885        -4.93151         5.05199
     2011.47159        -0.53718         5.17631
     2011.47433        -7.19086         5.12676
     2011.47707        -8.48953         5.04028
     2011.47980        -3.04220         4.99974
     2011.48254        -5.31688         5.08622
     2011.48528        -7.18855         5.09163
     2011.48802        -8.14422         5.13757
     2011.49076        -0.17590         5.00965
     2011.49349        -9.36857         5.04388
     2011.49623        -1.13224         5.17000
     2011.49897        -6.42592         5.10334
     2011.50171        -3.86559         5.07541
     2011.50444        -7.36626         5.09163
     2011.50718        -3.96993         5.04388
     2011.50992        -1.08461         5.08352
     2011.51266        -5.82928         5.62133
     2011.51540        -6.75895         5.08442
     2011.51813        -1.47363         5.01956
     2011.52087         3.00770         5.00334
     2011.52361         0.25903         5.02766
     2011.52635        -5.06265         5.12225
     2011.52908         1.33768         5.03667
     2011.53182         0.20601         5.05109
     2011.53456        -1.38966         5.00334
     2011.53730        -5.54934         5.09433
     2011.54004        -8.49501         5.15649
     2011.54277        -5.40268         5.03847
     2011.54551        -2.44236         5.14838
     2011.54825         1.10797         5.07541
     2011.55099        -2.67170         5.02046
     2011.55373        -5.72638         5.03667
     2011.55646        -7.64905         5.03307
     2011.55920        -3.58172         5.05739
     2011.56194         5.10961         5.18802
     2011.56468         3.77993         5.08532
     2011.56741        -1.31274         5.02406
     2011.57015        -8.93241         5.13306
     2011.57289        -7.48609         5.00875
     2011.57563        -1.42276         5.07451
     2011.57837         2.03157         5.05199
     2011.58110        -5.21511         5.04568
     2011.58384         0.22022         5.17901
     2011.58658        -3.48945         5.25018
     2011.58932        -1.29013         5.04028
     2011.59206        -2.69180         4.97902
     2011.59479         0.85153         5.03217
     2011.59753         5.22386         5.03307
     2011.60027        -0.87782         5.02496
     2011.60301        -2.01649         5.05019
     2011.60574        -1.14516         5.09523
     2011.60848         4.64316         5.22405
     2011.61122         4.73349         5.30062
     2011.61396         2.29382         5.13487
     2011.61670        -3.47286         5.15288
     2011.61943        -4.57453         5.12406
     2011.62217        -1.88020         5.17811
     2011.62491         1.72413         5.11505
     2011.62765        -3.79555         5.14297
     2011.63039         1.44678         5.09433
     2011.63312         2.85111         5.11595
     2011.63586         4.74143         5.11505
     2011.63860         1.20776         5.04478
     2011.64134        -2.09091         5.38711
     2011.64407         6.41741         5.22405
     2011.64681        -0.07026         5.15468
     2011.64955         6.82407         5.25468
     2011.65229        -2.99260         5.20513
     2011.65503         4.76772         5.14117
     2011.65776         3.07905         5.12406
     2011.66050         5.66638         5.32495
     2011.66324         6.96670         5.10424
     2011.66598        -0.40497         5.13577
     2011.66872        -5.68364         5.24657
     2011.67145         9.85668         5.03487
     2011.67419         2.45501         5.04568
     2011.67693         8.08334         4.99523
     2011.67967         3.12667         5.72312
     2011.68240        -1.39301         5.12406
     2011.68514         1.99332         5.11685
     2011.68788         5.60065         5.14478
     2011.69062        11.09797         5.18261
     2011.69336         7.16930         5.10334
     2011.69609         4.95763         5.16099
     2011.69883         2.45295         5.18802
     2011.70157         3.95428         5.08352
     2011.70431        11.63661         5.11054
     2011.70705         3.04893         5.17540
     2011.70978        -0.65274         5.14658
     2011.71252         7.69559         5.17180
     2011.71526        -4.36808         5.30603
     2011.71800         3.85624         5.27180
     2011.72073         4.78357         5.05199
     2011.72347         6.14690         5.04748
     2011.72621         1.54522         5.12856
     2011.72895         5.74455         5.08622
     2011.73169        22.39888         5.54295
     2011.73442         7.04520         5.09613
     2011.73716         5.83353         5.13397
     2011.73990         2.11086         5.06280
     2011.74264        -0.93181         5.05469
     2011.74538         0.80251         5.23306
     2011.74811        11.41484         5.29522
     2011.75085         9.88117         5.27180
     2011.75359         2.39349         5.17000
     2011.75633        11.14682         5.20423
     2011.75906        10.15915         5.15739
     2011.76180         5.38047         5.12135
     2011.76454        -1.60620         5.12045
     2011.76728         1.06313         5.09703
     2011.77002         4.14846         5.17631
     2011.77275        14.87278         5.37539
     2011.77549         4.61011         5.34837
     2011.77823         1.41444         5.15378
     2011.78097         9.65676         5.12225
     2011.78371         5.43009         5.12766
     2011.78644         7.62742         5.03037
     2011.78918         4.54174         5.09072
     2011.79192         2.77007         5.10604
     2011.79466         0.56840         5.13577
     2011.79739        10.77172         5.15108
     2011.80013         3.58805         5.26008
     2011.80287         5.68338         5.05379
     2011.80561         1.16171         5.02676
     2011.80835         0.94803         5.09523
     2011.81108         2.33236         5.06370
     2011.81382        -4.12731         5.08442
     2011.81656         0.47501         5.03397
     2011.81930         0.47234         5.01956
     2011.82203        -3.00733         5.07451
     2011.82477         4.85899         5.15198
     2011.82751         1.06032         5.00334
     2011.83025        -3.14235         5.36819
     2011.83299        -3.89102         4.97722
     2011.83572        -3.65870         5.07631
     2011.83846        -2.14537         5.13847
     2011.84120         2.82996         5.01685
     2011.84394         2.11028         5.00424
     2011.84668         3.55861         5.00424
     2011.84941         1.48294         4.97451
     2011.85215        -3.54274         5.04478
     2011.85489        -6.16641         5.07901
     2011.85763        -4.35108         5.12496
     2011.86036         3.77125         4.97632
     2011.86310         7.97657         5.01055
     2011.86584         6.38190         5.06100
     2011.86858         9.72823         4.99613
     2011.87132        -0.25845         4.98442
     2011.87405        -1.09512         4.98532
     2011.87679         0.50721         5.06910
     2011.87953         4.83453         5.07901
     2011.88227         6.52086         5.02316
     2011.88501         3.96019         4.94929
     2011.88774        -8.35249         5.05919
     2011.89048         3.74784         5.02226
     2011.89322        -2.80883         5.26909
     2011.89596         0.05250         5.02136
     2011.89869         0.90582         5.03037
     2011.90143        -9.95985         5.02676
     2011.90417        -0.92052         5.00514
     2011.90691         4.70580         5.02766
     2011.90965        -1.61487         5.02766
     2011.91238         4.97846         5.11955
     2011.91512        -7.85222         5.00424
     2011.91786        -2.66789         5.08802
     2011.92060        -3.88256         5.03577
     2011.92334        -8.75523         5.06640
     2011.92607        -2.82591         5.08532
     2011.92881        -2.43858         5.08712
     2011.93155        -2.91425         5.10334
     2011.93429        -0.18193         5.05379
     2011.93702         0.91840         5.06640
     2011.93976         2.41173         5.07541
     2011.94250         1.62405         5.06640
     2011.94524        -0.90062         5.11144
     2011.94798         5.65471         5.13667
     2011.95071         2.05804         4.99794
     2011.95345         4.00736         5.14207
     2011.95619         2.24469         5.10874
     2011.95893        -1.69598         4.95109
     2011.96167         0.32134         4.97722
     2011.96440         4.23067         5.09883
     2011.96714         4.74900         4.94208
     2011.96988         5.49632         4.88893
     2011.97262        -0.38535         4.94569
     2011.97535        -5.09702         4.92857
     2011.97809        -1.20370         4.94389
     2011.98083         3.14963         5.11955
     2011.98357         1.45196         4.87002
     2011.98631         4.34029         4.96911
     2011.98904         0.22161         5.01685
     2011.99178         3.85894         5.01325
     2011.99452         5.75327         5.03847
     2011.99726         2.14259         4.90425
     2012.00273         0.58425         4.94659
     2012.00547         0.54957         4.95109
     2012.00821        -4.85310         4.98532
     2012.01095         4.58323         4.94929
     2012.01368         0.95556         4.93037
     2012.01642         6.01988         4.94208
     2012.01916         1.88721         4.89704
     2012.02190         2.60354         4.90695
     2012.02464         0.93886         4.95740
     2012.02737         5.00719         4.88443
     2012.03011         3.34952         4.92136
     2012.03285        -1.06716         4.91416
     2012.03559         0.25417         4.92857
     2012.03833        -2.66950         4.90875
     2012.04106        -0.84417         4.90335
     2012.04380         5.69215         4.93578
     2012.04654         6.02248         4.90515
     2012.04928         9.15081         4.94839
     2012.05201         5.86513         4.96460
     2012.05475         7.08046         4.99884
     2012.05749        -4.45621         4.96010
     2012.06023         1.87811         4.98262
     2012.06297         0.42244         4.97361
     2012.06570         9.50377         5.05199
     2012.06844        -2.53891         4.98262
     2012.07118        -3.44858         4.89073
     2012.07392        -3.34725         4.93758
     2012.07666        -4.34292         4.96100
     2012.07939         0.25340         4.94839
     2012.08213         2.64673         5.32675
     2012.08487         7.51206         4.92677
     2012.08761        -5.01362         4.89614
     2012.09034        -4.84129         4.91145
     2012.09308         1.84004         4.92317
     2012.09582         3.77536         4.98442
     2012.09856         3.02969         4.96460
     2012.10130         2.09802         5.03938
     2012.10403        -2.27365         4.93848
     2012.10677        -2.72733         5.12045
     2012.10951         2.87300         5.10514
     2012.11225         2.52733         5.05469
     2012.11498        -1.47535         4.97722
     2012.11772         1.91398         4.97091
     2012.12046         2.07131         5.09973
     2012.12320        -0.38937         5.00424
     2012.12594        -3.79404         5.02136
     2012.12867        -5.15671         4.97001
     2012.13141         0.33462         5.04568
     2012.13415        -0.92606         4.96370
     2012.13689        -1.68773         5.04748
     2012.13963         2.20760         5.08442
     2012.14236         1.70692         5.11685
     2012.14510         4.60425         5.03217
     2012.14784        -5.79442         4.93848
     2012.15058        -4.31510         5.08172
     2012.15331        -6.85077         4.91055
     2012.15605         1.96356         5.00875
     2012.15879        -2.01211         5.04568
     2012.16153        -5.23379         5.00064
     2012.16427        -0.28146         5.07000
     2012.16700       -11.41613         5.05019
     2012.16974        -7.99281         4.95830
     2012.17248        -7.70948         4.95830
     2012.17522        -5.77615         4.94839
     2012.17796         2.31517         5.05109
     2012.18069        -4.82550         4.98713
     2012.18343        -7.08817         4.95109
     2012.18617        -5.75385         5.01325
     2012.18891        -1.12052         5.03307
     2012.19164        -0.08519         5.03217
     2012.19438        -1.78986         5.03397
     2012.19712       -15.48054         5.04928
     2012.19986        -0.08721         4.97361
     2012.20260         2.51712         4.99974
     2012.20533         3.35644         4.95830
     2012.20807         4.91177         5.04298
     2012.21081        -2.02590         4.98803
     2012.21295        -3.82287         6.78163
     2012.21629        -2.48925         4.97001
     2012.21902        -5.78692         4.95560
     2012.22176        -1.79759         4.94208
     2012.22450        -8.67927         4.92947
     2012.22724        -1.87994         4.91596
     2012.22997         0.42939         4.96010
     2012.23271         2.93471         4.99163
     2012.23545         3.42404         5.00514
     2012.23819        -2.42563         4.98983
     2012.24093         0.29069         4.89073
     2012.24366        -3.31498         4.97812
     2012.24640         3.81535         4.95019
     2012.24914        -4.64732         5.02676
     2012.25188        -4.94100         4.92767
     2012.25462        -9.43667         4.96190
     2012.25735        -2.18634         4.97001
     2012.26009        -3.87502         4.90605
     2012.26283        -1.51369         4.95289
     2012.26557        -3.80736         4.93307
     2012.26830        -0.46004         4.91055
     2012.27104        -3.96671         5.01055
     2012.27378        -1.65538         4.94028
     2012.27652         0.68294         5.03127
     2012.27926         4.32427         5.08622
     2012.28199         1.66960         4.90154
     2012.28473         3.81193         4.91236
     2012.28747       -11.32275         4.91145
     2012.29021        -3.05142         4.96731
     2012.29295        -3.55109         4.97722
     2012.29568        -3.04377         5.02406
     2012.29842        -3.85744         4.89614
     2012.30116        -4.59811         4.90425
     2012.30390        -4.45079         4.89974
     2012.30663        -5.92846         4.97271
     2012.30937        -2.50813         4.97722
     2012.31211         7.01620         5.24837
     2012.31485        -6.01748         5.10244
     2012.31759        -3.17015         4.96460
     2012.32032        -5.17682         5.01235
     2012.32306        -2.34650         4.94929
     2012.32580        -4.16917         4.92587
     2012.32854       -10.48184         5.08172
     2012.33128        -3.05352         4.98983
     2012.33401        -4.02619         5.05649
     2012.33675        -3.78786         5.02947
     2012.33949        -5.06153         4.93758
     2012.34223        -9.66921         4.89434
     2012.34496       -15.26688         4.87632
     2012.34770        -8.91155         4.99253
     2012.35044        -6.15323         4.97722
     2012.35318        -1.54090         5.00244
     2012.35592        -0.32457         4.90335
     2012.35865        -4.32425         4.88713
     2012.36139        -6.83792         4.90154
     2012.36413        -5.84559         4.94749
     2012.36687        -0.53027         4.95289
     2012.36961        -2.62594         5.05559
     2012.37234        -3.44461         4.96190
     2012.37508         1.74872         4.95199
     2012.37782        -4.31896         5.00604
     2012.38056        -5.20563         5.14117
     2012.38329        -1.43030         5.02136
     2012.38603        -6.77798         5.19612
     2012.38877        -4.49665         5.05919
     2012.39151         0.54268         5.01776
     2012.39425         0.43400         5.01776
     2012.39698        -1.57767         5.05019
     2012.39972        -3.02934         4.93217
     2012.40246        -3.35501         4.94118
     2012.40520        -5.18869         4.90875
     2012.40794        -2.81436         4.98172
     2012.41067        -6.69703         4.97992
     2012.41341        -3.39271         4.94479
     2012.41615        -6.45838         4.96190
     2012.41889         4.55995         5.13667
     2012.42162         2.96327         4.91956
     2012.42436         1.41460         5.09793
     2012.42710        -3.02607         4.95109
     2012.42984        -1.71874         4.96641
     2012.43258         2.68958         4.94839
     2012.43531        -7.55809         4.89704
     2012.43805        -4.39776         4.93307
     2012.44079        -8.72144         4.91686
     2012.44353        -6.06711         4.94028
     2012.44626        -7.22978         5.00785
     2012.44900        -2.00046         4.92677
     2012.45174        -0.12713         4.94208
     2012.45448         4.43120         4.94839
     2012.45722         1.55052         4.96911
     2012.45995         5.11385         5.18802
     2012.46269         1.61518         4.91776
     2012.46543        -5.46549         5.02857
     2012.46817         0.56583         4.92857
     2012.47091        -2.95384         4.96641
     2012.47359         4.89946         5.13216
     2012.47638        -3.43619         4.95109
     2012.47912         0.90814         4.96641
     2012.48186        -2.19253         4.95830
     2012.48459        -1.04921         5.83573
     2012.48733        -8.30188         4.91596
     2012.49007        -5.64055         4.99073
     2012.49281        -0.98722         4.99163
     2012.49555        -0.12690         5.03217
     2012.49828        -3.58557         4.91866
     2012.50102         0.93176         5.01595
     2012.50376         1.34608         4.92497
     2012.50650        -2.42659         4.91686
     2012.50924        -1.67226         5.07541
     2012.51197        -2.61694         5.11505
     2012.51471        -1.96361         4.95289
     2012.51745        -5.68428         4.96460
     2012.52019         2.04505         4.93938
     2012.52292        -6.10363         4.93668
     2012.52566         0.41570         4.96370
     2012.52840         1.42203         4.95019
     2012.53114         1.69935         4.95740
     2012.53388         2.13468         4.92767
     2012.53661        -3.59899         5.05199
     2012.53935         9.64333         5.11595
     2012.54209         9.40366         5.04658
     2012.54483        -0.26101         4.94028
     2012.54757         3.52831         4.98623
     2012.55030         0.82464         4.96911
     2012.55304        -2.78303         4.94389
     2012.55578        -3.67370         4.99613
     2012.55852        -3.13638         4.92677
     2012.56125         3.50595         4.91506
     2012.56399         0.82728         4.92046
     2012.56673        -3.77140         4.98442
     2012.56947         2.31393         4.96821
     2012.57221        -4.90674         4.95920
     2012.57494        -1.09642         4.96280
     2012.57768        -4.20009         4.93848
     2012.58042         3.93524         4.91326
     2012.58316        -1.39343         4.96280
     2012.58590         2.66689         4.98442
     2012.58863         2.88922         4.93938
     2012.59137         4.57455         4.94569
     2012.59411         7.34087         4.93217
     2012.59685         4.21320         5.09883
     2012.59958         3.09753         5.00424
     2012.60232         3.35985         5.21684
     2012.60506         1.43518         4.92136
     2012.60780        -2.59449         4.91596
     2012.61054         6.51584         4.88893
     2012.61327         5.32316         4.91236
     2012.61601         3.15349         4.96460
     2012.61875         6.95082         4.95019
     2012.62149         7.67414         4.95830
     2012.62423         2.14447         5.11955
     2012.62696         2.03480         4.96551
     2012.62970         6.84512         5.04568
     2012.63244        -0.10955         4.98893
     2012.63518         5.12778         4.97181
     2012.63791         4.38111         4.98262
     2012.64065         5.50143         4.92677
     2012.64339        11.26176         4.94389
     2012.64613         8.48009         4.96460
     2012.64887        10.80241         4.96190
     2012.65160         6.79774         5.04658
     2012.65434        -0.28793         4.94118
     2012.65708         6.01439         5.06640
     2012.65982         2.52972         5.08802
     2012.66256         4.84805         4.98983
     2012.66529         7.51837         5.09072
     2012.66803         5.39070         4.99884
     2012.67077         6.38003         4.96551
     2012.67351         8.45036         4.96190
     2012.67624         3.92168         4.93758
     2012.67898         8.20201         4.97722
     2012.68172         3.81534         5.00334
     2012.68446        10.16466         5.16279
     2012.68720        13.37299         5.09253
     2012.68993         7.63332         4.99884
     2012.69267         3.18064         5.07901
     2012.69541         8.79597         5.03307
     2012.69815         5.89130         5.03847
     2012.70089        -2.62637         5.03127
     2012.70362         6.65895         4.95830
     2012.70636         9.20128         4.96731
     2012.70910         2.53561         4.98262
     2012.71184         9.44193         4.94028
     2012.71457         9.03826         4.90335
     2012.71731         9.66559         4.89614
     2012.72005        12.23591         4.90785
     2012.72279         7.64524         4.93037
     2012.72553        10.39057         4.96460
     2012.72826        16.28190         5.05469
     2012.73100         2.83722         5.13937
     2012.73374         2.95455         5.03307
     2012.73648         3.17188         4.93848
     2012.73921         5.29620         5.06100
     2012.74195        13.35553         5.06640
     2012.74469        10.36086         4.93938
     2012.74743         3.72918         4.96821
     2012.75017         6.59851         4.93848
     2012.75290        10.47284         5.07811
     2012.75564         4.29616         4.96100
     2012.75838        11.20649         4.97091
     2012.76112        10.32982         4.92317
     2012.76386         5.53415         4.96821
     2012.76659         8.26747         4.97451
     2012.76933         7.21380         4.99704
     2012.77207         3.23613         4.95109
     2012.77481         5.50245         5.02226
     2012.77754         0.03078         4.92136
     2012.78028         7.06011         5.00785
     2012.78302        -3.41957         5.11144
     2012.78576         4.28676         5.01866
     2012.78850         7.33709         5.04748
     2012.79123        -1.27658         5.32405
     2012.79397         3.55074         4.94839
     2012.79671        -0.86293         5.15288
     2012.79945         8.33640         5.18081
     2012.80219        10.78972         5.04748
     2012.80492        -1.13895         4.96641
     2012.80766         1.49738         4.96821
     2012.81040         0.61070         4.99523
     2012.81314        -1.80097         5.03217
     2012.81587        -1.97164         5.04658
     2012.81861        -6.26531         5.13577
     2012.82135         0.90001         5.06190
     2012.82409         4.56734         4.98262
     2012.82683         5.09767         5.04928
     2012.82956         2.04099         5.07000
     2012.83230         1.25532         5.17360
     2012.83504        -3.00235         5.05559
     2012.83778         1.92397         4.98172
     2012.84052         5.71530         5.02947
     2012.84325        -0.20137         5.04928
     2012.84599        -2.30605         5.06190
     2012.84873         2.20628         5.03938
     2012.85147         9.28161         5.06010
     2012.85420        -0.09606         5.00154
     2012.85694        -1.81074         5.06190
     2012.85968        -0.39541         5.02676
     2012.86242        -1.99108         4.98803
     2012.86516         4.28324         5.03217
     2012.86789         2.40957         5.15108
     2012.87063        -1.91410         4.95199
     2012.87337        -1.08478         5.02136
     2012.87611        -2.67245         4.96100
     2012.87885         6.18788         4.97271
     2012.88158         6.29021         4.98082
     2012.88432         6.43053         4.97451
     2012.88706         0.03886         5.20693
     2012.88980        -0.40881         5.12315
     2012.89253        -0.44449         4.93488
     2012.89527         1.33684         5.02676
     2012.89801        -2.92383         4.99433
     2012.90075         5.93249         5.07000
     2012.90349         2.52782         4.98713
     2012.90622         5.22115         5.00875
     2012.90896         3.94048         5.06010
     2012.91170        -0.02820         5.10784
     2012.91444        -0.76987         5.10153
     2012.91718         6.04546         4.99433
     2012.91991         2.55078         5.05199
     2012.92265        -8.19289         4.91236
     2012.92539        -3.58756         4.99974
     2012.92813        -4.81924         4.92046
     2012.93086        -5.34891         5.04658
     2012.93360        -3.92458         5.03667
     2012.93634        -1.96226         4.94479
     2012.93908        -4.95193         4.97902
     2012.94182        -5.04260         4.96010
     2012.94455         6.48673         4.94118
     2012.94729         3.92705         5.04748
     2012.95003         2.05138         5.00514
     2012.95277         2.62571         4.92677
     2012.95551         4.21003         4.92497
     2012.95824         7.85936         4.91596
     2012.96098         9.59269         5.23756
     2012.96372        -3.66799         5.06550
     2012.96646         2.06134         4.92317
     2012.96919        -2.80333         5.01776
     2012.97193         1.30000         5.04208
     2012.97467        -0.83268         4.95019
     2012.97741        -1.56035         4.95830
     2012.98015        -4.91002         4.92587
     2012.98288        -8.17270         4.93217
     2012.98562         4.05363         4.96460
     2012.98836        -4.79104         4.90695
     2012.99110        -3.88972         4.89794
     2012.99384        -0.27339         4.90245
     2012.99657        -3.71506         4.87902
     2012.99931        -3.10973         4.93938
     2013.00205        -0.36941         4.91055
     2013.00479        -0.01308         4.95289
     2013.00752        -5.24075         5.01956
     2013.01026        -4.73143         4.93488
     2013.01300        -2.90910         4.93668
     2013.01574         3.05023         4.91506
     2013.01848         1.17755         4.95379
     2013.02121         4.37888         4.98082
     2013.02395        -6.65379         4.96280
     2013.02669       -10.39747         5.11054
     2013.02943         0.96386         4.95560
     2013.03216        -4.36681         4.90965
     2013.03490        -3.79748         4.96100
     2013.03764        -5.29916         4.94479
     2013.04038       -10.54783         4.92317
     2013.04312        -9.58050         5.00334
     2013.04585        -2.47518         5.06280
     2013.04859        -6.08985         5.04658
     2013.05133        -7.13452         4.92046
     2013.05407        -4.64620         4.90515
     2013.05681        -6.37787         4.87362
     2013.05954        -4.42854         4.98262
     2013.06228        -6.76421         5.07901
     2013.06502         1.19911         5.15018
     2013.06776       -10.35856         5.02496
     2013.07049         1.10677         5.02046
     2013.07323        -0.35691         4.95920
     2013.07597        -5.75658         4.92407
     2013.07871        -3.89825         4.97541
     2013.08145        -4.23493         4.98172
     2013.08418        -4.55860         4.90875
     2013.08692        -5.22927         4.86821
     2013.08966        -7.52394         4.92407
     2013.09240        -3.92862         4.90515
     2013.09514         0.99571         4.93127
     2013.09787        -1.84896         5.14027
     2013.10061        -5.81264         5.24657
     2013.10335        -4.10331         5.02676
     2013.10609        -0.46598         4.93398
     2013.10882        -0.29366         4.91596
     2013.11156        -7.36833         5.01415
     2013.11430        -7.55400         4.90245
     2013.11704        -7.32767         4.99974
     2013.11978        -6.19735         5.12135
     2013.12251        -7.69302         4.89884
     2013.12525        -9.69969         4.93398
     2013.12799        -7.97037         4.94929
     2013.13073        -5.13404         4.94929
     2013.13347        -5.01671         4.96731
     2013.13620         3.16961         5.00064
     2013.13894        -2.41006         4.97181
     2013.14168        -4.26573         5.04298
     2013.14442         2.78859         5.23036
     2013.14715         5.49792         5.14748
     2013.14989        -9.41475         4.94028
     2013.15263        -1.89842         5.02226
     2013.15537       -19.68310         4.93578
     2013.15811       -17.66777         4.94208
     2013.16084        -8.87044         4.92407
     2013.16358        -5.88312         4.91055
     2013.16632        -7.36879         4.92407
     2013.16906         1.94554         4.95289
     2013.17180        -5.74414         4.91236
     2013.17453        -4.11781         4.95830
     2013.17727        -2.38648         5.09613
     2013.18001        -6.04515         5.00244
     2013.18275        -6.72283         4.91145
     2013.18548        -5.27850         4.88623
     2013.18822       -12.69417         4.93848
     2013.19096        -4.96985         4.93307
     2013.19370        -3.63652         4.95199
     2013.19644       -10.13519         4.98893
     2013.19917        -4.81587         4.94028
     2013.20191        -3.20754         4.96911
     2013.20465         0.70679         4.94659
     2013.20739        -0.16488         4.92947
     2013.21013        -0.46056         4.89434
     2013.21286         1.54377         4.92136
     2013.21560        -4.80190         4.98082
     2013.21834        -3.73558         4.92857
     2013.22108        -8.64225         4.87542
     2013.22381        -4.58392         4.89524
     2013.22655        -9.22460         4.88713
     2013.22929        -5.58127         4.91506
     2013.23203        -3.67994         4.93398
     2013.23477        -5.22162         4.94839
     2013.23750        -7.47729         5.00965
     2013.24024        -7.27296         4.99794
     2013.24298        -1.28163         5.00785
     2013.24572         4.89369         4.99974
     2013.24846        -1.19498         5.03938
     2013.25119        -1.96865         5.01415
     2013.25393        -4.47133         4.99884
     2013.25667        -3.23900         5.20153
     2013.25941        -1.49467         4.98262
     2013.26214        -3.51135         5.01415
     2013.26488         6.04398         5.07541
     2013.26762         0.43131         4.97001
     2013.27036        -5.77736         4.95650
     2013.27310        -1.50104         5.16640
     2013.27583        -3.33271         4.98532
     2013.27857       -11.53138         5.07721
     2013.28131        -2.14106         5.02046
     2013.28405        -3.88273         4.91776
     2013.28679        -3.66340         5.04118
     2013.28952        -4.77208         4.98893
     2013.29226        -5.57075         4.96641
     2013.29500        -3.11742         5.04658
     2013.29774        -2.58509         5.09433
     2013.30047        -9.82777         4.96551
     2013.30321        -6.33044         4.97902
     2013.30595        -3.13111         4.94839
     2013.30869        -8.94979         5.00154
     2013.31143        -8.70546         4.96460
     2013.31416        -1.25913         5.11505
     2013.31690        -9.82481         5.02766
     2013.31964        -5.23748         4.97451
     2013.32238        -8.64915         5.10964
     2013.32512         0.26017         5.00064
     2013.32785         0.17550         4.94659
     2013.33059        -7.74217         4.96010
     2013.33333        -9.91384         4.96551
     2013.33607       -10.90252         4.99253
     2013.33880        -4.06519         5.03127
     2013.34154         0.87314         4.99704
     2013.34428        -3.27654         5.03307
     2013.34702        -5.54821         5.05289
     2013.34976        -2.89888         5.01685
     2013.35249        -9.84156         5.01685
     2013.35523        -4.75323         5.08532
     2013.35797        -0.47190         5.04118
     2013.36071        -9.11557         5.25198
     2013.36344        -1.80225         5.09523
     2013.36618         0.41908         5.06190
     2013.36892        -0.24659         4.97812
     2013.37166        -3.36327         5.04388
     2013.37440        -0.86994         4.93488
     2013.37713        -5.08661         4.99253
     2013.37987        -4.81729         5.00154
     2013.38261        -8.82396         5.00154
     2013.38535        -5.57363         5.15108
     2013.38809        -2.42930         4.94659
     2013.39082        -4.41598         4.90875
     2013.39356        -2.34965         4.99613
     2013.39630        -5.16332         5.05469
     2013.39904        -8.70500         5.03938
     2013.40177         0.40833         5.10424
     2013.40451         0.87366         5.00514
     2013.40725        -1.54302         5.11415
     2013.40999         0.53531         5.11685
     2013.41273        -4.27636         5.06370
     2013.41546        -3.19504         5.11415
     2013.41820         0.35029         4.95019
     2013.42094        -3.42338         5.08442
     2013.42368         0.28095         5.05199
     2013.42642         3.47327         5.14387
     2013.42915         4.82860         5.07991
     2013.43189        -1.89107         5.02586
     2013.43463        -0.99775         5.07901
     2013.43737         2.27758         5.00604
     2013.44010         4.22491         5.07000
     2013.44284         1.69523         5.05199
     2013.44558         2.31156         5.10604
     2013.44832        -5.10011         4.97992
     2013.45106        -6.52578         5.01145
     2013.45379         1.75454         5.15198
     2013.45653        -3.89413         5.12766
     2013.45927        -5.72680         5.11595
     2013.46201         2.14852         5.02586
     2013.46475         0.08785         5.05199
     2013.46748        -0.72382         5.06910
     2013.47022         3.49150         5.06280
     2013.47296        -8.09817         5.07000
     2013.47570         2.09216         4.95379
     2013.47843        -0.21051         4.96731
     2013.48117        -2.83619         4.98532
     2013.48391         2.26014         5.04028
     2013.48665        -0.80953         4.98532
     2013.48939        -5.80721         4.91416
     2013.49212        -0.98988         4.97361
     2013.49486        -1.62455         4.93217
     2013.49760         0.98177         5.09343
     2013.50034        -3.78790         4.93578
     2013.50308        -2.37557         4.97722
     2013.50581         3.83975         4.98172
     2013.50855         5.22508         4.98983
     2013.51129        -0.29559         4.90245
     2013.51403         1.53374         4.95740
     2013.51676        -2.04794         4.93488
     2013.51950         4.32339         4.94479
     2013.52224         1.94572         4.96280
     2013.52498        -1.19996         5.06010
     2013.52772         4.92137         4.92767
     2013.53045         1.26970         4.95740
     2013.53319        -0.38898         4.93037
     2013.53593         6.82835         4.97091
     2013.53867         1.31368         4.98623
     2013.54141        -7.75199         5.00604
     2013.54414         2.78833         4.97451
     2013.54688        -4.21434         4.96911
     2013.54962         9.85299         4.99794
     2013.55236         4.62531         4.98352
     2013.55509         3.29064         4.94569
     2013.55783         5.85697         4.92947
     2013.56057        12.24829         5.30152
     2013.56331         5.21962         5.09703
     2013.56605         1.20495         5.02046
     2013.56878         1.89328         5.00514
     2013.57152         3.49260         4.97271
     2013.57426         7.35893         4.95740
     2013.57700        10.12626         4.98352
     2013.57974         4.13558         4.99704
     2013.58247         5.33091         4.93307
     2013.58521         4.84324         4.93578
     2013.58795         3.30256         4.95830
     2013.59069         7.32089         5.01505
     2013.59342        10.08022         5.01325
     2013.59616        12.85455         4.95470
     2013.59890         9.62587         4.95560
     2013.60164         7.12920         4.99253
     2013.60438         5.36853         5.02496
     2013.60711        13.74685         5.14658
     2013.60985         7.69718         4.96911
     2013.61259         4.91751         4.94479
     2013.61533         7.81783         5.08982
     2013.61807         5.31716         5.23306
     2013.62080        11.55549         5.04928
     2013.62354         6.68281         5.10244
     2013.62628        11.78514         5.06010
     2013.62902         0.90047         5.06370
     2013.63175         4.23380         4.97271
     2013.63449         8.42012         5.11865
     2013.63723        14.24645         5.01325
     2013.63997        20.54178         5.19883
     2013.64271         9.37610         4.98713
     2013.64544         5.91843         4.94298
     2013.64818         8.10976         4.97992
     2013.65092         5.11408         4.99073
     2013.65366         8.21341         5.03037
     2013.65639         8.44074         5.00694
     2013.65913        13.32507         5.22675
     2013.66187         5.54939         4.97361
     2013.66461         1.09072         4.99253
     2013.66735        10.96805         5.01415
     2013.67008         6.21637         4.98082
     2013.67282         8.06770         5.10244
     2013.67556         8.86503         5.16009
     2013.67830        13.10535         4.93668
     2013.68104         9.22468         4.95109
     2013.68377         8.28701         4.96821
     2013.68651         5.88134         4.96821
     2013.68925        10.03566         4.99343
     2013.69199         9.23899         4.96460
     2013.69472        13.32832         4.96641
     2013.69746         4.60064         4.93758
     2013.70020         5.78397         4.92226
     2013.70294         7.23630         4.96190
     2013.70568        11.66262         4.99794
     2013.70841         6.42295         4.97091
     2013.71115         9.16928         4.98713
     2013.71389         7.18460         4.94749
     2013.71663         6.94293         4.98532
     2013.71937        15.64426         5.05739
     2013.72210        12.81659         5.12676
     2013.72484         9.42291         5.04478
     2013.72758         8.53724         4.95830
     2013.73032        10.69357         4.95019
     2013.73305        10.74189         4.99523
     2013.73579        10.04222         4.95470
     2013.73853         4.15355         4.96821
     2013.74127         3.87287         5.06190
     2013.74401        16.92520         5.16369
     2013.74674         7.17053         5.12496
     2013.74948         3.47986         4.97361
     2013.75222        -5.77682         4.95650
     2013.75496         1.02051         4.98713
     2013.75770        -2.76216         4.94839
     2013.76043        -2.46484         4.93217
     2013.76317        -1.75951         4.92947
     2013.76591        -0.99718         5.11775
     2013.76865         0.78714         4.93938
     2013.77138         2.46647         4.94208
     2013.77412         1.77780         5.08532
     2013.77686         0.89813         5.12135
     2013.77960        -3.15855         4.99974
     2013.78234        -6.76022         4.96010
     2013.78507        -7.17989         4.94749
     2013.78781        -7.19957         4.96280
     2013.79055         1.38976         4.98082
     2013.79329        -4.38491         4.96190
     2013.79603        -2.39859         4.94118
     2013.79876        -0.16626         4.92947
     2013.80150         2.82207         5.01776
     2013.80424         2.87139         5.00965
     2013.80698         3.80872         4.97541
     2013.80971         2.75805         4.98803
     2013.81245         5.44038         4.94028
     2013.81519         0.40470         4.94389
     2013.81793        -2.58997         4.95740
     2013.82067         6.80236         5.01235
     2013.82340        10.59368         4.99794
     2013.82614        -0.53799         5.07631
     2013.82888         3.79234         4.95470
     2013.83162         6.75766         4.99433
     2013.83436         5.08599         5.09163
     2013.83709        -1.07668         5.17631
     2013.83983         7.81565         5.17540
     2013.84257        -0.60203         5.01415
     2013.84531         0.75830         5.04118
     2013.84804         0.62763         4.93217
     2013.85078        -4.89605         5.07721
     2013.85352        -1.57772         4.99613
     2013.85626         2.61761         4.94839
     2013.85900         1.13193         4.95470
     2013.86173         0.68326         4.95289
     2013.86447        -1.61541         5.16279
     2013.86721         1.45892         5.00694
     2013.86995         2.89124         4.96641
     2013.87269         1.86957         5.03938
     2013.87542        10.88190         5.06370
     2013.87816         8.94522         4.96460
     2013.88090         1.82555         5.06640
     2013.88364        13.02788         5.23036
     2013.88637         4.21320         5.08172
     2013.88911        -2.99547         4.94569
     2013.89185        -6.65114         4.89704
     2013.89459        -2.58282         4.91866
     2013.89733         4.32851         4.96821
     2013.90006        -1.92516         5.01055
     2013.90280        -6.03583         5.03037
     2013.90554        -1.98751         4.93037
     2013.90828        -0.50618         4.94839
     2013.91102        -1.60085         4.97451
     2013.91375        -0.21553         5.03397
     2013.91649        -0.91620         4.98893
     2013.91923         1.00913         5.11955
     2013.92197        -0.22255         5.03757
     2013.92470        -1.51922         4.93217
     2013.92744         1.42011         5.02586
     2013.93018        -7.89656         4.96190
     2013.93292       -14.70824         4.93398
     2013.93566        -5.35291         4.91776
     2013.93839        -7.64458         4.94479
     2013.94113        -4.77726         4.92407
     2013.94387         0.18207         4.93127
     2013.94661         4.77140         5.01595
     2013.94935         2.82872         4.94028
     2013.95208         4.35605         4.94749
     2013.95482        -0.46162         5.08532
     2013.95756        -0.32929         4.94208
     2013.96030         4.04403         4.97271
     2013.96303         1.90536         5.03307
     2013.96577         3.70269         4.92587
     2013.96851         7.37401         5.02136
     2013.97125         8.99834         4.96911
     2013.97399         0.57567         4.98082
     2013.97672        -6.58501         4.97181
     2013.97946        -0.25268         4.92857
     2013.98220         2.93965         4.91596
     2013.98494        -5.13603         4.97001
     2013.98767        -5.60370         5.03127
     2013.99041        -3.80537         5.01776
     2013.99315        -7.85104         5.00064
     2013.99589        -1.94372         4.90875
     2013.99863        -9.44739         4.99704
     2014.00410        -0.62274         4.99704
     2014.00684         6.82259         5.20423
     2014.00958        -1.87308         4.93037
     2014.01232        -4.77876         5.01956
     2014.01505        -4.62843         5.10334
     2014.01779        -7.05710         5.12406
     2014.02053        -1.65677         4.98352
     2014.02327         4.83555         5.15919
     2014.02600         5.25088         5.08892
     2014.02874         6.54821         5.20333
     2014.03148         4.01853         4.99974
     2014.03422        -1.47814         4.92317
     2014.03696        -1.93581         4.96460
     2014.03969        -2.30149         4.98713
     2014.04243        -0.12716         5.10334
     2014.04517         5.79117         5.12946
     2014.04791        -1.86350         4.95470
     2014.05065         1.00582         4.95199
     2014.05338        -3.11685         4.95650
     2014.05612        -1.98352         4.98082
     2014.05886        -6.37520         4.94569
     2014.06160         3.26813         4.94569
     2014.06433         1.31646         5.09613
     2014.06662        -5.33644         6.45822
     2014.06981         3.97811         5.03127
     2014.07255        -0.81956         4.97541
     2014.07529         2.13376         5.54385
     2014.07802         3.38809         5.02857
     2014.08076         3.41642         5.00424
     2014.08350         4.24375         5.01415
     2014.08624        -0.04493         5.02226
     2014.08898        -1.50960         5.15198
     2014.09171        -2.48427         5.15829
     2014.09445         0.18305         4.99884
     2014.09719        -0.13462         5.09072
     2014.09993         5.24071         4.97451
     2014.10266         5.69203         5.06730
     2014.10540         4.42336         5.01685
     2014.10814         6.70369         5.04838
     2014.11088        -1.12898         5.09163
     2014.11362        -3.98066         5.00694
     2014.11635         3.88367         5.04388
     2014.11909         2.40400         5.01325
     2014.12183         4.61332         5.00694
     2014.12457         5.19465         4.98352
     2014.12731         3.52398         5.04838
     2014.13004         2.37830         5.01055
     2014.13278        -3.00737         5.15739
     2014.13552         1.32896         5.06010
     2014.13826         1.76229         4.95560
     2014.14099         4.72561         4.95740
     2014.14373        -1.07606         4.98983
     2014.14647        -0.31473         5.04388
     2014.14921         0.90059         4.99613
     2014.15195         1.83192         5.00604
     2014.15468         7.93225         4.98623
     2014.15742         6.10257         5.05469
     2014.16016         8.78690         5.20874
     2014.16290         0.35723         5.07000
     2014.16564         0.05056         4.98172
     2014.16837        -6.48512         5.18892
     2014.17111         3.34821         5.13937
     2014.17385        12.73054         5.32044
     2014.17659         0.28386         5.15108
     2014.17932         5.98119         5.28801
     2014.18206        -0.57948         5.12946
     2014.18480         5.62384         4.98713
     2014.18754        -0.13583         5.06190
     2014.19028        -2.88950         5.26099
     2014.19301         0.12382         5.01956
     2014.19575         3.72915         5.07361
     2014.19849         6.28148         5.04478
     2014.20123        -0.05219         5.01956
     2014.20397        -5.77087         4.98082
     2014.20670         1.62746         5.06550
     2014.20944         2.15479         5.03037
     2014.21218         0.30911         4.98713
     2014.21492         0.50244         5.11595
     2014.21765        -0.51723         4.97541
     2014.22039        -3.62791         5.00514
     2014.22313         1.09142         4.99073
     2014.22587         3.45875         5.01505
     2014.22861        13.22808         5.07000
     2014.23134         2.17040         5.04298
     2014.23408         1.76473         5.08352
     2014.23682        -1.04794         5.02136
     2014.23956        -6.05662         5.19793
     2014.24230         1.74471         4.99704
     2014.24503        -2.42296         4.97091
     2014.24777         3.83536         5.21865
     2014.25051        -4.89231         4.99794
     2014.25325        -6.25698         4.95920
     2014.25598         0.96635         5.14207
     2014.25872        -4.79833         5.02766
     2014.26146        -4.91300         5.21504
     2014.26420        -4.31667         5.01235
     2014.26694        -0.19535         5.64475
     2014.26967        -8.28502         5.03667
     2014.27241       -10.65469         5.15559
     2014.27515        -6.98437         5.19432
     2014.27789        -4.69304         5.03217
     2014.28062        -2.04671         5.00334
     2014.28336        -3.20539         5.00694
     2014.28610         1.13994         5.14748
     2014.28884        -1.45173         5.24477
     2014.29158        -2.58840         5.00875
     2014.29431        -5.70808         5.00514
     2014.29705         0.84925         5.26099
     2014.29979       -10.05142         5.02226
     2014.30253        -1.90310         5.05109
     2014.30527        -2.33777         5.04568
     2014.30800        -3.62544         5.00334
     2014.31074         2.37088         5.10063
     2014.31348         0.50721         5.01685
     2014.31622        -3.46846         4.99343
     2014.31895        -5.64113         5.07811
     2014.32169        -6.13781         5.11865
     2014.32443       -12.03448         5.07361
     2014.32717       -13.92115         5.15829
     2014.32991        -4.09183         4.99884
     2014.33264        -5.19950         5.06280
     2014.33538        -4.12117         4.99163
     2014.33812        -6.09185         5.21504
     2014.34086        -1.13252         5.06280
     2014.34360        -1.67619         5.00064
     2014.34633        -4.11286         5.03577
     2014.34907        -6.08454         5.30693
     2014.35181        -5.11421         5.17450
     2014.35455        -3.72088         5.04478
     2014.35728       -10.74556         5.00514
     2014.36002       -11.55523         5.08442
     2014.36276        -6.58890         5.02136
     2014.36550        -4.91658         4.97091
     2014.36824        -7.16225         5.04658
     2014.37097        -8.64092         5.05469
     2014.37371        -9.20460         5.06370
     2014.37645        -0.21127         5.19342
     2014.37919         2.47306         5.08442
     2014.38193        -7.46661         5.02406
     2014.38466        -1.12329         5.08081
     2014.38740        -4.24396         5.06370
     2014.39014        -3.83663         5.07361
     2014.39288         1.04169         5.15108
     2014.39561        -3.68998         5.09523
     2014.39835         0.06935         5.15649
     2014.40109        -4.40933         5.02136
     2014.40383        -0.51600         5.03938
     2014.40657        -8.03467         5.08532
     2014.40930        -4.21034         5.02676
     2014.41204        -2.93202         5.04388
     2014.41478         0.08731         4.99884
     2014.41752        -7.35036         4.97361
     2014.42026        -1.95604         4.95109
     2014.42299         0.68229         4.98623
     2014.42573        -1.40138         5.01956
     2014.42847         5.45494         5.06550
     2014.43121        -8.07573         5.01505
     2014.43394        -8.75840         5.02947
     2014.43668         2.57293         5.04568
     2014.43942         3.94125         5.02406
     2014.44216        -1.58542         5.00064
     2014.44490        -4.56309         5.23846
     2014.44763         3.53423         5.11144
     2014.45037        -3.86544         4.97001
     2014.45311        -2.05611         4.99073
     2014.45585        -2.24779         4.99523
     2014.45859        -4.67546         5.01685
     2014.46132        -4.30213         5.02857
     2014.46406        -4.55481         5.04298
     2014.46680        -1.13148         5.01145
     2014.46954        -2.85115         5.03577
     2014.47227        -3.16382         4.98442
     2014.47501        -3.25650         5.00514
     2014.47775        -4.22217         5.01595
     2014.48049        -0.37284         5.01866
     2014.48323        -1.39352         5.07451
     2014.48596        -6.24419         5.10514
     2014.48870         6.62814         5.02316
     2014.49144         7.47446         4.90605
     2014.49418        -1.12821         4.92857
     2014.49692        -4.26788         4.92407
     2014.49965        -1.35955         5.02857
     2014.50239        -2.22823         4.99884
     2014.50513        -3.02390         5.03127
     2014.50787        -6.71257         4.99163
     2014.51060        -7.83925         4.96460
     2014.51334        -2.76292         4.92677
     2014.51608         0.27741         5.01685
     2014.51882        -0.29227         5.03577
     2014.52156        -0.97094         5.06730
     2014.52429        11.59439         5.05019
     2014.52703         6.03472         4.94929
     2014.52977        -5.85196         5.10874
     2014.53251         5.36137         4.95740
     2014.53525         3.50070         4.98442
     2014.53798         6.03702         4.93127
     2014.54072         7.95235         5.26189
     2014.54346         5.02368         4.91866
     2014.54620         1.21400         5.00064
     2014.54893         2.18433         5.08262
     2014.55167        12.42166         5.02857
     2014.55441         6.64798         5.07631
     2014.55715        -0.26169         5.26639
     2014.55989         3.82264         4.93037
     2014.56262         0.17397         4.93848
     2014.56536         0.57029         4.93217
     2014.56810         1.86762         5.10694
     2014.57084         0.81295         4.96370
     2014.57357         4.28727         4.99704
     2014.57631         2.16260         5.00694
     2014.57905         2.02993         5.03487
     2014.58179        -0.08275         5.11144
     2014.58453         4.29458         5.06820
     2014.58726         6.39791         5.28621
     2014.59000         2.71224         5.07361
     2014.59274         3.13656         5.19702
     2014.59548         0.05289         5.15919
     2014.59822        11.92422         5.18531
     2014.60095         5.88754         5.14117
     2014.60369         4.01587         5.04838
     2014.60643         0.21220         5.08712
     2014.60917         7.15052         5.06010
     2014.61190         4.25385         5.33035
     2014.61464         8.31018         5.09973
     2014.61738         6.18251         5.16910
     2014.62012         2.60183         5.12496
     2014.62286         2.16416         5.15919
     2014.62559         1.69349         5.12946
     2014.62833        11.23081         5.03037
     2014.63107        18.70414         5.11955
     2014.63381        11.06547         5.23486
     2014.63655         5.56779         5.06280
     2014.63928         3.48512         5.08442
     2014.64202         7.08245         5.03847
     2014.64476         4.58478         5.06640
     2014.64750         5.03310         5.03577
     2014.65023         4.49443         5.02136
     2014.65297         9.65376         4.96821
     2014.65571         9.32808         5.02857
     2014.65845        11.03441         5.04208
     2014.66119        11.42874         5.12946
     2014.66392         4.22206         5.02947
     2014.66666         9.55039         4.97722
     2014.66940         8.32972         4.99523
     2014.67214        10.41404         5.05379
     2014.67488         6.78137         5.05379
     2014.67761         0.16570         5.01145
     2014.68035         7.74503         4.97001
     2014.68309         1.68935         4.97271
     2014.68583         2.23368         4.99613
     2014.68856        10.29301         5.07181
     2014.69130         1.30233         5.05469
     2014.69404         5.51666         5.00334
     2014.69678         0.16599         4.97181
     2014.69952         5.88131         4.95830
     2014.70225         7.24064         4.97271
     2014.70499         9.84297         4.99073
     2014.70773         8.53030         5.05739
     2014.71047         6.10362         5.11955
     2014.71321        11.84095         5.01866
     2014.71594        -0.70572         4.99163
     2014.71868         9.09360         4.90515
     2014.72142         9.11293         4.97091
     2014.72416         8.70226         5.00694
     2014.72689         1.06558         5.10244
     2014.72963         8.36091         5.07991
     2014.73237         2.39124         5.08352
     2014.73511         2.31457         4.92677
     2014.73785         4.99789         4.98172
     2014.74058        -3.44578         5.00244
     2014.74332         2.15855         5.06370
     2014.74606         5.87187         5.01145
     2014.74880         2.94720         4.96911
     2014.75154         2.46053         5.12856
     2014.75422        -2.11017         5.12676
     2014.75707        -5.06879         5.03847
     2014.75975         3.96251         4.97541
     2014.76249         1.89383         4.92947
     2014.76522         2.46316         4.95289
     2014.76796         5.65049         5.08262
     2014.77070        -1.84218         4.99163
     2014.77344         0.26214         5.01685
     2014.77618        11.56447         5.16369
     2014.77891         5.14780         4.96911
     2014.78165         1.10612         4.95199
     2014.78439         5.75745         5.23126
     2014.78713         3.88878         5.06280
     2014.78987        -2.66390         5.00875
     2014.79260         9.60843         4.95650
     2014.79534         3.05376         4.93217
     2014.79808         5.79909         5.09703
     2014.80082         4.42941         5.24657
     2014.80355         3.09474         5.07451
     2014.80629         3.29307         5.00334
     2014.80903        10.04839         5.07901
     2014.81177         6.20072         4.96190
     2014.81451        11.10405         5.16369
     2014.81724         2.67637         5.13487
     2014.81998         2.10670         4.98803
     2014.82272         9.58603         5.20513
     2014.82546         6.99336         4.96280
     2014.82820         7.21568         5.03127
     2014.83093         2.72201         5.08622
     2014.83367        -3.62766         5.03938
     2014.83641         2.46666         5.00785
     2014.83915         4.71799         4.95740
     2014.84188         7.32732         5.05559
     2014.84462         1.75664         5.02766
     2014.84736        -8.88303         5.22315
     2014.85010         0.83430         5.04388
     2014.85284         2.72862         5.01595
     2014.85557        -9.09305         5.19883
     2014.85831         7.46328         5.04478
     2014.86105        -1.11239         5.04028
     2014.86379        -0.44707         5.03217
     2014.86595        10.46598         6.85189
     2014.86926         0.99859         5.04838
     2014.87200         3.86791         5.03397
     2014.87474        -2.42176         5.04298
     2014.87748        -3.15543         5.03667
     2014.88021        -0.06111         5.13937
     2014.88295         0.36322         5.35377
     2014.88569         0.34255         5.23846
     2014.88843         6.81288         5.31324
     2014.89117        18.34920         5.44566
     2014.89390        -0.13447         5.15378
     2014.89664        -0.15014         5.18441
     2014.89938         2.44318         5.21414
     2014.90212        -0.72549         5.16910
     2014.90485         1.46284         5.16640
     2014.90759         1.08316         5.18171
     2014.91033         1.07349         5.11865
     2014.91307         3.58682         5.03307
     2014.91581         7.39815         5.08712
     2014.91854         8.00147         5.02226
     2014.92128         2.03080         5.00694
     2014.92402         4.13713         5.30333
     2014.92676         3.64545         5.13937
     2014.92950        -1.96722         5.11685
     2014.93223        -1.88789         5.05289
     2014.93497        -8.34357         5.16369
     2014.93771       -11.64124         5.24747
     2014.94045         1.76209         5.20423
     2014.94318         6.70641         5.52313
     2014.94592         3.34474         5.03938
     2014.94866        -3.26693         4.92226
     2014.95140        -2.50260         4.90965
     2014.95414         2.03872         4.99073
     2014.95687         5.43305         4.98082
     2014.95961         6.40138         5.08352
     2014.96235         2.84670         4.99613
     2014.96509         0.81303         5.09613
     2014.96783        -7.36164         4.94298
     2014.97056       -10.58532         4.94028
     2014.97330        -4.73099         4.96641
     2014.97604        -8.17066         4.93578
     2014.97878        -1.33433         4.92136
     2014.98151         1.14199         5.04028
     2014.98425       -10.31168         4.89524
     2014.98699        -6.66635         4.89794
     2014.98973        -8.02203         4.95470
     2014.99247        -6.14670         4.92767
     2014.99520        -6.78937         4.92497
     2014.99794        -2.96105         4.92767
     2015.00068        -3.35572         4.89794
     2015.00342        -6.67939         4.95740
     2015.00616       -10.89206         4.94118
     2015.00889        -2.63574         5.07000
     2015.01163       -13.18741         5.04208
     2015.01437         1.52992         5.06280
     2015.01711        -3.44776         5.01235
     2015.01984         1.96957         4.96551
     2015.02258        -0.23010         5.10784
     2015.02532         4.08722         5.06460
     2015.02806         1.67255         5.00875
     2015.03080        -0.79612         5.01685
     2015.03353        -5.51080         5.03938
     2015.03627         0.61953         5.01776
     2015.03901         0.86786         5.07721
     2015.04175         7.60519         5.10424
     2015.04449        -0.47549         5.10244
     2015.04722        -1.39316         5.15919
     2015.04996        -1.21283         5.03037
     2015.05270        -7.22051         5.00514
     2015.05544        -4.10618         5.01505
     2015.05817        -0.41085         5.02586
     2015.06091        -3.48453         5.04568
     2015.06365         1.04180         5.18441
     2015.06639        -1.92487         4.98713
     2015.06913        -3.54154         4.99163
     2015.07186        -5.86222         4.99343
     2015.07460        -6.26089         4.95830
     2015.07734        -6.07956         4.96821
     2015.08008        -7.58924         4.97451
     2015.08282        -0.05091         4.97361
     2015.08555        -5.96058         5.01866
     2015.08829         6.82874         5.00334
     2015.09103         1.14407         5.00785
     2015.09377         1.87440         5.04658
     2015.09650         4.15173         5.04568
     2015.09924         7.69705         5.10424
     2015.10198         3.35338         5.02947
     2015.10472         7.39371         5.14658
     2015.10746        -2.56597         4.99613
     2015.11019       -10.29864         5.10514
     2015.11293        -5.65531         5.04388
     2015.11567        -5.40699         4.94028
     2015.11841        -6.33366         4.98082
     2015.12115        -2.51233         4.99523
     2015.12388        -4.32900         4.98803
     2015.12662        -7.00968         4.98352
     2015.12936        -5.90535         4.94929
     2015.13210        -1.55502         4.99433
     2015.13483        -4.87870         5.08712
     2015.13757        -3.14737         5.02226
     2015.14031        -5.61304         5.01866
     2015.14305        -5.17872         4.94749
     2015.14579        -3.72839         4.92947
     2015.14852        -2.00706         4.93848
     2015.15126        -3.35274         5.01235
     2015.15400        -3.38441         5.02947
     2015.15674        -1.34508         5.00244
     2015.15948         0.55125         4.96641
     2015.16221         1.04157         4.98893
     2015.16495        -1.06810         4.94569
     2015.16769        -1.32177         4.95379
     2015.17043        -2.12145         4.97361
     2015.17316        -4.17812         5.12406
     2015.17590        -5.51879         5.09253
     2015.17864        -1.21347         4.94028
     2015.18138        -2.73614         4.96911
     2015.18412         0.85819         4.96731
     2015.18685         2.12652         5.02947
     2015.18959         1.32284         5.12045
     2015.19233        -0.18383         5.09883
     2015.19507         1.28250         4.98262
     2015.19780         3.29082         5.08712
     2015.20054        -4.76085         5.04478
     2015.20328        -9.05152         4.94118
     2015.20602        -8.80120         4.97181
     2015.20876        -6.39087         4.94389
     2015.21149        -9.49954         4.95289
     2015.21423       -10.67021         5.12496
     2015.21697        -3.23389         4.96460
     2015.21971         1.23144         5.08172
     2015.22245        -4.64523         4.95740
     2015.22518        -0.12791         5.05469
     2015.22792         0.77242         4.99613
     2015.23066        -2.07625         4.95830
     2015.23340        -3.47093         5.09523
     2015.23613        -3.63860         5.08802
     2015.23887        -9.87127         5.19793
     2015.24161        -4.41395         5.25468
     2015.24435         0.73838         5.35017
     2015.24709        -1.66829         5.04838
     2015.24982        -3.07696         4.91236
     2015.25256        -1.44964         4.95470
     2015.25530        -4.17431         5.00154
     2015.25804        -3.54598         4.97451
     2015.26078        -1.25166         4.96010
     2015.26351        -1.83833         4.95470
     2015.26625        -3.94900         4.93307
     2015.26899        -7.29768         4.94479
     2015.27173         2.09365         5.04478
     2015.27446        -3.40502         5.10694
     2015.27720        -7.71369         4.97812
     2015.27994       -11.08137         5.00064
     2015.28268        -9.02004         4.96100
     2015.28542         0.33229         5.08172
     2015.28815        -6.42739         5.04208
     2015.29089        -5.41606         4.98623
     2015.29363        -4.39873         4.96370
     2015.29637        -5.72441         4.91956
     2015.29911        -1.97808         4.93127
     2015.30184         3.27125         4.91145
     2015.30458         1.59158         4.93938
     2015.30732        -3.85410         4.86551
     2015.31006        -7.92677         4.89974
     2015.31279        -8.21144         4.87092
     2015.31553        -5.57212         4.82497
     2015.31827       -11.83779         4.79074
     2015.32101         0.95954         4.93848
     2015.32375        -7.10314         4.88533
     2015.32648       -10.95381         5.08172
     2015.32922        -5.04448         5.08352
     2015.33196        -1.48316         4.98713
     2015.33470        -4.21083         4.91506
     2015.33744        -7.70850         4.94479
     2015.34017        -4.35617         4.97541
     2015.34291        -5.97785         4.96370
     2015.34565        -1.34152         4.96551
     2015.34839        -8.99119         4.96100
     2015.35112        -6.02287         4.98623
     2015.35386        -1.92354         4.98893
     2015.35660        -6.60721         4.97181
     2015.35934        -3.05789         5.06190
     2015.36208       -12.29056         5.02136
     2015.36481        -4.68423         4.95830
     2015.36755        -1.23890         4.97992
     2015.37029        -2.96558         4.92317
     2015.37303        -1.45225         4.91686
     2015.37577        -2.90292         4.92677
     2015.37850        -5.51160         5.10063
     2015.38124        -0.10927         4.94028
     2015.38398       -10.90794         4.94208
     2015.38672        -3.12662         4.95650
     2015.38945         1.49271         5.09343
     2015.39219        -0.93496         5.01055
     2015.39493        -3.94763         5.01325
     2015.39767        -9.70931         5.00154
     2015.40041        -7.16498         4.97181
     2015.40314        -3.76365         5.11955
     2015.40588        -4.57233         5.02496
     2015.40862         1.60500         4.99794
     2015.41136        -3.13967         5.02226
     2015.41410        -4.83335         5.12766
     2015.41683        -3.68402         5.01956
     2015.41957        -1.07669         4.97541
     2015.42231        -0.70937         4.97271
     2015.42505        -8.07404         5.08982
     2015.42778        -7.01671         5.03847
     2015.43052        -1.38838         4.99073
     2015.43326        -5.21006         5.00244
     2015.43600         0.38527         5.09343
     2015.43874        -2.46640         5.03217
     2015.44147        -7.76408         5.28981
     2015.44421        -3.03475         4.98352
     2015.44695         0.17858         5.03757
     2015.44969        -0.28410         4.96551
     2015.45243         0.64223         5.05649
     2015.45516        -2.24944         5.00604
     2015.45790        -5.54811         5.13126
     2015.46064        -0.00379         5.21774
     2015.46338        -3.24646         5.19883
     2015.46611         7.83187         5.00424
     2015.46885        -2.37281         5.04478
     2015.47159         0.22052         4.99794
     2015.47433        -1.50915         5.14027
     2015.47707        -3.97283         5.13397
     2015.47980         4.84650         5.07091
     2015.48254         1.72283         5.03577
     2015.48528         0.23116         5.05019
     2015.48802        -0.10052         5.16459
     2015.49076         0.11481         5.04838
     2015.49349         1.01014         5.11595
     2015.49623         5.52346         5.13126
     2015.49897         1.79379         5.16550
     2015.50171        -6.57088         5.11685
     2015.50444         6.30744         5.06370
     2015.50718         7.97677         5.12315
     2015.50992         9.14910         5.02586
     2015.51266         3.36142         4.95379
     2015.51540         3.64975         5.03217
     2015.51813         4.00808         5.07901
     2015.52087        13.60041         5.00334
     2015.52361         5.20973         5.10244
     2015.52635         4.82106         5.04928
     2015.52908         6.13839         5.03037
     2015.53182        -0.34329         5.01866
     2015.53456         3.52504         5.03307
     2015.53730        -0.80663         5.10604
     2015.54004         5.56369         5.26999
     2015.54277         2.38102         5.15649
     2015.54551        11.71735         5.13487
     2015.54825         5.52368         5.18802
     2015.55099         6.92400         5.20423
     2015.55373        13.32133         5.14658
     2015.55646         7.95566         5.14568
     2015.55920        12.27198         5.12856
     2015.56194        11.03631         5.17901
     2015.56468         6.79464         5.14748
     2015.56741         5.44896         5.11144
     2015.57015        12.57629         5.27180
     2015.57289         7.97462         5.21955
     2015.57563         5.07895         5.06550
     2015.57837         2.75227         5.15108
     2015.58110         7.84360         5.18351
     2015.58384        13.43393         5.22045
     2015.58658         7.40525         5.27540
     2015.58932         9.69458         5.12676
     2015.59206        12.48091         5.12856
     2015.59479         3.93123         5.17991
     2015.59753        12.14756         5.18892
     2015.60027        11.76089         5.31864
     2015.60301         8.26022         5.38711
     2015.60574        17.16154         5.17901
     2015.60848         8.24987         5.18351
     2015.61122         9.64920         5.21684
     2015.61396        18.28352         5.19432
     2015.61670         8.85785         4.97451
     2015.61943         9.82918         4.93938
     2015.62217         7.29450         4.98262
     2015.62491        12.02883         5.03127
     2015.62765        12.74716         4.97992
     2015.63039        17.25948         4.99433
     2015.63312        11.13081         5.10424
     2015.63586        13.60414         5.11234
     2015.63860         8.15147         5.03938
     2015.64134        11.24779         5.02046
     2015.64407         7.44912         5.02857
     2015.64681         8.74345         5.09343
     2015.64955         6.38177         5.07451
     2015.65229        -0.43490         4.97271
     2015.65503        20.63343         5.12496
     2015.65776         3.71275         5.37539
     2015.66050        10.91308         5.02586
     2015.66324        12.01941         4.97361
     2015.66598        10.75074         5.07271
     2015.66872         7.88406         5.16550
     2015.67145         2.51839         4.98442
     2015.67419        10.91372         5.02676
     2015.67693         5.61604         4.95830
     2015.67967         9.72837         4.98983
     2015.68240         4.42870         4.97632
     2015.68514         2.62602         4.99163
     2015.68788         6.04935         5.05829
     2015.69062        13.45368         5.02406
     2015.69336         4.50801         5.15108
     2015.69609        13.54533         4.97271
     2015.69883        12.01266         5.02316
     2015.70157        15.15399         5.04028
     2015.70431        13.83831         5.06100
     2015.70705         7.83664         4.99704
     2015.70978        11.96697         5.05649
     2015.71252         2.56129         4.97541
     2015.71526        10.75162         4.99613
     2015.71800         9.83195         5.01956
     2015.72073        10.28227         5.10604
     2015.72347         7.59360         4.98623
     2015.72621         4.74993         4.98352
     2015.72895         1.79326         5.01325
     2015.73169         0.87958         5.04658
     2015.73442        12.83391         4.97271
     2015.73716        13.25324         4.95019
     2015.73990        14.25356         5.05289
     2015.74264         3.09889         5.09613
     2015.74538         6.62122         5.20874
     2015.74811         1.57854         5.24567
     2015.75085        -1.99313         5.01685
     2015.75359         5.84020         4.96190
     2015.75633         9.20053         4.97001
     2015.75906         7.71885         4.96460
     2015.76180         8.18118         5.03757
     2015.76454        13.96351         5.01595
     2015.76728         7.40983         4.98713
     2015.77002         2.57416         5.02046
     2015.77275         5.06849         5.08802
     2015.77549        11.33581         5.13667
     2015.77823        12.05414         5.01145
     2015.78097         7.87747         4.97722
     2015.78371        10.23280         4.96010
     2015.78644        12.18012         5.03667
     2015.78918         7.66545         5.01325
     2015.79192        12.78878         5.13397
     2015.79466         9.85910         5.03757
     2015.79739         4.72143         5.26279
     2015.80013         9.07076         5.16550
     2015.80287         5.33908         5.01145
     2015.80561         1.98841         4.99343
     2015.80835         1.23174         5.00785
     2015.81108         0.15906         5.21144
     2015.81382         6.72839         5.36278
     2015.81656         1.10972         5.02406
     2015.81930         4.60905         5.12946
     2015.82203         8.95537         5.12586
     2015.82477         6.55770         5.02406
     2015.82751         7.90603         5.14568
     2015.83025         2.48935         5.16550
     2015.83299         5.30868         5.29161
     2015.83572         6.98601         5.15108
     2015.83846         2.35933         5.13667
     2015.84120        -3.74934         5.08982
     2015.84394        -3.67901         5.09523
     2015.84668         2.27032         5.10964
     2015.84941        -0.10036         5.12946
     2015.85215         0.86597         5.21774
     2015.85489        10.54330         5.17090
     2015.85763        -2.54038         5.09253
     2015.86036        -1.56105         5.11054
     2015.86310         2.13728         5.06460
     2015.86584         9.40860         5.05019
     2015.86858        -1.19407         5.13126
     2015.87132         1.43326         5.10514
     2015.87405         0.45559         5.12315
     2015.87679         5.39091         5.14658
     2015.87953         0.64824         5.21324
     2015.88227         1.36557         5.17270
     2015.88501         1.55289         5.08982
     2015.88774         3.00322         5.10874
     2015.89048         5.72155         5.10874
     2015.89322         4.72387         5.05109
     2015.89596         5.53320         5.04028
     2015.89869         6.81753         5.02857
     2015.90143        -1.10315         5.05379
     2015.90417        -2.13782         5.05199
     2015.90691         1.45151         5.03667
     2015.90965        -1.56316         5.01956
     2015.91238         2.48316         5.15559
     2015.91512        -3.05251         5.02947
     2015.91786         3.85382         5.09433
     2015.92060         7.92014         5.22495
     2015.92334        -1.88753         5.18621
     2015.92607        -4.86120         5.13487
     2015.92881         3.71712         5.15649
     2015.93155         1.92045         5.27990
     2015.93429         7.57978         5.28441
     2015.93702         7.92111         5.37720
     2015.93976        -1.47557         5.45197
     2015.94250         1.83176         5.29252
     2015.94524         0.33109         5.20243
     2015.95071         3.84974         5.06100
     2015.95345        -2.05793         5.04658
     2015.95619        -1.05161         5.14838
     2015.95893        -4.29728         5.27360
     2015.96167         3.81305         5.28801
     2015.96440        -2.72862         5.03667
     2015.96714         0.40870         5.10694
     2015.96988         3.54303         5.17631
     2015.97262        11.12836         5.07991
     2015.97535         6.35468         5.05919
     2015.97809        -8.42999         5.04028
     2015.98083        -1.23166         5.07091
     2015.98357        -9.77134         5.06550
     2015.98631        -3.66901         5.28351
     2015.98904         1.36332         5.06190
     2015.99178        -1.81836         4.99613
     2015.99452        -3.18603         5.03217
     2015.99726        -5.57970         5.08352
     2016.00000        -6.29237         5.05559
     2016.00273        -3.11205         5.09793
     2016.00547        -4.37572         5.01325
     2016.00821         1.02061         5.14568
     2016.01095         2.75493         5.13487
     2016.01368        -5.89474         5.13126
     2016.01642        -1.94741         5.18351
     2016.01916        -5.65509         5.26459
     2016.02190        -3.97876         5.14838
     2016.02464        -1.27743         5.07271
     2016.02737        -2.21710         5.21684
     2016.03011        -3.49078         5.09973
     2016.03285        -5.53545         5.08802
     2016.03559        -6.00012         5.07811
     2016.03833        -1.07680         5.17270
     2016.04106         1.10253         5.12135
     2016.04380        -2.10214         5.06910
     2016.04654         2.99518         5.09883
     2016.04928         2.27151         5.04928
     2016.05201         0.05684         5.06280
     2016.05475        -1.63383         4.99433
     2016.05749        -6.29651         5.08081
     2016.06023        -2.22918         5.05829
     2016.06297        -3.82285         4.99073
     2016.06570         2.48447         5.01595
     2016.06844        -4.31420         4.99884
     2016.07118        -2.17487         5.02586
     2016.07392         2.81845         5.10784
     2016.07666         0.60378         5.11685
     2016.07939         3.52011         5.04568
     2016.08213         5.26844         5.10424
     2016.08487        -2.73424         4.93578
     2016.08761        -5.77691         4.98352
     2016.09034        -8.44658         5.01505
     2016.09308        -2.11426         5.00604
     2016.09582        -9.62593         4.95740
     2016.09856       -13.02360         4.96190
     2016.10130       -11.21428         4.93578
     2016.10403       -10.76395         4.93938
     2016.10677        -8.84562         4.91416
     2016.10951        -8.19830         4.96280
     2016.11225        -4.66597         4.93848
     2016.11498        -8.61864         4.95830
     2016.11772        -6.40031         4.94208
     2016.12046        -7.27899         4.92136
     2016.12320        -6.04466         4.92407
     2016.12594        -9.20233         4.93217
     2016.12867         1.26799         4.93217
     2016.13141         1.74732         4.93758
     2016.13415         4.64965         4.94298
     2016.13689        -4.48803         4.89704
     2016.13963         0.35930         4.97722
     2016.14236       -14.41437         4.92226
     2016.14510        -6.98704         4.91055
     2016.14784        -5.00072         4.99704
     2016.15058        -5.53839         4.85740
     2016.15331       -10.83906         5.02857
     2016.15605        -3.32374         5.00514
     2016.15879        -7.68541         5.12406
     2016.16153        -9.54408         4.93217
     2016.16427        -1.46476         4.99794
     2016.16700        -6.98643         4.99343
     2016.16974         0.17390         4.96551
     2016.17248        -2.91477         4.99704
     2016.17522        -5.97845         5.03487
     2016.17796        -3.63412         4.88803
     2016.18069        -5.50879         4.96551
     2016.18343       -11.06747         5.17901
     2016.18617        -3.64114         4.91055
     2016.18891         1.70919         4.95379
     2016.19164        -2.98249         4.88893
     2016.19438         2.26984         4.94659
     2016.19712        -0.56183         4.91236
     2016.19986        -4.62451         5.10424
     2016.20260        -7.41318         5.05019
     2016.20533        -7.21385         5.09343
     2016.20807        -4.60952         5.07991
     2016.21081        -7.84220         5.02586
     2016.21355        -4.23287         5.02136
     2016.21629        -6.88454         5.00694
     2016.21902        -4.74522         4.93938
     2016.22176        -6.04889         4.88983
     2016.22450        -8.17756         4.90605
     2016.22724        -9.63524         4.89794
     2016.22997        -3.26491         4.85020
     2016.23271        -1.82958         4.90515
     2016.23545        -7.54125         4.95830
     2016.23819        -4.59593         4.87092
     2016.24093        -2.53360         5.05559
     2016.24366        -2.32327         4.85560
     2016.24640        -3.08895         4.87992
     2016.24914        -3.72762         4.90425
     2016.25188        -3.21229         4.91055
     2016.25462        -5.73197         4.93217
     2016.25735        -3.90264         5.05649
     2016.25986        -9.45342         5.32134
