# ================= DQRFIT RESULTS ================
# INPUT FILE: series/DEEJ.rad
# OUTPUT: LDETRENDED
# FILTER FUNCTION: f(t)
# f(t)=+line(t)+annual(t)+jumps(t)
# line(t)=+P 1+P 2*t
# annual(t)=+P 3*sin(2*pi*t+P 4)
# jumps(t)=+P 5*heav(t-2017.5448  )
# heav(t)=(t<0?0:1)
# TOTAL OBSERVATIONS MTOT= 3495
# INITIAL TIME INTERVAL= 2022.7488 - 2012.6407 = 10.1081
# TOTAL OBSERVATIONS AFTER PREFILTER M= 3473
# TIME-SPAN= 2022.7488 - 2012.6407 = 10.1081
# OBSERVATIONS: USED M=  3473 REJECTED MTOT-M=    22 %USED=   99.3705
# N=  5 PARAMETERS
# MAXSIG= 175.00000
# MAXRES=  39.81694
# SCALE FACTOR FOR LENGTHS: SCL=  10.00000
# SCALE FACTOR FOR SIGMAS: SCLSIG=   1.00000
# CHI^2=   3305.353 DOF=  3468 CHI^2/DOF=   0.95310
# RMS=      6.683 SDEV=      6.683 MEAN=   -0.07323
#  P #       PARAMETER +-    SIGMA %error PARAMETER NAME
# P 1 =     -7180.80945 +-  135.486   1.89 YZERO                              
# P 2 =         3.56745 +-    0.067   1.88 SLOPE                              
# P 3 =         3.86195 +-    0.134   3.47 ANNUAL AMPLITUDE                   
# P 4 =         3.02185 +-    0.049   1.61 ANNUAL PHASE                       
# P 5 =        -3.77785 +-    0.393  10.39 OFFSET 2017.5448                   
#       T            LDETRENDED       SIG_OBS
     2012.64065        17.29242         6.49609
     2012.64339        14.41265         9.65432
     2012.64612         9.95092         5.48370
     2012.66063        -2.29687         8.99339
     2012.66255        13.97330         8.69270
     2012.66529         9.31251         5.74925
     2012.66739        10.02103         7.36399
     2012.68012        23.06361        16.21875
     2012.68172        10.18691         7.41574
     2012.68344        22.63779        10.70576
     2012.68777         9.97332         7.37669
     2012.68994        12.96759         5.36850
     2012.69267         6.39984         5.64479
     2012.69541         4.91107         6.70306
     2012.69815         7.39431         5.49151
     2012.69998         3.98578         9.39073
     2012.70694         4.90894         7.13945
     2012.70910         2.35322         5.55106
     2012.71183         9.31649         5.56961
     2012.71452        11.05291         5.53251
     2012.71791        12.01782        10.77605
     2012.72089        10.07518         9.82614
     2012.73211         9.07713        14.85100
     2012.73314        24.81949         7.39524
     2012.73724        16.11584         8.69758
     2012.73921        10.71180         5.68872
     2012.74195        14.35805         5.88397
     2012.74469         8.94826         5.64967
     2012.74743        15.20348         5.52080
     2012.75017        11.04573         5.64186
     2012.75290        12.74896         5.49932
     2012.75564        13.20021         7.97709
     2012.75838         7.74843         5.42805
     2012.76112        10.90966         5.54618
     2012.76385         7.27591         5.44856
     2012.77287        43.67774        30.51621
     2012.77879        10.52862        18.38119
     2012.78028        17.96029         5.56180
     2012.78302        14.00552         6.13292
     2012.78576         9.24674         5.59890
     2012.78850        17.44499         5.74632
     2012.79116        10.28048         6.03725
     2012.79480         3.97749         9.64651
     2012.79671        10.71369         5.52178
     2012.79849         5.12435        10.77703
     2012.80277        11.06109         7.74376
     2012.80493         8.52937         5.61843
     2012.80767        12.04060         6.14366
     2012.81025         6.25538         6.04603
     2012.81439         9.42863        20.54362
     2012.81587         0.67332         5.44172
     2012.81861         0.71655         5.60378
     2012.82136         0.32577         5.69067
     2012.82309        11.60156        11.49947
     2012.83007        -9.86633        20.50750
     2012.83504         1.48795         5.58426
     2012.83778         3.89218         5.69262
     2012.84052         4.13341         5.65552
     2012.84326         5.10163         5.69750
     2012.84599        -6.00312         5.87421
     2012.84873        -6.03789         5.69262
     2012.85147         3.61635         5.59304
     2012.85420         5.23358         6.84755
     2012.85694         3.34181         6.08801
     2012.85968         4.48704         5.35776
     2012.86242        -3.56374         5.64967
     2012.86516         9.42849         6.76847
     2012.86789        -0.30126         5.75608
     2012.87063         0.87198         5.56278
     2012.87337         1.02321         5.49444
     2012.87610         1.54846         5.42708
     2012.87885         6.62566         5.64576
     2012.88143         8.71847         5.98941
     2012.88788         0.94646         8.85280
     2012.88979        11.36462         5.68481
     2012.89254         2.07482         5.56473
     2012.89519        -0.82164         5.76682
     2012.89865        -3.91198         7.58561
     2012.90075         3.46152         5.45344
     2012.90348         2.02679         5.57449
     2012.90572         6.86580         7.10626
     2012.90971         0.93256        10.39726
     2012.91167         7.82357         7.47138
     2012.91443        18.88172         7.33666
     2012.91718         5.97493         7.45772
     2012.91900        13.66544        16.18361
     2012.92350       -22.48463        16.43158
     2012.92539         2.68163         8.71027
     2012.92816         7.00375        11.19487
     2012.93054        -5.72075         8.51404
     2012.93445        -1.59870        12.41423
     2012.93596        -3.47708         7.49189
     2012.93942        -1.86342         6.73723
     2012.94182         0.65601         8.15087
     2012.94459         7.76214         7.94292
     2012.94732         5.96138         8.49842
     2012.95000        -1.54215         8.67415
     2012.95364         6.52986         9.59575
     2012.95551         7.44719         6.07923
     2012.95825       -20.33659         5.81270
     2012.96098         0.05068         5.80978
     2012.96371        -3.30909         5.69848
     2012.96645        -4.97986         6.29596
     2012.96919         3.20336         5.57157
     2012.97193         9.24059         6.06360
     2012.97467        15.12082         5.62038
     2012.97741         3.45704         5.55692
     2012.98015        -2.33773         5.81759
     2012.98244        -0.45888         7.01840
     2013.04155       -11.28576        16.07622
     2013.04312        -3.16635         5.52568
     2013.04585        -0.80912         5.57840
     2013.04859        -2.29789         5.52861
     2013.05133        -0.98964         5.40755
     2013.05407         0.12858         5.53056
     2013.05681         3.28881         5.51397
     2013.05954         1.23404         5.49444
     2013.06228         0.04228         5.55790
     2013.06502         1.08651         5.60769
     2013.06775        -2.60324         5.61257
     2013.07049        -0.19903         5.57157
     2013.07324         0.72719         5.91326
     2013.07597        -3.27956         5.41048
     2013.07871        -2.07433         5.48858
     2013.08145         3.57191         5.46710
     2013.08419        -1.71288         5.48077
     2013.08692         1.30639         5.51201
     2013.08966        -4.89740         5.42317
     2013.09240         1.36982         5.38315
     2013.09514         5.05007         5.39388
     2013.09755        -1.24554         6.39944
     2013.11802        -3.93558        10.93323
     2013.11978        -2.94083         5.76487
     2013.12251        -5.46160         5.45539
     2013.12525        -8.96537         5.45637
     2013.12799        -3.08314         5.44075
     2013.13073        -2.35792         5.43098
     2013.13347        -3.20467         5.43586
     2013.13618         2.79365         5.64576
     2013.13894        -1.36720         7.80136
     2013.14168         2.06403         5.53544
     2013.14442         1.81324         5.65260
     2013.14715        -5.94451         5.65748
     2013.14990        -9.77329         5.48858
     2013.15263        -9.85904         5.49639
     2013.15537       -11.45481         5.56668
     2013.15811        -6.61557         5.38803
     2013.16084        -8.08334         5.44953
     2013.16359        -5.26413         5.51104
     2013.16632        -7.93288         5.38900
     2013.16906        -3.68564         5.43489
     2013.17180        -3.50143         5.44367
     2013.17453        -2.74518         5.90935
     2013.17727        -2.08793         5.50908
     2013.18001        -3.14071         5.64674
     2013.18275        -1.04248         5.39877
     2013.18549        -4.37726         5.30993
     2013.18823        -6.42503         5.50713
     2013.19096        -3.18978         5.41243
     2013.19370        -0.30955         5.37826
     2013.19644        -7.98131         5.38315
     2013.19917        -6.09008         5.49151
     2013.20191        -2.01785         5.36362
     2013.20465         1.33238         5.41536
     2013.20739        -7.97338         5.42903
     2013.21013        -3.43815         5.40462
     2013.21286        -2.80392         5.74144
     2013.21560        -3.83568         5.43879
     2013.21834        -9.50845         5.41146
     2013.22108       -17.14522         5.57352
     2013.22381        -2.85399         5.46125
     2013.22656        -6.94377         5.48858
     2013.22929        -5.48852         5.44953
     2013.23203        -3.00729         5.34898
     2013.23477        -3.75205         5.50616
     2013.23750        -7.25182         5.50323
     2013.24024        -5.91759         5.63893
     2013.24298        -5.05536         5.59109
     2013.24572        -0.62014         5.55009
     2013.24846         2.31811         5.52080
     2013.25119         0.46434         5.58523
     2013.25393         0.40758         5.60671
     2013.25667         0.65781         5.70531
     2013.25941         2.21704         5.60378
     2013.26214         0.13327         5.47003
     2013.26489         2.82049         5.43782
     2013.26762        -2.08026         5.52959
     2013.27037        -1.32806         5.58328
     2013.27272        -3.68544         6.87196
     2013.32884         4.13335        10.02921
     2013.33059        -6.83490         5.48273
     2013.33333        -4.99767         5.58523
     2013.33607        -8.99246         5.71020
     2013.33880        -7.93921         5.62526
     2013.34155        -1.66799         5.53447
     2013.34428        -1.21174         5.52861
     2013.34702        -0.66351         6.05579
     2013.34976        -3.31027         5.41048
     2013.35249        -5.30704         5.51104
     2013.35523        -4.90081         5.63307
     2013.35797         3.61642         5.68091
     2013.36071        -5.08836         5.50713
     2013.36344        -0.36911         5.63112
     2013.36618         1.33212         5.51689
     2013.36892         0.14336         5.51885
     2013.37166        -4.87041         5.58719
     2013.37440        -6.54020         5.44856
     2013.37713        -3.04995         5.50616
     2013.37987        -4.67971         5.57157
     2013.38261        -6.66748         5.43001
     2013.38535        -4.91025         5.52275
     2013.38809        -1.40701         5.49932
     2013.39083         0.55520         5.50323
     2013.39231       -36.58209        25.01591
     2013.39907        -0.18920         6.49219
     2013.40177         3.30317         5.56766
     2013.40451         0.33938         5.52959
     2013.40725         2.36762         5.63405
     2013.40999        -1.63715         5.65748
     2013.41273         1.00406         5.60573
     2013.41546        -2.04869         5.75608
     2013.41821        -0.63947         5.57254
     2013.42094         5.80478         5.67993
     2013.42368        -4.23099         5.53935
     2013.42642        -5.87275         5.55009
     2013.42915         1.51748         5.46027
     2013.43190         1.36169         5.62526
     2013.43463         1.96094         5.54032
     2013.43737        -0.78184         5.43782
     2013.44010        -2.10757         5.52763
     2013.44284        -0.01036         5.58328
     2013.44558        -2.33012         5.69067
     2013.44832        -3.68989         5.46125
     2013.45106        -0.54666         5.47003
     2013.45379        -3.81641         5.53642
     2013.45654        -2.64721         5.63209
     2013.45927        -1.66096         6.62105
     2013.46201         4.46127         5.60476
     2013.46475        -1.66149         5.57938
     2013.46748        -1.78226         5.47199
     2013.47022        -0.22603         5.50030
     2013.47296        -2.93080         5.42903
     2013.47570        -1.33158         5.51592
     2013.47763         2.98254         9.21500
     2013.48121        11.38777         7.84334
     2013.48391         5.27614         5.88983
     2013.48665         2.92237         6.98227
     2013.48939        -3.06540         5.87519
     2013.49212        -4.02917         6.83876
     2013.49486        -3.93393         6.60251
     2013.49760         0.85530         5.94157
     2013.50034        -4.10547         5.48273
     2013.50308         1.58477         5.47296
     2013.50581         1.10000         5.53642
     2013.50855         2.00423         5.45637
     2013.51129         0.08046         5.48273
     2013.51403         2.12468         5.40072
     2013.51676         3.24493         5.39779
     2013.51951        -0.10285         5.49054
     2013.52224         6.08240         5.60378
     2013.52498         4.43063         5.56376
     2013.52772         4.51686         5.52178
     2013.53023        -0.84709         5.84785
     2013.54798        -7.83044        15.50217
     2013.54855         2.59254        12.31270
     2013.56149        10.58038        10.72138
     2013.56330         3.57191         5.60085
     2013.56605        -3.11188         5.58523
     2013.56878         2.08437         5.60573
     2013.57153         6.34657         5.43684
     2013.57426         8.30982         5.44465
     2013.57699         6.85507         5.48468
     2013.57974         2.45329         5.52470
     2013.58247         7.47652         5.42220
     2013.58521         7.04875         5.43977
     2013.58795         5.65298         5.52470
     2013.59069         6.23722         5.47687
     2013.59342         4.81545         5.59207
     2013.59616         9.52868         5.51885
     2013.59890         6.80193         5.55302
     2013.60164         6.25915         5.42024
     2013.60438        11.13438         5.68188
     2013.60711         3.54961         5.53935
     2013.60985        10.51785         5.42513
     2013.61259         7.14508         5.45051
     2013.61533         7.26031         5.87323
     2013.61807         4.51655         5.72874
     2013.62080         3.24478         5.69653
     2013.62354         3.32101         5.56864
     2013.62628         6.18324         5.53349
     2013.62902         8.93148         5.51592
     2013.63175         4.22371         5.45246
     2013.63449         8.47994         5.64771
     2013.63723        10.06318         5.76096
     2013.63997         5.85841         5.50030
     2013.64271        11.80364         5.52666
     2013.64544         6.77687         5.47882
     2013.64818         8.64011         5.57840
     2013.65091         5.50436         5.69555
     2013.65366        10.93557         5.51787
     2013.65639        11.22981         5.55302
     2013.65913        14.34904         5.65064
     2013.66187        11.86027         5.61355
     2013.66461         3.84250         5.44660
     2013.66735        11.71874         5.56571
     2013.67008         6.89797         5.49835
     2013.67282         2.19120         5.60573
     2013.67556         8.70244         5.61452
     2013.67830         8.68067         5.50225
     2013.68104        14.23990         5.59890
     2013.68377        10.64513         5.48565
     2013.68651         5.12437         5.50908
     2013.68925        11.84960         5.46906
     2013.69199        12.88683         5.48175
     2013.69472         6.75708         5.48858
     2013.69746         7.13130         5.42513
     2013.70020        11.30253         5.61355
     2013.70294        10.12075         5.45148
     2013.70568        14.97600         5.90935
     2013.70841         5.33423         5.55595
     2013.71115         4.15046         5.47980
     2013.71389         6.76170         5.54423
     2013.71663         4.09093         5.52861
     2013.71937         9.52916         5.42122
     2013.72209        12.91943         5.47784
     2013.72484        13.28363         5.64479
     2013.72758        10.49986         5.56668
     2013.73032         6.15409         5.49932
     2013.73305        10.01033         5.42610
     2013.73579        13.56456         5.50127
     2013.73853         3.80179         5.51689
     2013.74101         9.12396         6.24324
     2013.74416        14.37170         6.18564
     2013.74674         2.08049         6.19150
     2013.74948         1.73772         8.10791
     2013.75222        -0.92204         5.45929
     2013.75496        -2.26281         5.49346
     2013.75770        -5.11658         5.76487
     2013.76044        -7.64236         5.42903
     2013.76317         3.18389         5.48565
     2013.76591         5.33512         5.77951
     2013.76854        -4.05327         6.16807
     2013.77138         0.39562        17.82471
     2013.77425         1.37938        16.21875
     2013.77686         3.68205         5.89373
     2013.77960        -0.64172         5.51299
     2013.78182        -3.81165         6.87293
     2013.78536        -9.94027         6.22859
     2013.78781        -7.42402         5.74632
     2013.79055        -2.08078         5.63502
     2013.79329         3.58345         5.44075
     2013.79603         2.34868         5.49932
     2013.79876         1.70991         5.35386
     2013.80150         6.41515         5.53447
     2013.80424         7.13238         5.62721
     2013.80697         4.69963         5.57157
     2013.80971         6.04385         5.47101
     2013.81245         7.91008         5.43586
     2013.81519         0.83131         5.50616
     2013.81793        -3.62746         5.51494
     2013.82067         4.84378         5.58914
     2013.82340         3.45101         5.48565
     2013.82569         2.53787         6.94029
     2013.82888         3.58048         5.76487
     2013.83162         6.89169         5.60769
     2013.83436         5.12094         5.59304
     2013.83709         4.64217         5.71996
     2013.83983         1.35041         5.60085
     2013.84257         1.49364         5.49932
     2013.84531         4.48487         5.56766
     2013.84804        -3.76988         5.65455
     2013.85078         3.94834         5.54325
     2013.85352         5.02755         5.53935
     2013.85626         2.31980         5.41146
     2013.85900         0.47704         5.57157
     2013.86173        -1.61473         5.46515
     2013.86448         6.21649         5.57352
     2013.86721         1.34574         5.53642
     2013.86995         2.57297         5.61843
     2013.87269         5.98420         5.59207
     2013.87541        -0.54653         5.67993
     2013.87816         7.05367         5.44660
     2013.88089         5.74992         5.52275
     2013.88363        12.70115         5.91521
     2013.88637         1.56437         5.64771
     2013.88911        -2.02340         5.53349
     2013.89185        -3.04917         5.42805
     2013.89458        -0.36492         5.54521
     2013.89734         0.00423         5.72777
     2013.90004         0.74762         5.58328
     2013.90283         4.33466         5.65260
     2013.90554        -0.23600         5.59109
     2013.90827         0.22925         5.51201
     2013.91102         0.52644         5.44367
     2013.91375        -1.08131         5.38900
     2013.91649         2.30393         5.80587
     2013.91923        -8.49784         5.68677
     2013.92197         1.38139         5.60769
     2013.92470         1.71763         5.55985
     2013.92744         2.50388         5.66431
     2013.93018         3.88709        10.06240
     2013.93292        -0.18368         5.51787
     2013.93566         0.95456         5.51299
     2013.93839         2.40979         5.42805
     2013.94113        -4.02098         5.55595
     2013.94296         3.78751         9.34289
     2013.94661         1.78847         5.57938
     2013.94935         1.36872         5.45929
     2013.95208         3.51395         5.46906
     2013.95482         2.77120         5.82832
     2013.95756         1.31442         5.46418
     2013.96030        -1.72835         5.59109
     2013.96304         0.05887         5.48175
     2013.96577         3.84412         5.42610
     2013.96851         0.74037         5.60378
     2013.97125         6.36358         5.56278
     2013.97399        -0.36518         5.54423
     2013.97672       -11.49695         5.56668
     2013.97946        -3.41972         5.57742
     2013.98220         0.26752         5.55009
     2013.98494        -4.89625         5.43782
     2013.98767        -9.88702         5.43684
     2013.99041        -2.45477         5.51397
     2013.99315        -9.69755         5.59890
     2013.99589         1.91968         5.62038
     2013.99863        -5.41509         5.48273
     2014.00410        -4.58662         5.33726
     2014.00684        -3.90539         5.54423
     2014.00958         0.00684         5.57938
     2014.01232        -1.88892         5.69848
     2014.01505        -1.76969         5.53642
     2014.01779        -2.63446         5.46906
     2014.02053        -0.31822         5.48956
     2014.02327        -1.15299         5.73851
     2014.02600        -1.28074         5.66041
     2014.02874         6.65547         7.99857
     2014.03148         2.02271         5.52861
     2014.03422       -10.20006         5.47394
     2014.03696        -1.79883         5.49249
     2014.03969        -0.05859         5.63795
     2014.04243         2.21066         5.70727
     2014.04517         4.51787         5.62624
     2014.04791        -3.18190         5.44270
     2014.05065         0.12134         5.41341
     2014.05338         0.59457         5.44856
     2014.05612        -1.95920         5.53837
     2014.05886        -3.57696         5.40853
     2014.06160         0.59327         5.36948
     2014.06433         0.70850         5.81075
     2014.06707        -0.38727         5.65845
     2014.06981         3.88497         5.70043
     2014.07255         2.75920         5.50518
     2014.07529        -2.51157         5.55204
     2014.07802        -0.28333         5.42805
     2014.08076        -3.68210         5.47199
     2014.08349         3.60517         5.54618
     2014.08624        -1.17164         5.44563
     2014.09017        -1.40668        22.02169
     2014.09172        -1.05119         5.74046
     2014.09445         1.97406         5.58621
     2014.09709         0.34164         5.89081
     2014.09995         8.48644         5.64283
     2014.10266         3.11076         5.56571
     2014.10541         6.18398         5.58621
     2014.10814         1.64423         5.44953
     2014.11088         2.23246         5.51787
     2014.11362         4.25969         5.94255
     2014.11635         6.84093         5.54032
     2014.11909        -1.91584         5.56376
     2014.12183         6.27639         5.65064
     2014.12457         6.01262         7.43624
     2014.12731       -15.13514         5.63405
     2014.13004         6.02709         6.18661
     2014.13278         2.09332         5.62331
     2014.13552        -4.58744         5.85664
     2014.13826         2.52479         6.24519
     2014.14099         2.27902         5.51397
     2014.14373         1.98025         5.69067
     2014.14647         2.78849         5.57547
     2014.14921        -0.00828         5.66333
     2014.15194         0.00097         5.52373
     2014.15469         4.57215         5.65064
     2014.15742         3.32642         5.66041
     2014.16016         5.33065         5.67798
     2014.16290         1.64188         5.67798
     2014.16564        -1.72790         5.55497
     2014.16837        -2.32565         5.70629
     2014.17111        -0.05542         5.72972
     2014.17385         1.46182         5.82247
     2014.17659         3.34405         5.62233
     2014.17932         4.78728         6.09192
     2014.18207        -5.69950         5.79123
     2014.18480        -1.58725         5.55399
     2014.18754        -7.82504         6.34379
     2014.19029        -1.52784         5.86542
     2014.19301        -3.83554         5.56473
     2014.19575        -2.39132         5.57645
     2014.19849        -3.46809         5.85078
     2014.20123        -6.08086         5.77170
     2014.20397        -6.82362         5.54228
     2014.20670        -6.69039         5.65260
     2014.20944        -0.62516         5.64186
     2014.21218        -1.99592         5.61843
     2014.21492        -2.03869         5.80880
     2014.21765         0.68054         5.60281
     2014.22039         0.13477         8.70441
     2014.22307        -0.56877         5.70922
     2014.22602        -3.24632         6.00698
     2014.22841         6.46317         6.23836
     2014.23160         4.47381         6.18466
     2014.23408         1.50894         5.52666
     2014.23682         0.84117         5.64381
     2014.23956        -0.14460         5.68188
     2014.24230        -3.04036         5.61550
     2014.24501        -2.74005         6.32524
     2014.24777        -4.17890         6.04310
     2014.25051        -3.44668         5.50225
     2014.25325        -7.02643         5.62526
     2014.25598         0.30880         5.75315
     2014.25873        -4.24698         5.50616
     2014.26146         1.97627         5.70141
     2014.26420        -3.80950         5.61062
     2014.26694        -6.71127         5.54716
     2014.26967        -5.87803         5.62917
     2014.27241        -5.66580         5.63014
     2014.27515        -3.16857         6.30181
     2014.27788        -6.78032         5.60378
     2014.28056        -5.91888         7.68812
     2014.28367        -5.64197         8.75518
     2014.28610         1.94136         5.79123
     2014.28884        -5.23640         5.91814
     2014.29158        -7.92717         5.56668
     2014.29431         3.60006         5.50420
     2014.29705        -0.63271         5.66431
     2014.29979        -7.10449         5.55302
     2014.30253         0.00976         5.54521
     2014.30527         3.12399         5.55790
     2014.30800        -1.71277         5.60964
     2014.31074         0.42446         5.61355
     2014.31348         3.33069         5.60085
     2014.31622         2.48792         5.45344
     2014.31895        -2.21483         5.65748
     2014.32169        -6.73961         5.63990
     2014.32443        -8.53538         5.61647
     2014.32717        -5.17914         5.63112
     2014.32991         2.17309         5.46710
     2014.33264        -6.18468         5.56766
     2014.33538        -5.64545         5.59402
     2014.33812        -0.69921         5.67114
     2014.34086        -5.39498         5.64186
     2014.34360        -2.90275         5.51104
     2014.34633        -3.45550         5.56766
     2014.34907        -1.12828         5.70531
     2014.35181        -2.31105         5.58426
     2014.35455        -1.51783         5.53251
     2014.35728        -6.82358         5.50713
     2014.36002        -9.93235         5.53837
     2014.36276        -6.26810         5.47882
     2014.36550        -3.93788         5.61159
     2014.36824        -5.40065         5.63698
     2014.37097        -6.72842         5.83125
     2014.37371        -4.47519         5.64869
     2014.37645        -5.50497         5.45929
     2014.37919        -0.15272         5.58133
     2014.38193        -5.16649         5.54325
     2014.38466        -3.75325         5.54032
     2014.38740        -4.83002         5.63600
     2014.39014        -4.00079         5.62819
     2014.39288        -4.80257         5.55497
     2014.39561        -1.75632         5.62819
     2014.39835        -2.21109         5.57840
     2014.40109        -6.03886         5.76487
     2014.40383        -3.86062         5.75315
     2014.40657        -0.87639         5.60573
     2014.40930        -8.40316         5.71898
     2014.41205        -7.55394         5.52178
     2014.41478        -5.49769         5.45344
     2014.41752         0.19854         5.49346
     2014.41914        -1.98726        15.77455
     2014.43943        12.67637         9.42002
     2014.44217         0.50160         9.09199
     2014.44490        10.55485         9.88179
     2014.44764        14.61408         9.70802
     2014.45312         1.53852         5.56864
     2014.45585        -0.14020         5.62917
     2014.45859        -4.13297         5.42708
     2014.46132        -3.42173         5.52666
     2014.46406         5.49350         5.49346
     2014.46680        -6.46327         5.78634
     2014.46954        -6.46704         5.41634
     2014.47227        -0.59980         5.54716
     2014.47501        -0.73957         5.52373
     2014.47775        -0.15934         5.59597
     2014.48049        -4.22010         5.64674
     2014.48323         2.48313         5.57742
     2014.48596        11.04636         5.73070
     2014.48871         1.65058         5.72386
     2014.49144         1.63383         5.44856
     2014.49418         2.60806         5.45637
     2014.49692        -4.96872         5.48858
     2014.49965        -1.11647         5.46710
     2014.50239        -1.28224         5.55399
     2014.50513        -1.93801         5.51885
     2014.50787         3.41322         5.59597
     2014.51060        -3.83354         5.49444
     2014.51334         5.98369         5.44270
     2014.51608         5.74192         5.46027
     2014.51882         1.02216         5.45051
     2014.52156         2.56939         5.60378
     2014.52429         5.54062         5.43098
     2014.52703         9.42885         5.65357
     2014.52977         1.79509         5.54130
     2014.53251         6.44232         5.66919
     2014.53525         2.12455         5.44563
     2014.53798         3.44579         5.55009
     2014.54073         7.04900         5.60671
     2014.54346         6.17523         5.37241
     2014.54620        -0.72852         5.67212
     2014.54893         5.53372         5.45539
     2014.55167         4.32995         5.57352
     2014.55441        -0.09482         5.64771
     2014.55715        -1.53558         5.69067
     2014.55989         2.63265         5.61062
     2014.56262         1.59788         5.47882
     2014.56536         2.22311         5.49054
     2014.56810         1.74135         5.60964
     2014.57084         0.19958         5.39974
     2014.57357         2.08281         5.43489
     2014.57631         1.63305         5.47589
     2014.57905         1.62730         5.48663
     2014.58179         6.52751         5.72191
     2014.58453        -1.73727         5.70824
     2014.58726        -0.36302         5.77170
     2014.59000         3.48721         5.52763
     2014.59274         7.09844         5.62721
     2014.59548         3.80668         5.63893
     2014.59823         1.09187         5.67505
     2014.60095         2.82914         5.84492
     2014.60369         4.41037         5.59011
     2014.60643        -3.88539         5.54814
     2014.60917         0.27484         5.65650
     2014.61191         5.72406         5.90447
     2014.61464        -1.01068         5.58328
     2014.61738         4.64054         5.92009
     2014.62012         6.13175         5.76584
     2014.62286         4.64400         5.73655
     2014.62559         3.14224         5.50713
     2014.62833         2.90847         5.50518
     2014.63107         6.17969         5.58523
     2014.63381         9.71794         5.74339
     2014.63655        11.57317         5.53447
     2014.63928         1.75340         5.52568
     2014.64203         4.27562         5.49054
     2014.64476         5.20087         5.70043
     2014.64750        13.31910         5.60281
     2014.65023         1.24733         5.60183
     2014.65297         6.91057         5.51299
     2014.65571         9.83180         5.50420
     2014.65845         9.29903         5.51104
     2014.66119         0.92226         5.58328
     2014.66392        10.28550         5.49542
     2014.66666        10.73173         5.45734
     2014.66940         4.11296         5.57352
     2014.67171         4.43470         6.61129
     2014.67491         0.25431         5.52763
     2014.67761        -0.93734         5.69946
     2014.68035         5.42689         5.47687
     2014.68309         0.85613         5.54325
     2014.68583         5.94436         5.48663
     2014.68856         5.79459         5.60085
     2014.69131         5.73081         5.56571
     2014.69404         1.97306         5.51982
     2014.69678        -0.02071         5.45051
     2014.69952         6.71352         5.51787
     2014.70225         5.51376         5.39681
     2014.70499         7.15799         5.51104
     2014.70773        11.66422         5.56766
     2014.71047         7.00046         5.64088
     2014.71321         8.35069         5.45051
     2014.71595         1.13390         5.58133
     2014.71868         6.59715         5.52763
     2014.72141         4.95240         5.55985
     2014.72416         8.91462         5.48468
     2014.72689         6.05585         5.69165
     2014.72963        11.30309         5.60281
     2014.73237         2.94334         5.63502
     2014.73511         3.49355         5.57840
     2014.73785        -2.07922         5.49249
     2014.74058         2.28402         5.48370
     2014.74332         7.40025         5.84785
     2014.74605         4.64650         5.63502
     2014.74879         0.18973         5.62136
     2014.75154         1.30795         5.64771
     2014.75426        -0.34177         5.72289
     2014.75701         0.68641         5.86640
     2014.75975         0.36165         5.81661
     2014.76249         5.87388         5.49151
     2014.76522        -1.25789         5.56668
     2014.76794         6.11543         5.69360
     2014.77002         2.31102         7.53289
     2014.79021        -4.20001         6.85438
     2014.79260         6.72144         5.63990
     2014.79534         6.43667         5.55399
     2014.79808         8.77691         5.81856
     2014.80083         1.04311         5.64771
     2014.80355         5.49237         5.69360
     2014.80629         2.88161         5.75608
     2014.80903        -0.66416         5.80782
     2014.81177         5.00407         5.48663
     2014.81451        13.75230         5.45539
     2014.81755         7.20245         7.29468
     2014.81998         1.34577         5.45832
     2014.82272         3.87000         6.03920
     2014.82546         4.25424         5.63209
     2014.82820        -1.66953         5.50713
     2014.83093        -0.26030         5.65845
     2014.83367        -1.44407         5.47296
     2014.83641        -0.26183         5.53349
     2014.83915        -1.13860         5.49151
     2014.84188         2.83563         5.63502
     2014.84462        -1.40813         5.64576
     2014.84736         1.74710         5.89959
     2014.85010         0.41233         5.40853
     2014.85284        -2.68744         5.57059
     2014.85557       -12.64420         5.75803
     2014.85831         0.78803         5.51885
     2014.86105        -8.87174         5.64186
     2014.86379        -4.93250         5.54228
     2014.86652        -1.00725         5.53251
     2014.86926        -2.68704         5.48663
     2014.87200        -3.83381         5.58914
     2014.87474        -4.02257         5.56180
     2014.87748        -1.11134         5.53642
     2014.88021         2.51689         5.61940
     2014.88295         5.74313         5.67212
     2014.88569         5.51336         5.89666
     2014.88843         7.21459         5.85664
     2014.89117         8.21082         5.97476
     2014.89390        -1.26994         6.07923
     2014.89664        -0.75071         5.95231
     2014.89938        -4.86648         5.71898
     2014.90212        -6.00824         5.71703
     2014.90485        -0.76201         5.72386
     2014.90759        -0.89578         5.97184
     2014.91033         1.71145         5.57840
     2014.91307         2.21469         5.62624
     2014.91581         2.34892         5.49249
     2014.91854         2.50815         5.48175
     2014.92128        -0.61461         5.59207
     2014.92402         3.90662         5.58035
     2014.92676         2.05285         5.70531
     2014.92950        -6.66792         5.52568
     2014.93195        -5.76668         6.42971
     2014.93589        -1.01774         9.01389
     2014.93771         0.58678         5.89373
     2014.94044        -2.48497         5.62136
     2014.94318        -3.08275         5.80880
     2014.94592        -5.07252         5.52373
     2014.94866        -7.21429         5.46906
     2014.95140        -7.79607         5.33726
     2014.95414        12.99518         5.44758
     2014.95687         6.95941         5.48761
     2014.95961         4.82465         5.44367
     2014.96235         2.23588         5.39584
     2014.96509         2.13411         5.64479
     2014.96783        -1.66066         5.74241
     2014.97056        -6.80342         5.55399
     2014.97330       -11.30319         5.48663
     2014.97604       -12.00596         5.47101
     2014.97878        -4.11072         5.46125
     2014.98151         1.04951         5.52763
     2014.98426        -2.22028         5.46027
     2014.98699        -1.13303         5.35483
     2014.98973        -7.71879         5.60183
     2014.99247        -6.72956         5.42220
     2014.99520        -7.08033         5.41927
     2014.99794         0.00091         5.49639
     2015.00068         0.44814         5.46125
     2015.00342        -5.31263         5.57059
     2015.00616        -8.73540         5.43001
     2015.00889        -1.59516         5.53935
     2015.01163        -4.04293         5.54423
     2015.01437        -4.25570         5.86054
     2015.01711       -11.16246         5.61452
     2015.01984         0.96977         5.56473
     2015.02258         0.94200         5.62331
     2015.02532         1.59023         5.59597
     2015.02806         3.26847         5.61452
     2015.03080         0.15070         5.57938
     2015.03353        -4.06805         5.63112
     2015.03627         1.03717         5.54130
     2015.03900         5.85943         5.54716
     2015.04175        12.46863         5.50811
     2015.04449        -3.64514         5.60769
     2015.04722         7.65710         5.61745
     2015.04996        -0.64367         5.51982
     2015.05270        -2.40244         5.59890
     2015.05546        -1.81027         5.48175
     2015.05817         2.55203         5.55302
     2015.06091        -0.64074         5.47003
     2015.06365         8.27549         5.62428
     2015.06639         3.39473         5.49249
     2015.06913        -4.20904         5.43098
     2015.07186         0.19719         5.46222
     2015.07460         0.03244         5.44172
     2015.07734       -11.36734         5.61550
     2015.08008        -6.95411         5.50030
     2015.08282         0.53012         5.47101
     2015.08555         4.25536         5.48663
     2015.08829         4.47659         5.63112
     2015.09103         6.88882         5.42024
     2015.09375        -0.45989         5.48273
     2015.09650         1.98129         5.70727
     2015.09924         9.63852         5.67212
     2015.10198         6.75675         6.18369
     2015.10467        -1.82284         5.57547
     2015.10755         4.39590         5.71312
     2015.11019        -8.48355         5.81466
     2015.11293        -4.39931         6.19442
     2015.11567        -9.11808         5.79513
     2015.11840        -2.24583         5.49639
     2015.12115         4.41035         5.69946
     2015.12388        -0.72338         5.58328
     2015.12662        -3.97615         5.60769
     2015.12936        -4.35392         5.55204
     2015.13210         4.31032         5.47199
     2015.13483        -3.19545         5.45246
     2015.13757        -0.06920         5.72972
     2015.14031        -0.60300         5.52666
     2015.14305        -1.76775         5.44953
     2015.14579        -1.92452         5.46613
     2015.14852         0.10071         5.67114
     2015.15126         0.00595         5.48273
     2015.15400         1.28318         5.58133
     2015.15674         3.06541         5.44758
     2015.15948         3.70864         5.56278
     2015.16221        -1.71312         5.46222
     2015.16495         3.62711         5.56180
     2015.16769        -2.40966         5.65650
     2015.17043         3.04358         5.53447
     2015.17316        -3.27419         5.91033
     2015.17590        -4.14596         5.82247
     2015.17864        -1.31073         5.54521
     2015.18138         0.97151         5.56083
     2015.18407         8.34889         5.63795
     2015.18687         6.13492         5.56376
     2015.18959        -1.06279         5.63014
     2015.19233         3.36044         5.73851
     2015.19506        -0.33231         5.56961
     2015.19780         1.15990         5.53740
     2015.20054        -0.84786         6.13487
     2015.20328        -0.45863         5.45441
     2015.20602        -7.51440         5.66333
     2015.20876         1.15684         5.51787
     2015.21149        -7.27293         5.41634
     2015.21423        -1.27970         5.61159
     2015.21697         4.63853         5.55497
     2015.21971        -3.53923         5.43098
     2015.22245         0.40600         5.50225
     2015.22518         0.52923         5.50420
     2015.22793         2.08745         5.55009
     2015.23066         3.24070         5.48663
     2015.23340        -4.45907         5.68677
     2015.23613        -0.45984         5.62428
     2015.23887         2.24640         5.75218
     2015.24161         2.41163         5.82832
     2015.24435         8.02386         5.88007
     2015.24709         0.81010         5.58523
     2015.24982        -3.77967         5.64576
     2015.25256        -3.80744         5.66236
     2015.25530        -0.70921         5.48761
     2015.25804        -3.84697         5.57840
     2015.26077         3.24428         5.62428
     2015.26351         0.89349         5.51494
     2015.26625        -2.50327         5.47589
     2015.26899        -1.60204         5.57938
     2015.27173         3.71219         5.68286
     2015.27446         9.57442         5.76389
     2015.27720         2.97266         5.52080
     2015.27994        -3.79311         5.72777
     2015.28268         2.37812         5.56766
     2015.28542        -4.33664         5.73948
     2015.28815        -8.72141         5.76682
     2015.29089        -3.29018         5.63307
     2015.29363        -3.93995         5.67505
     2015.29637        -7.14671         5.51494
     2015.29911         1.52752         5.59402
     2015.30184         3.01075         5.43977
     2015.30458        -3.36000         5.42220
     2015.30732        -0.32278         5.49444
     2015.31006        -7.50255         5.43977
     2015.31279        -4.62732         5.44660
     2015.31553        -5.33008         5.47394
     2015.31827        -5.07385         5.40755
     2015.32101         1.07338         5.77853
     2015.32375        -6.85438         5.39193
     2015.32649        -4.46517         5.57547
     2015.32923        -5.82594         5.76291
     2015.33196        -1.90569         5.41634
     2015.33470        -1.93545         5.33531
     2015.33744        -3.30824         5.36557
     2015.34017        -2.83099         5.46222
     2015.34289        -6.96169         5.52470
     2015.34566        -4.50957         5.43391
     2015.34839        -1.71029         5.40560
     2015.35112        -7.51106         5.37534
     2015.35386        -2.13982         5.38607
     2015.35660        -1.82159         5.44075
     2015.35934        -0.20336         6.21688
     2015.36208         2.98388         5.45832
     2015.36482        -0.14793         5.34409
     2015.36755        -2.37566         5.29235
     2015.37029        -0.85443         5.40267
     2015.37303        -2.63319         5.29528
     2015.37577        -7.15796         5.35776
     2015.37850        -5.97873         5.58426
     2015.38124        -0.91149         5.47491
     2015.38398        -2.75026         5.37729
     2015.38671        -3.83901         5.43098
     2015.38945        -1.76580         5.39388
     2015.39219        -2.56656         5.34019
     2015.39493         0.14565         5.42708
     2015.39767        -4.06010         5.39291
     2015.40041        -0.00786         5.30016
     2015.40315        -0.74065         5.37436
     2015.40588        -6.57940         5.53154
     2015.40861        -3.47615         5.37729
     2015.41136         0.91107         5.40365
     2015.41410        -5.47870         5.43294
     2015.41683        -1.01247         5.35288
     2015.41957        -2.78923         5.38803
     2015.42231         0.24500         5.59011
     2015.42505        -6.36977         5.46906
     2015.42778        -5.74354         5.42220
     2015.43052         1.94670         5.46027
     2015.43326        -5.14009         5.50908
     2015.43599        -0.10782         5.37241
     2015.43874         1.03540         5.49444
     2015.44147        -3.29637         5.67896
     2015.44421        -5.06514         5.41634
     2015.44695         0.28409         5.36850
     2015.44969        -0.31567         5.38803
     2015.45243        -1.79344         5.48468
     2015.45516         0.22281         5.37143
     2015.45790        -4.41997         5.64967
     2015.46064        -1.11676         5.50127
     2015.46338        -0.27551         5.63014
     2015.46611         2.39472         5.44075
     2015.46885         3.83496         5.32262
     2015.47159         2.48819         5.40267
     2015.47433         0.60142         5.48565
     2015.47707        -0.33334         5.58133
     2015.47980         3.22689         5.51299
     2015.48254         0.22512         5.56668
     2015.48528        -1.80265         5.47199
     2015.48802        -4.54041         5.49737
     2015.49076         1.05382         5.48663
     2015.49349         2.86605         5.61940
     2015.49623         5.82429         5.76780
     2015.49897         1.33052         5.56766
     2015.50171         3.81775         5.44563
     2015.50444         1.26398         5.46515
     2015.50718        -2.55078         5.55106
     2015.50992         3.09845         5.40853
     2015.51266        10.30168         5.36264
     2015.51540         2.49892         5.37241
     2015.51813         8.45717         5.58719
     2015.52089        11.13833         5.52373
     2015.52361         4.36160         5.63014
     2015.52635         3.49985         5.33043
     2015.52908         3.47308         5.43001
     2015.53182         5.63831         5.39291
     2015.53456         3.80355         5.45344
     2015.53730         2.21478         5.57352
     2015.54004         2.85101         5.53544
     2015.54277         0.83924         5.58035
     2015.54551        11.10449         5.54032
     2015.54825         6.99471         5.65845
     2015.55099         4.40294         5.52959
     2015.55373        14.92818         5.56961
     2015.55646        11.12941         5.51494
     2015.55920         9.93464         5.57742
     2015.56194        12.21487         5.54228
     2015.56468         7.25111         5.53251
     2015.56741         9.14634         5.83516
     2015.57015        10.28757         5.78537
     2015.57289         8.70881         6.12316
     2015.57564         7.24400         5.83711
     2015.57837         4.83527         5.59402
     2015.58110         8.63050         5.81075
     2015.58384         8.41875         5.79415
     2015.58658        11.77899         5.82637
     2015.58932        13.29120         5.94060
     2015.59185        12.38016         6.33598
     2015.60641        -0.17079        13.75465
     2015.60940        15.57358        10.61204
     2015.61122        11.71507         5.85664
     2015.61396        11.87130         5.74046
     2015.61670         4.77953         5.55204
     2015.61943         8.58876         5.59695
     2015.62217         8.75200         5.51982
     2015.62491        13.38823         5.48370
     2015.62765        13.29746         5.57645
     2015.63039        10.37370         5.52178
     2015.63312        12.05293         6.10461
     2015.63586         9.78916         5.61257
     2015.63860         9.46639         5.44367
     2015.64134         5.21163         5.52959
     2015.64407         5.93686         5.54228
     2015.64681         5.92409         5.53251
     2015.64955         8.95434         5.49639
     2015.65229         6.24056         5.55790
     2015.65503        11.32679         5.71117
     2015.65732        13.43262         6.87488
     2015.66050        24.38126         5.57840
     2015.66324        11.35749         5.62136
     2015.66598        14.30072         5.70629
     2015.66872         4.58796         5.86152
     2015.67145         4.09219         5.58426
     2015.67420         9.11740         5.48468
     2015.67693         7.26265         5.58328
     2015.67967        11.10989         5.85371
     2015.68241         5.74610         5.48273
     2015.68514         4.44035         5.54228
     2015.68788         7.54959         5.49737
     2015.69062        10.18182         5.68579
     2015.69336         7.75805         5.64967
     2015.69609         9.27328         5.53642
     2015.69883        10.17352         5.62136
     2015.70157         2.15175         5.46027
     2015.70431         7.44998         5.49542
     2015.70705         7.80022         5.40755
     2015.70978         7.70945         5.46222
     2015.71252         2.53070         5.52178
     2015.71526         3.84791         5.51201
     2015.71800         7.74613         5.49932
     2015.72073        12.17938         5.67212
     2015.72347         4.27061         5.65748
     2015.72621         0.38283         5.47101
     2015.72895        -3.65292         5.44856
     2015.73169         4.17931         5.48468
     2015.73442         2.29954         5.47394
     2015.73702         1.28229         5.96598
     2015.73992         9.80493         5.61550
     2015.74264         3.04024         5.66724
     2015.74538        10.50446         5.71801
     2015.74811         3.17671         5.71898
     2015.75085        -2.19606         5.49737
     2015.75359         3.24516         5.56864
     2015.75633         3.16541         5.42903
     2015.75906         3.76964         5.66138
     2015.76180         1.65287         5.67114
     2015.76454         4.36811         5.48175
     2015.76728         2.76834         5.61159
     2015.77002        -4.13343         5.73655
     2015.77254        14.17955         6.35160
     2015.77549         5.44104         5.66431
     2015.77823         9.16027         5.62038
     2015.78097         5.40150         5.49151
     2015.78371         7.12474         5.45051
     2015.78644         7.16297         5.80099
     2015.78918         0.68420         5.53056
     2015.79192         1.95743         5.63893
     2015.79466         6.90767         5.48273
     2015.79739         3.84490         5.59402
     2015.80013         7.88613         5.75706
     2015.80287        -9.50863         5.98453
     2015.80561         1.56260         5.51787
     2015.80835        -0.41717         5.59695
     2015.81108        -2.12194         5.58914
     2015.81382        14.66030         5.75413
     2015.81656        -7.98947         5.69848
     2015.81930        -4.15724         5.68579
     2015.82203        -4.65500         5.82051
     2015.82477         4.73823         5.62819
     2015.82751         5.79748         5.68774
     2015.83025        12.33068         6.07044
     2015.83299         6.41693         5.87128
     2015.83572        -1.45184         5.66724
     2015.83846        -2.78461         5.69165
     2015.84120        -5.94237         5.55009
     2015.84393         1.29188         5.60866
     2015.84668        -3.58791         5.63698
     2015.84941        -0.44468         5.90740
     2015.85215         0.17656         5.61355
     2015.85489         2.57779         5.71703
     2015.85763        -4.18098         5.57840
     2015.86036        -3.33874         5.86640
     2015.86310        -2.31251         5.64088
     2015.86584        -5.41228         6.84267
     2015.86858        -5.95605         5.53740
     2015.87132        -3.94881         5.56571
     2015.87405        -7.76956         5.85273
     2015.87679        -8.47435         5.76584
     2015.87953        -7.14911         5.91912
     2015.88227        -0.65188         5.91131
     2015.88501        -8.25165         6.95787
     2015.88774        -4.70142         5.59500
     2015.89048         0.65382         5.65845
     2015.89322         0.83303         5.60085
     2015.89596        -0.30072         5.55106
     2015.89869        -2.02348         5.47199
     2015.90143        -5.60025         5.58816
     2015.90417        -5.73702         5.46027
     2015.90690        -3.47077         5.61940
     2015.90965        -1.96855         5.83613
     2015.91238        -3.37832         5.61355
     2015.91512        -2.19409         5.52568
     2015.91786        -2.32185         5.62428
     2015.92060         6.22438         5.59890
     2015.92334        -4.50639         5.60769
     2015.92591        -0.91656         5.92205
     2015.92908        -8.30087         6.40335
     2015.93155        -0.53269         7.01351
     2015.93429         6.62954         5.79904
     2015.93702        -2.74222         6.20712
     2015.93953         2.92084         6.34868
     2015.94250         3.85624         5.69848
     2015.94524        -2.87153         5.77463
     2015.94798         2.54671         5.70141
     2015.95072        -1.96808         5.72093
     2015.95345        -7.77883         5.48468
     2015.95619        -1.19861         5.65260
     2015.95893        -6.21636         5.63600
     2015.96167         4.01087         5.65162
     2015.96440         3.83510         5.55595
     2015.96714         0.09834         5.69848
     2015.96988         2.16057         5.63990
     2015.97262         6.30480         5.63502
     2015.97809       -14.75773         6.00308
     2015.98083        -3.48450         5.61355
     2015.98356        -9.00525         6.04213
     2015.98631        -5.10505         6.02846
     2015.98904        -1.16980         5.49444
     2015.99178       -11.40457         5.49542
     2015.99452        -3.81933         5.53740
     2015.99726        -1.78110         5.52666
     2016.00000        -0.46187         5.55497
     2016.00273        -2.63164         5.54618
     2016.00547         1.03960         5.53740
     2016.00820        -2.63215         5.63502
     2016.01095         2.10006         5.67993
     2016.01368         2.12930         5.63209
     2016.01642        -3.77047         5.71508
     2016.01916        -7.07024         5.72972
     2016.02190        -5.15601         5.67993
     2016.02463         1.83224         5.54228
     2016.02744        -3.39576         5.59207
     2016.03011        -0.43531         5.48468
     2016.03285         6.39293         5.53740
     2016.03559         0.89816         5.49151
     2016.03833        -1.89761         5.73265
     2016.04106         1.98262         5.50323
     2016.04380        -1.31914         6.64741
     2016.04654         7.31509         5.60964
     2016.04927        -0.23166         5.47003
     2016.05201        -3.68444         5.47687
     2016.05475        -0.82821         5.53349
     2016.05749        -1.68298         5.56961
     2016.06023        -2.24375         5.51006
     2016.06297        -0.63451         5.43684
     2016.06570        -0.33328         5.46125
     2016.06844        -0.92405         5.57352
     2016.07118        -1.86881         5.98941
     2016.07392        -0.26558         6.04896
     2016.07666         1.29863         5.58133
     2016.07939         6.90188         5.47687
     2016.08213         0.49612         5.57742
     2016.08487        -3.21465         5.50518
     2016.08760        -4.03240         5.58621
     2016.09034        -3.22418         6.39456
     2016.09308        -2.74995         5.63893
     2016.09747       -22.88562       101.44603
     2016.10015       -16.30517        14.15687
     2016.10324       -19.09217         8.85964
     2016.10951        -7.16555         5.62233
     2016.11133       -12.61507        10.00383
     2016.11670       -12.20319        11.18902
     2016.11921         1.69385        22.59086
     2016.12189        36.47127       143.60620
     2016.12594        -7.36316         5.55106
     2016.12827         3.93850         6.39163
     2016.13078        -0.20745         7.65297
     2016.13415         2.60854         5.40950
     2016.13586         0.09944        11.72499
     2016.13860        -7.88733        11.59514
     2016.14119       -22.34259        16.77815
     2016.14379         2.20015        84.39941
     2016.14658        -6.64882        19.64448
     2016.14938        -9.90679        15.88389
     2016.15257       -10.16118         8.59312
     2016.15502       -10.34392        10.88637
     2016.15879        -2.56236         5.59500
     2016.16050         5.05955        12.33516
     2016.16426        -3.81588         5.35776
     2016.16700        -3.05666         5.43391
     2016.16974        -3.81143         5.38315
     2016.17145        -7.03854        12.24046
     2016.17431        -1.87771         9.89839
     2016.17699        -2.82027        10.48317
     2016.18069        -3.60850         5.58523
     2016.18246        -3.39181        11.00743
     2016.18497        -1.55776        16.60535
     2016.18782         5.81008        12.23460
     2016.19130        -1.38635         6.04310
     2016.19308        32.41733        98.61583
     2016.19626        -5.77705         9.22574
     2016.20129       -51.73699        81.12988
     2016.20414        -9.39413        16.79475
     2016.20796        -5.13476         5.91131
     2016.21006       -15.13328         8.27876
     2016.21252        -5.89604        11.64103
     2016.21503       -18.65100        23.55639
     2016.21902        -3.12024         5.33043
     2016.22045       -71.70434        85.96729
     2016.22330        -8.25550        16.32809
     2016.22593       -92.00188        78.88154
     2016.22883        -9.71124        13.62871
     2016.23191        -8.52121         8.71222
     2016.23448        -5.45938        10.98009
     2016.23688        23.25905        84.67081
     2016.23984        -0.56651        13.20892
     2016.24247        -5.32387        15.21124
     2016.24520        -0.52664        15.40064
     2016.24783       -33.60500       118.92124
     2016.25057        -0.37578       108.14519
     2016.25347        -4.50214        14.39020
     2016.25678        -7.39495         7.03792
     2016.25884       -10.14827        19.66010
     2016.26163        -6.21124        15.72476
     2016.26460       -13.01382        10.79363
     2016.26779        -9.36022         6.90612
     2016.27104        -3.45682         5.38119
     2016.27258        -6.04031        15.60077
     2016.27623        -7.05033         6.03725
     2016.27800        -6.89664        20.00765
     2016.28199        -1.17388         6.07727
     2016.28342       -37.85997        88.46849
     2016.28667        -5.78457         8.40274
     2016.29021        -7.56619         5.42024
     2016.29180         1.34512        14.80902
     2016.29460         2.31115        12.97949
     2016.29774        -1.12205         7.56706
     2016.30116        -3.13425         5.50420
     2016.30390        -3.70802         5.48468
     2016.30538        16.07369        28.96101
     2016.30845        -5.61827         9.96868
     2016.31091       -11.89805        17.14718
     2016.31371        -6.07402        15.94735
     2016.31759        -4.02086         5.32555
     2016.32032        -8.07262         5.26892
     2016.32209       -10.70893        10.99181
     2016.32449        -3.70150        94.25289
     2016.32750        10.14077        12.72273
     2016.33059        -8.50825         7.42648
     2016.33401        -1.14046         5.35581
     2016.33561        -8.72116        15.76967
     2016.33863        -2.16694         9.03049
     2016.34200        -2.83895         5.88788
     2016.34496        -2.04753         5.58035
     2016.34639       -27.34262       170.44285
     2016.35209        -3.25396        13.45689
     2016.35466       -22.85812        24.01035
     2016.35740       -25.25089        24.86556
     2016.36139        -8.16613         5.30309
     2016.36316         2.96556        11.43894
     2016.36556       -59.78000        85.41082
     2016.36829        15.72525        73.84594
     2016.37132         4.95546        11.88412
     2016.37411        -6.47951        10.99962
     2016.37691        -8.74748         9.17985
     2016.37979        -4.10475         8.07374
     2016.39698         7.30890         5.29723
     2016.39887        -2.50882         8.70344
     2016.40240        -1.01044         5.52470
     2016.40520        -4.28141         5.33238
     2016.40708        -0.94612         8.49744
     2016.40950        -1.56277        15.98445
     2016.41341        -7.33669         5.47784
     2016.41489        -7.05998        30.47325
     2016.41889        -5.70024         5.41048
     2016.42031       -14.45433        88.61689
     2016.42311       -14.75830        22.60941
     2016.42619         2.16471         9.07539
     2016.42984        -2.76931         5.41634
     2016.43258        -0.22408         5.38412
     2016.43509         2.53997         5.87323
     2016.43674       -24.83395        80.98735
     2016.43965       -15.92031        13.44713
     2016.44223       -65.09653       134.11394
     2016.44535        -5.01266         9.49519
     2016.44786         6.23239        13.89230
     2016.45066         7.32242        11.85874
     2016.45722         2.10902         5.39096
     2016.45898         4.90071         9.78905
     2016.46173         1.92293         9.90034
     2016.46543        -1.27128         5.44075
     2016.46777        -6.13163         6.28522
     2016.47016        -3.11017         7.97123
     2016.47284         1.10526         8.36858
     2016.47535         9.91731        10.97033
     2016.47824         1.33704         9.49617
     2016.48106        -2.19704         8.11182
     2016.48459        -1.61265         5.25135
     2016.48733        -3.39242         5.39388
     2016.49281        -3.15895         5.37924
     2016.49429         0.95676        21.27680
     2016.50011         2.79800         8.73468
     2016.50256        -9.43075        16.28807
     2016.50627         2.81302         5.80587
     2016.50901         4.67126         5.63600
     2016.51163        -0.07210         5.96305
     2016.51391        -3.02924         7.93609
     2016.51745         0.28414         5.41927
     2016.51984         3.63660         5.99527
     2016.52292         1.72161         5.36362
     2016.52492        -3.34151         7.58951
     2016.52840        -1.60493         5.37045
     2016.53057        -3.11666         6.86805
     2016.53274         2.39761        12.35663
     2016.53661         2.59777         5.44856
     2016.53935         4.83800         5.21816
     2016.54146         3.38848         6.86903
     2016.54431         7.39530         6.41018
     2016.54665        -0.64104         8.86159
     2016.54933         3.30739         9.24331
     2016.55270         2.86239         5.88592
     2016.55458        17.53967        15.52170
     2016.55772         0.01448         7.79843
     2016.56125         2.51587         5.28064
     2016.56348        -2.72907         6.48340
     2016.56616         6.30037         6.96372
     2016.56946        -0.59342         5.65162
     2016.57220         5.65982         5.32262
     2016.57397        12.95249         9.36242
     2016.57671       -15.33428         9.67287
     2016.57991         3.92333         6.49414
     2016.58230         0.87578         8.42325
     2016.58544        -3.47441         6.30084
     2016.58812         9.68203         6.58981
     2016.59103         0.49665         6.11535
     2016.59297         4.55273        12.81255
     2016.59565        14.53517        14.45171
     2016.59833         4.14160        18.96695
     2016.60232         3.40936         5.47589
     2016.60420        15.13164         8.29926
     2016.60922        10.13974        58.61224
     2016.61327        -0.56171         5.46710
     2016.61573        -0.96046         6.10070
     2016.61749        21.43723        19.75675
     2016.62029         6.30625        14.13735
     2016.62421         3.41429         5.56180
     2016.62696         2.20746         5.50323
     2016.62942         0.35171         6.00405
     2016.63181        -4.22084         7.23708
     2016.63426         1.32341         8.87916
     2016.63672        15.12366        14.01141
     2016.63957        17.42349        11.49459
     2016.64339        -0.90115         5.48565
     2016.64561         8.22592         6.69916
     2016.64887        -0.17168         5.46710
     2016.65115         2.64418         9.75292
     2016.65434         7.87578         5.66529
     2016.65650         2.12507         6.99204
     2016.65930        -2.22792         6.74699
     2016.66159        -2.92006         9.67189
     2016.66723         3.10180         8.53064
     2016.67043         5.12140         6.82021
     2016.67328         1.48023         5.97476
     2016.67619         0.80485         5.61550
     2016.67813        -2.16807         8.42520
     2016.68064        17.75998        12.05692
     2016.68315       -18.37099        61.99306
     2016.68663         4.55761         7.07209
     2016.68931         6.25505         7.17655
     2016.69267         5.68604         5.43977
     2016.69478        10.64652         7.39133
     2016.69752         5.35475         7.17850
     2016.69980         3.77461        13.33095
     2016.70237       -35.33055        84.73622
     2016.70636         8.02721         5.64967
     2016.70830         1.24029         9.50690
     2016.71167         3.63728         5.98843
     2016.71383         9.73755         8.02298
     2016.71648         2.60812         9.24429
     2016.71922        -3.80366         8.36467
     2016.72154         6.37907        18.75607
     2016.72467        14.73889         8.83914
     2016.72826        -0.32293         5.53056
     2016.72997        -7.29603        10.83365
     2016.73328         6.12716         6.78019
     2016.73517       -46.40757        86.70438
     2016.73870        -7.41115         7.17558
     2016.74127         5.25468         7.70959
     2016.74378         0.82572        10.22349
     2016.74971         9.19156         6.64546
     2016.75290         5.80317         5.44172
     2016.75490        11.45005         7.92925
     2016.75752         6.18568         8.74151
     2016.76106         7.00907         5.50225
     2016.76317         3.84854         7.48798
     2016.76631         2.11335         6.37601
     2016.76933         8.18656         5.47003
     2016.77104         1.07646        10.96740
     2016.77418         3.19927         7.27125
     2016.77623       -19.05506        89.88604
     2016.78028        -4.00850         5.30114
     2016.78216        -6.62622         9.04903
     2016.78496       -13.40819         8.73760
     2016.78804         3.87182         6.81240
     2016.79066         4.78846         7.36204
     2016.79329         2.47310         7.81601
     2016.79650        -0.21934         6.12218
     2016.79905        -4.15145         6.60934
     2016.80116        -4.42398        10.26351
     2016.80362       -20.86275        99.64775
     2016.80680         1.63589         9.17400
     2016.80977         2.71830         7.61001
     2016.81285        -0.58869         6.30181
     2016.81468        -0.74320        17.31315
     2016.81753       -17.20040        11.49068
     2016.82101        -0.91179         6.53612
     2016.82300        -1.78791        11.75916
     2016.82671         0.23588         5.78049
     2016.82956        -2.52231         5.30016
     2016.83202        -6.02406         6.12413
     2016.83458        -8.66422         7.14043
     2016.83692        -3.37456         9.19938
     2016.84052        -8.71340         5.39291
     2016.84240        -5.67510         9.40928
     2016.84485       -10.61885        14.31210
     2016.84822        -1.81185         7.84920
     2016.85290       -37.76455        83.95228
     2016.85620        -3.87234         8.18992
     2016.85882       -13.77170         9.58891
     2016.86202        -7.78709         6.84755
     2016.86468       -10.07459         7.37669
     2017.14538       -13.50896         9.90034
     2017.14715        -9.99130         5.17911
     2017.14989        -9.38607         5.18692
     2017.15263        -1.51684         5.17032
     2017.15537        -8.01160         5.19180
     2017.15811         0.70763         5.24256
     2017.16084        -5.85014         5.21718
     2017.16358        -9.60190         5.14494
     2017.16632        -7.36167         5.16446
     2017.16906        -8.34244         5.18887
     2017.17180       -15.96821         5.18594
     2017.17453       -16.92997         5.18692
     2017.17727        -3.66774         5.28357
     2017.18001       -19.35351         5.20254
     2017.18275       -10.19127         5.19180
     2017.18548        -9.35504         5.17032
     2017.18822        -8.65281         5.19570
     2017.19096       -13.67958         5.39584
     2017.19370        -6.39734         5.16641
     2017.19644       -10.31611         5.21327
     2017.19917        -9.69088         5.15372
     2017.20191        -3.51464         5.20156
     2017.20465        -6.93741         6.08411
     2017.20742        -8.16528         8.70734
     2017.21013        -5.11895         5.21035
     2017.21286        -8.62771         5.16153
     2017.21560        -8.55648         5.29528
     2017.21834         2.14975         5.26697
     2017.22108        -1.06001         5.20351
     2017.22381        -6.23678         5.26404
     2017.22655         2.09845         5.26014
     2017.22929       -10.87132         5.23671
     2017.23203        -5.71708         5.15275
     2017.23477        -9.57885         5.22206
     2017.23750       -13.45962         5.14298
     2017.24024        -9.17638         5.18008
     2017.24298       -12.03115         5.23573
     2017.24572       -10.40092         5.16739
     2017.24846       -15.59269         5.21230
     2017.25119       -12.97845         5.33531
     2017.25393       -11.92222         5.17130
     2017.25667       -11.18899         5.19765
     2017.25941        -9.70375         5.19961
     2017.26214        -1.51552         5.29138
     2017.26471        -2.59768         5.65845
     2017.26765        -3.57016         5.26014
     2017.27036        -0.82982         5.15665
     2017.27310        -7.05959         5.35972
     2017.27583        -9.43936         5.18106
     2017.27857        -6.92712         5.18984
     2017.28131       -12.76989         5.29040
     2017.28405       -17.33666         5.20742
     2017.28679       -11.42843         5.17325
     2017.28952       -14.91219         5.18301
     2017.29226        -8.83496         5.18692
     2017.29500       -12.02173         5.30602
     2017.29774        -9.65349         5.28161
     2017.30047        -9.74826         5.18789
     2017.30321       -15.41103         5.15665
     2017.30595        -3.64280         5.19570
     2017.30869       -13.13656         5.13127
     2017.31143        -7.83333         5.14786
     2017.31416        -9.61510         5.21523
     2017.31690        -6.52386         5.15860
     2017.31964       -10.83963         5.26502
     2017.32238       -13.03640         5.22987
     2017.32512       -18.29617         5.16837
     2017.32785       -12.98093         5.23475
     2017.33059       -19.30170         5.16153
     2017.33333       -12.22747         5.19668
     2017.33607       -12.27123         5.15275
     2017.33880       -15.75200         5.21230
     2017.34154        -6.41977         5.30016
     2017.34428       -10.24554         5.23182
     2017.34702       -10.94130         5.15079
     2017.34976       -13.84107         5.14591
     2017.35249       -16.54884         5.14591
     2017.35523       -14.31360         5.12834
     2017.35797       -16.03237         5.27380
     2017.36071       -13.21314         5.13713
     2017.36344        -9.23591         5.10296
     2017.36618        -8.86667         5.15763
     2017.36892        -8.18844         5.12541
     2017.37166       -11.46721         5.15958
     2017.37440        -9.15697         5.13420
     2017.37713        -7.86874         5.20058
     2017.37987       -16.59051         5.39486
     2017.38261       -11.96828         5.12541
     2017.38535       -11.20904         5.12736
     2017.38809       -10.94981         5.14786
     2017.39082       -16.00958         5.34995
     2017.39356        -5.01834         5.25916
     2017.39630        -6.79411         5.15372
     2017.39904        -8.33688         5.13224
     2017.40177       -10.54265         5.12151
     2017.40451        -9.08841         5.31285
     2017.40725        -4.88518         5.17130
     2017.40999        -4.44095         5.32847
     2017.41273       -11.26471         5.15665
     2017.41546        -7.48648         5.19863
     2017.41820        -6.48125         5.23866
     2017.42094        -7.79002         5.15763
     2017.42368       -11.09278         5.15079
     2017.42642        -9.19855         5.15079
     2017.42915        -7.44332         5.10686
     2017.43189        -7.53408         5.34117
     2017.43463        -7.79885         5.18887
     2017.43737        -4.46462         5.17715
     2017.44010        -3.63239         5.19180
     2017.44284        -4.10015         5.16837
     2017.44558        -1.93392         5.13713
     2017.44832        -3.50869         5.16056
     2017.45106        -1.27145         5.12834
     2017.45379        -0.38722         5.33824
     2017.45653        -2.44199         5.33921
     2017.45927        -9.07676         5.15568
     2017.46201        -4.76652         5.17520
     2017.46475       -10.52529         5.22401
     2017.46748        -9.53506         5.72777
     2017.47028        -4.20905         5.24354
     2017.47296        -6.00159         5.41732
     2017.47570        -8.80136         5.12248
     2017.47843        -7.66413         5.14982
     2017.48117        -5.06589         5.37338
     2017.48391        -1.35366         5.23085
     2017.48665        -5.44443         5.10589
     2017.48939        -3.01819         5.14103
     2017.49212        -2.76496         5.13713
     2017.49486        -5.58473         5.22987
     2017.49760        -6.31850         5.26014
     2017.50034        -1.57226         5.17813
     2017.50308         1.55297         5.16934
     2017.50581        -4.49680         5.13322
     2017.50855        -5.40856         5.17911
     2017.51129       -10.06933         5.23085
     2017.51403        -8.00910         5.22206
     2017.51676        -2.85687         5.14591
     2017.51950       -11.84163         5.24647
     2017.52224        -2.07340         5.25330
     2017.52498        -2.77317         5.14103
     2017.52772        -3.45593         5.33921
     2017.53045        -3.62470         5.17130
     2017.53319        -4.90147         5.20546
     2017.53593        -6.54524         5.27087
     2017.53867        -1.99500         5.15763
     2017.54141         1.89723         5.18106
     2017.54379         1.53572         5.81661
     2017.54692        -0.39746         5.29919
     2017.54962        -1.82107         5.29528
     2017.55236        -3.17184         5.18789
     2017.55509        -2.62361         5.17813
     2017.55783        -3.72037         5.25233
     2017.56057        -0.62814         5.20156
     2017.56331        -0.47091         5.22401
     2017.56605        -3.57767         5.25330
     2017.56878        -1.75744         5.23475
     2017.57152         0.28779         5.16934
     2017.57426         1.81702         5.22206
     2017.57700        -3.56674         5.23671
     2017.57974        -2.89751         5.23182
     2017.58247        -1.55028         5.20546
     2017.58521        -4.79904         5.21425
     2017.58795       -11.04381         5.28552
     2017.59069        -2.05358         5.44856
     2017.59342        -0.41335         5.28357
     2017.59616         1.48389         5.15860
     2017.59890        -2.68288         5.16251
     2017.60164        -4.74065         5.24354
     2017.60438        -1.14341         5.27576
     2017.60711        -4.02218         5.26404
     2017.60985        -0.85295         5.32066
     2017.61259        -4.16272         5.24842
     2017.61533        -9.00748         5.36362
     2017.61807         5.00475         5.33433
     2017.62080        -0.83202         5.22890
     2017.62354         0.39222         5.26111
     2017.62628        -2.17655         5.37241
     2017.62902        -2.22632         5.55595
     2017.63175         2.82491         5.20742
     2017.63449         1.21515         5.22987
     2017.63723        -3.02962         5.20742
     2017.63997        -3.40939         5.26014
     2017.64237        -2.63597         6.11339
     2017.65754       -11.66208        11.81188
     2017.65913         3.64324         5.21718
     2017.66187        -0.02152         5.33140
     2017.66461         4.66271         5.30309
     2017.66735         5.93994         5.34702
     2017.67008         6.25717         5.18106
     2017.67282         7.04641         5.36655
     2017.67556         0.44764         5.22206
     2017.67830         0.62087         5.23768
     2017.68104         3.94611         5.19375
     2017.68377         4.66734         5.38998
     2017.68651         4.62657         5.41341
     2017.68925         5.76480         5.28161
     2017.69199         4.78904         5.17813
     2017.69472         8.23427         5.17422
     2017.69746         8.80150         5.41536
     2017.70020        12.27574         5.38803
     2017.70294         3.51897         5.42024
     2017.70568        -8.34680         5.34019
     2017.70841         6.49343         5.19473
     2017.71115         2.04367         5.35776
     2017.71389         0.82290         5.25623
     2017.71663         6.39013         5.25623
     2017.71937        -0.48463         5.19180
     2017.72210         3.10860         5.22694
     2017.72484         2.94583         5.19570
     2017.72758         1.98606         5.21230
     2017.73032         0.99430         5.19570
     2017.73305         1.90253         5.12248
     2017.73579        -1.71424         5.17227
     2017.73853         3.66300         5.55009
     2017.74127        -0.03877         5.21425
     2017.74401         8.19546         5.38022
     2017.74674        -1.84331         5.29821
     2017.74948        -1.68207         5.22304
     2017.75222         1.31616         5.22792
     2017.75496        -0.23861         5.18301
     2017.75770         0.25963         5.29528
     2017.76043         1.78586         5.18984
     2017.76317         4.22409         5.22401
     2017.76591        -1.75868         5.34605
     2017.76865         3.56356         5.22987
     2017.77138        -1.65021         5.17130
     2017.77412         3.18702         5.32457
     2017.77686         1.58826         5.14689
     2017.77960         0.94749         5.27478
     2017.78234        -3.72928         5.22401
     2017.78507        -0.73405         5.15763
     2017.78781        -4.87681         5.12346
     2017.79055        -1.14658         5.22890
     2017.79329         2.83165         5.21132
     2017.79591         7.02429         5.54130
     2017.79877         7.62410         5.37534
     2017.80150         5.95135         5.32750
     2017.80424         5.89958         5.15860
     2017.80698        -5.94018         5.32750
     2017.80971        -6.18995         5.15860
     2017.81245        -5.32472         5.21327
     2017.81519         3.44152         5.35874
     2017.81793        -7.68525         5.12834
     2017.82067        -8.09102         5.22792
     2017.82340        -0.76579         5.17618
     2017.82614        -0.72555         5.14982
     2017.82888        -4.56332         5.20742
     2017.83162        -0.15409         5.20742
     2017.83436        -1.91785         5.18887
     2017.83709        -0.91662         5.27185
     2017.83983       -11.28339         5.14786
     2017.84257        -3.48816         5.16251
     2017.84531        -5.59392         5.18984
     2017.84804       -11.06469         5.10393
     2017.85078         0.52654         5.15860
     2017.85352         3.09778         5.22694
     2017.85626         8.61401         5.46320
     2017.85900        -6.47876         5.29919
     2017.86173         4.50747         5.30700
     2017.86447         6.01371         5.19668
     2017.86721         4.17394         5.90740
     2017.86995        -3.39683         5.13224
     2017.87269         1.34941         5.26209
     2017.87542         0.50964         5.17227
     2017.87816        -2.94013         5.21327
     2017.88090        -3.63390         5.11565
     2017.88364         0.58234         5.15763
     2017.88637         0.15557         5.19277
     2017.88883         1.26082         6.42971
     2017.89209         6.39919         5.94060
     2017.89459        -3.47973         5.32066
     2017.89733        -1.46350         5.17422
     2017.90006        -7.92527         5.24940
     2017.90280        -1.83303         5.35093
     2017.90554        -1.15280         5.19961
     2017.90828        -0.06857         5.23280
     2017.91102        -4.90133         5.27283
     2017.91375        -7.80210         5.25916
     2017.91649        -3.25187         5.16544
     2017.91923        -2.57464         5.27380
     2017.92197        -5.92840         5.15372
     2017.92470        -6.17617         5.13517
     2017.92744       -10.94494         5.12443
     2017.93018        -6.82370         5.18887
     2017.93292        -6.01947         5.14005
     2017.93566        -3.15624         5.19277
     2017.93839        -2.07601         5.18984
     2017.94113        -4.59577         5.25037
     2017.94387        -1.30254         5.16544
     2017.94661         0.54469         5.22890
     2017.94935        -0.45707         5.32750
     2017.95208        -1.04884         5.33628
     2017.95482        -4.55261         5.30504
     2017.95756        -8.88638         5.23573
     2017.96030        -1.46714         5.10686
     2017.96303        -1.25391         5.14689
     2017.96577         6.38832         5.28942
     2017.96851        -3.38644         5.15763
     2017.97125        -4.23621         5.14103
     2017.97399        -4.66998         5.09319
     2017.97672        -6.97975         5.09710
     2017.97946        -4.30551         5.15177
     2017.98220        -6.81828         5.13615
     2017.98494       -11.34405         5.14494
     2017.98767       -11.27881         5.10003
     2017.99041        -5.56958         5.15079
     2017.99315         2.56365         5.16056
     2017.99589        -5.09312         5.27380
     2017.99863        -8.63288         5.12736
     2018.00136        -8.11065         5.14201
     2018.00410       -12.19942         5.15079
     2018.00684        -8.63118         5.19863
     2018.00958        -4.18995         5.17032
     2018.01232        -8.37072         5.17325
     2018.01505        -2.92049         5.19863
     2018.01779        -4.36925         5.13224
     2018.02053        -7.38902         5.21327
     2018.02327        -0.44779         5.14201
     2018.02600        -3.85555         5.23182
     2018.02874        -4.27832         5.22206
     2018.03148       -11.16209         5.12248
     2018.03422       -10.77886         5.14298
     2018.03696       -11.16362         5.18984
     2018.03969        -8.34539         5.25623
     2018.04243       -13.27016         5.22890
     2018.04517       -11.89292         5.17227
     2018.04791        -7.86069         5.30407
     2018.05065        -5.80246         5.14591
     2018.05338        -5.05023         5.16251
     2018.05612        -2.58199         5.12053
     2018.05886       -11.54076         5.16251
     2018.06160        -6.25753         5.15372
     2018.06433        -3.72329         5.29235
     2018.06707        -5.35806         5.27673
     2018.06981        -6.03483         5.22792
     2018.07255        -6.72860         5.69750
     2018.07529       -17.27936         5.31090
     2018.07802        -7.61213         5.34117
     2018.08088        -8.79532         5.58719
     2018.08350       -12.12966         5.25818
     2018.08624       -12.52143         5.23768
     2018.08898        -4.81420         5.43196
     2018.09171       -10.57697         5.27966
     2018.09445        -5.62373         5.31383
     2018.09719        -4.66350         5.38510
     2018.09993        -9.04427         5.25233
     2018.10266       -12.77203         5.29723
     2018.10540       -12.37580         5.40169
     2018.10814        -7.49857         5.24842
     2018.11088        -7.73934         5.78146
     2018.11362        -6.64610         5.24744
     2018.11635       -12.56887         5.29235
     2018.11909       -11.09264         5.43782
     2018.12183        -5.51640         5.36069
     2018.12457       -10.26617         5.21913
     2018.12731        -8.25994         5.27771
     2018.13004         0.84329         5.35776
     2018.13278        -0.65047         5.30212
     2018.13552        -5.43524         5.21816
     2018.13826       -10.16501         5.29528
     2018.14099        -4.61677         5.21718
     2018.14373       -12.78454         5.26404
     2018.14647        -2.97931         5.54423
     2018.15195        -4.38984         5.29431
     2018.15468        -9.15361         5.24940
     2018.15742        -2.10238         5.30212
     2018.16016        -5.12414         5.25037
     2018.16290        -4.15191         5.35581
     2018.16564        -8.97168         5.36655
     2018.16837        -8.62445         5.19375
     2018.17111        -9.35921         5.26306
     2018.17385       -11.84698         5.29723
     2018.17659       -13.97275         5.24256
     2018.17932        -4.73451         5.42220
     2018.18206        -2.29128         5.35483
     2018.18480        -6.98005         5.30700
     2018.18754        -7.77982         5.24061
     2018.19028       -11.95258         5.23573
     2018.19291        -1.82199         5.48175
     2018.19575         1.18788         5.60964
     2018.19849        -7.69288         5.27673
     2018.20123         2.25235         5.30895
     2018.20397        -0.49342         5.26795
     2018.20670        -3.93919         5.21913
     2018.20944        -4.83595         5.21230
     2018.21218       -13.00672         5.21913
     2018.21492       -19.90649         5.21718
     2018.21765        -3.26125         5.17911
     2018.22039        -4.46602         5.33043
     2018.22313        -2.31279         5.17618
     2018.22587       -12.76156         5.13713
     2018.22861       -15.39132         5.11370
     2018.23134       -10.38809         5.13713
     2018.23408       -12.30986         5.19765
     2018.23682        -7.77162         5.18399
     2018.23956       -10.24039         5.14103
     2018.24230       -10.93516         5.14982
     2018.24503       -10.20693         5.16544
     2018.24777        -7.10569         5.16251
     2018.25051        -8.37946         5.20937
     2018.25325       -12.82723         5.17618
     2018.25598        -8.37399         5.14494
     2018.25872        -7.70876         5.30504
     2018.26146        -4.45153         5.29235
     2018.26420        -7.24130         5.33043
     2018.26694        -7.11006         5.11760
     2018.26967       -16.39983         5.09905
     2018.27241        -5.59260         5.24354
     2018.27515         6.84464         5.12248
     2018.27789        -3.96913         5.33433
     2018.28062        -9.59590         5.32164
     2018.28336       -17.30367         5.30504
     2018.28610       -15.18643         5.17618
     2018.28884        -3.53320         5.17227
     2018.29158        -8.69897         5.24452
     2018.29431       -16.66973         5.20351
     2018.29705       -12.73450         5.10296
     2018.29979       -16.04627         5.17911
     2018.30253       -10.74804         5.18106
     2018.30527        -8.25780         5.12834
     2018.30764        -8.00028         5.88885
     2018.31081       -10.67957         5.64967
     2018.31348       -16.62710         5.15372
     2018.31622       -13.88187         5.08734
     2018.31895        -6.39164         5.25233
     2018.32169        -7.17941         5.15079
     2018.32443        -9.28617         5.14689
     2018.32717       -12.24294         5.14103
     2018.32991        -7.71471         5.27771
     2018.33264        -9.15447         5.25037
     2018.33538       -10.76924         5.60671
     2018.33812       -11.27901         5.29626
     2018.34086        -9.74378         5.15470
     2018.34360       -10.58154         5.14982
     2018.34633       -11.56931         5.11565
     2018.34907        -9.85908         5.14201
     2018.35181        -1.57784         5.22109
     2018.35455        -5.00661         5.14103
     2018.35728        -6.29738         5.11760
     2018.36002        -5.33615         5.14201
     2018.36276         0.46909         5.23378
     2018.36550        -4.34568         5.11955
     2018.36824        -3.33345         5.10979
     2018.37097        -7.80621         5.23963
     2018.37371        -6.83898         5.09319
     2018.37645        -8.42975         5.22109
     2018.37919        -2.83952         5.11467
     2018.38193        -6.08428         5.13420
     2018.38466        -2.31705         5.06293
     2018.38740        -2.28882         5.09417
     2018.39014        -1.34358         5.13517
     2018.39288        -8.43635         5.22499
     2018.39561         0.91188         5.12834
     2018.39835        -2.76889         5.15079
     2018.40109        -1.97165         5.12443
     2018.40383        -4.31342         5.26599
     2018.40657        -4.41919         5.17130
     2018.40930        15.02005         5.23182
     2018.41204         0.92128         5.11760
     2018.41478        -4.12249         5.10979
     2018.42299        -0.69379         5.14591
     2018.42573         3.34044         5.12443
     2018.42847         0.93168         5.06976
     2018.43121        -4.43909         5.15763
     2018.43394        -2.40986         5.15568
     2018.43668        -4.15363         5.13420
     2018.43942        -4.51039         5.21132
     2018.44216        -0.67216         5.10296
     2018.44490        -1.70493         5.09124
     2018.44763        -5.07569         5.31578
     2018.45037        -5.73446         5.14103
     2018.45311         0.06577         5.08441
     2018.45585         1.23400         5.22792
     2018.45859        -2.17076         5.13810
     2018.46132       -11.18153         5.14494
     2018.46406        -0.70730         5.15763
     2018.46680        -8.00306         5.18203
     2018.46954        -0.06683         5.16056
     2018.47227        -1.71460         5.24842
     2018.47501         4.40263         5.09612
     2018.47775         2.15087         5.13029
     2018.48049         4.55010         5.30602
     2018.48323        -0.11067         5.10589
     2018.48596        -2.04143         5.15079
     2018.48870        -2.03220         5.13517
     2018.49144        -2.86697         5.08831
     2018.49418        -1.61374         5.21230
     2018.49692         3.22850         5.35386
     2018.49965        -3.79927         5.13713
     2018.50239        -4.19104         5.14982
     2018.50513        -3.15880         5.16934
     2018.50787        -0.47757         5.16446
     2018.51060        -0.02634         5.18692
     2018.51334        -5.22311         5.11760
     2018.51608        -0.05087         5.16056
     2018.51882        -3.34464         5.17227
     2018.52156        -3.33641         5.11370
     2018.52429        -1.72717         5.13615
     2018.52703        -0.77394         5.16251
     2018.52977        -4.48771         5.22011
     2018.53251         0.39252         5.15079
     2018.53525        -3.11924         5.09808
     2018.53798        -3.67701         5.15763
     2018.54072         1.65222         5.17715
     2018.54346         2.27846         5.18203
     2018.54620         2.36769         5.11174
     2018.54893         0.08692         5.13713
     2018.55167        -4.62385         5.20839
     2018.55441         1.42239         5.09417
     2018.55715        -2.43538         5.30504
     2018.55989        -1.45515         5.29626
     2018.56262         1.18309         5.14884
     2018.56536        -1.96668         5.16446
     2018.56810        -0.98945         5.18203
     2018.57084        -5.49322         5.13029
     2018.57357         3.08402         5.32945
     2018.57631        -5.57475         5.48175
     2018.57905        -0.04052         5.42317
     2018.58179         0.46072         5.24256
     2018.58453        -4.47105         5.29235
     2018.58726        -2.14982         5.10784
     2018.59000         2.73141         5.11272
     2018.59274        -0.77435         5.15568
     2018.59548        -1.39912         5.19375
     2018.59822        -2.17689         5.18399
     2018.60095         4.24935         5.15860
     2018.60369        -1.92142         5.13127
     2018.60643         2.88881         5.17422
     2018.60917         7.13504         5.25135
     2018.61190         1.72528         5.12053
     2018.61464         3.95851         5.16056
     2018.61738        -1.30226         5.15763
     2018.62012         1.83998         5.10491
     2018.62286         0.07421         5.23963
     2018.62559        -3.24556         5.30797
     2018.62833        -0.97133         5.12932
     2018.63107         2.84991         5.14689
     2018.63381         5.08114         5.29040
     2018.63655        -1.59763         5.09515
     2018.63928         3.22461         5.37045
     2018.64202         3.04184         5.46222
     2018.64476         2.02807         5.10979
     2018.64750         1.64930         5.11565
     2018.65023         3.12454         5.21425
     2018.65297         6.00777         5.13615
     2018.65571         5.02900         5.20839
     2018.65845        -2.01376         5.15275
     2018.66119         0.63547         5.11077
     2018.66392         1.96670         5.11370
     2018.66666         6.82193         5.13127
     2018.66940         0.39717         5.13615
     2018.67214         3.69940         5.25135
     2018.67488         0.49963         5.15568
     2018.67761         3.17987         5.17032
     2018.68035        -3.77490         5.23671
     2018.68309        -8.42167         5.21816
     2018.68583         6.58256         5.28357
     2018.68856         0.20780         5.20058
     2018.69130         1.10303         5.19863
     2018.69404         7.18526         5.28747
     2018.69678        -2.57850         5.22206
     2018.69952        -2.98927         5.15372
     2018.70225        -4.36304         5.29626
     2018.70499        -2.92081         5.12932
     2018.70773        -2.13957         5.23378
     2018.71047        -3.54234         5.15860
     2018.71321        -3.77611         5.09710
     2018.71594        -0.59587         5.23280
     2018.71868        -7.20764         5.17813
     2018.72142        -3.05141         5.13908
     2018.72416        -1.43318         5.25135
     2018.72689         0.30106         5.10100
     2018.72963         0.24529         5.15958
     2018.73237        -7.19248         5.15470
     2018.73511        -6.77124         5.16739
     2018.73785        -7.45501         5.17032
     2018.74058        -8.00678         5.12151
     2018.74332        -1.06355         5.13908
     2018.74606        -5.00731         5.14884
     2018.74880        -7.94108         5.26990
     2018.75154        -8.34585         5.32847
     2018.75427        -1.35961         5.08343
     2018.75701        -1.68038         5.21035
     2018.75975        -2.21215         5.19180
     2018.76249        -0.83992         5.11662
     2018.76522        -3.96668         5.22304
     2018.76796        -7.73445         5.15568
     2018.77070       -11.59422         5.26404
     2018.77344        -1.49098         5.14786
     2018.77618         2.59125         5.17911
     2018.77891         0.09648         5.16153
     2018.78165        -4.05729         5.19180
     2018.78439        -2.40005         5.11272
     2018.78713        -4.43782         5.08148
     2018.78971       -12.70403         5.69946
     2018.79257        -8.29025         5.52666
     2018.79540         5.43367         5.16641
     2018.79808        -4.54689         5.09319
     2018.80082        -7.05166         5.20254
     2018.80355        -5.79942         5.10296
     2018.80629        -1.61019         5.32164
     2018.80903        -4.39496         5.15372
     2018.81177        -2.04472         5.39681
     2018.81451        -1.47449         5.36460
     2018.81724        -6.48726         5.29821
     2018.81998        -1.51903         5.23475
     2018.82272        -3.79079         5.30700
     2018.82546        -0.61656         5.15665
     2018.82820        -5.52533         5.11565
     2018.83093         0.48491         5.14298
     2018.83367        -4.39986         5.19570
     2018.83641        -2.07163         5.36655
     2018.83915         0.64960         5.22987
     2018.84188        -1.26516         5.32457
     2018.84462         1.82207         5.19180
     2018.84736        -8.25370         5.16641
     2018.85010        -3.94746         5.11662
     2018.85284        -7.43523         5.12248
     2018.85557        -8.02000         5.38217
     2018.85831        -8.40777         5.09124
     2018.86105        -8.68053         5.10198
     2018.86379        -4.87530         5.20351
     2018.86653        -1.70307         5.23768
     2018.86926        -5.64683         5.21816
     2018.87200       -10.71760         5.16739
     2018.87474        -2.23437         5.13908
     2018.87748        -7.75814         5.19082
     2018.88021        -5.06590         5.32847
     2018.88295        -3.51167         5.24842
     2018.88569        -3.88844         5.24549
     2018.88843         0.28680         5.26111
     2018.89117        -0.23697         5.21132
     2018.89390        -7.21874         5.23475
     2018.89664        -9.50451         5.34702
     2018.89938        -3.21827         5.23671
     2018.90212        -1.66304         5.26014
     2018.90485        -0.51781         5.31578
     2018.90759        -7.23557         5.20449
     2018.91033        -3.05234         5.17325
     2018.91307        -3.62311         5.31188
     2018.91581        -1.41988         5.23963
     2018.91854         0.08436         5.20254
     2018.92128        -3.72641         5.18887
     2018.92402        -4.38418         5.12834
     2018.92676        -2.69594         5.17618
     2018.92950         0.19329         5.18496
     2018.93223        -4.64048         5.31090
     2018.93497        -1.71625         5.30212
     2018.93771         2.37099         5.17130
     2018.94045        -4.04678         5.21327
     2018.94318         0.05245         5.52861
     2018.94592        -6.69231         5.24940
     2018.94866         0.92292         5.20742
     2018.95140         7.27215         5.45637
     2018.95414         8.31938         5.20156
     2018.95687         2.81362         5.15177
     2018.95961         1.98485         5.16641
     2018.96235         4.15708         5.23671
     2018.96509        -4.27968         5.22499
     2018.96783        -3.59845         5.26209
     2018.97056        -1.57622         5.24452
     2018.97330        -7.45799         5.21718
     2018.97604        -0.55975         5.25525
     2018.97878        -5.85152         5.17715
     2018.98151       -13.57529         5.12248
     2018.98425        -3.09805         5.31188
     2018.98699        -7.40482         5.25135
     2018.98973        -8.04759         5.21132
     2018.99247        -1.62136         5.25721
     2018.99520       -21.05612         5.38217
     2018.99794       -14.12089         5.18301
     2019.00068       -13.85266         5.21230
     2019.00342       -11.54842         5.23963
     2019.00616        -6.00619         5.23768
     2019.00889        -8.16496         5.28064
     2019.01163        -2.68573         5.20351
     2019.01437         4.64151         5.12443
     2019.01711        -0.23726         5.21523
     2019.01984        -7.97303         5.27283
     2019.02258        -2.34979         5.23085
     2019.02532        -6.97756         5.21718
     2019.02806        -8.90433         5.19375
     2019.03080        -9.48010         5.31285
     2019.03353       -12.82386         5.14103
     2019.03627       -11.08863         5.13029
     2019.03901        -7.40240         5.08929
     2019.04175        -2.52516         5.08441
     2019.04449         1.91107         5.13908
     2019.04722        -7.65870         5.20937
     2019.04996       -12.65847         5.36362
     2019.05270       -15.57623         5.31969
     2019.05544       -12.13200         5.20937
     2019.05817        -8.06977         5.35581
     2019.06091        -4.63153         5.27966
     2019.06365        -4.76430         5.21913
     2019.06639        -6.53207         5.24061
     2019.06913        -9.13984         5.20156
     2019.07186       -10.22660         5.28650
     2019.07460       -10.13637         5.09710
     2019.07734        -2.05314         5.15958
     2019.08008        -5.29590         5.12248
     2019.08282        -6.24967         5.30212
     2019.08555        -0.33744         5.10784
     2019.08829        -6.06221         5.08929
     2019.09103        -2.11697         5.07855
     2019.09377        -5.89274         5.12541
     2019.09650        -2.08751         5.13224
     2019.09924        -6.25527         5.11174
     2019.10198       -11.42404         5.09710
     2019.10472         0.88819         5.12736
     2019.10746         2.68542         5.09710
     2019.11019        -6.84034         5.16251
     2019.11293       -13.07311         5.21327
     2019.11841         2.59636         5.13224
     2019.12115         5.89159         5.32164
     2019.12388         4.83782         5.27478
     2019.12662        -3.69095         5.28454
     2019.12936        -6.16471         5.12151
     2019.13210        -8.87648         5.16349
     2019.13483       -10.45525         5.13517
     2019.13757        -5.94701         5.20449
     2019.14031        -7.96778         5.11662
     2019.14305        -4.12455         5.11370
     2019.14579        -1.68332         5.19180
     2019.14852        -5.47008         5.13713
     2019.15126        -2.30485         5.14201
     2019.15400        -6.53862         5.13420
     2019.15674        -9.81538         5.15763
     2019.15948        -9.02915         5.08148
     2019.16221       -13.57692         5.20644
     2019.16495        -9.19769         5.07562
     2019.16769       -15.57545         5.11370
     2019.17043       -12.42222         5.19473
     2019.17316       -11.22199         5.10198
     2019.17590       -10.90075         5.09417
     2019.17864         2.74448         5.13224
     2019.18138        -6.45529         5.13127
     2019.18412       -16.43106         5.09808
     2019.18685       -11.78882         5.10686
     2019.18959        -9.95559         5.12346
     2019.19233        -6.92936         5.18106
     2019.19507       -11.48112         5.14005
     2019.19780       -10.65989         5.11955
     2019.20054       -15.18366         5.23085
     2019.20328       -14.31043         5.10491
     2019.20594       -12.24391         5.63795
     2019.20862       -13.46549         5.68481
     2019.21153       -19.78186         5.70727
     2019.21415        -9.80021         5.70531
     2019.21709        -8.61470         5.25721
     2019.21971        -6.98103         5.44758
     2019.22245        -9.62180         5.10393
     2019.22518       -10.67456         5.10686
     2019.22792        -6.33733         5.13908
     2019.23066        -9.81510         5.20742
     2019.23340        -5.33186         5.15958
     2019.23613       -15.36963         5.11077
     2019.23887       -10.86340         5.12639
     2019.24158       -14.81205         5.44563
     2019.24426       -15.13563         5.48956
     2019.24710       -13.05173         5.27380
     2019.24987        -9.19964         5.11174
     2019.25256        -3.57423         5.19961
     2019.25530       -12.13900         5.14103
     2019.25804        -5.54477         5.20156
     2019.26078        -4.22654         5.19180
     2019.26351        -9.55630         5.18301
     2019.26625       -10.25607         5.11077
     2019.26899       -10.45184         5.21230
     2019.27173        -7.42160         5.38119
     2019.27446       -12.40337         5.10686
     2019.27720       -10.83914         5.22499
     2019.27994        -3.16791         5.10979
     2019.28268       -11.81967         5.22792
     2019.28542        -3.65044         5.10296
     2019.28815        -8.31821         5.09612
     2019.29089        -6.36897         5.09417
     2019.29363        -7.57274         5.10979
     2019.29637        -7.95151         5.17422
     2019.29911        -3.54228         5.12053
     2019.30184        -8.15704         5.17130
     2019.30458       -15.68281         5.13224
     2019.30732        -9.14258         5.15665
     2019.31006        -3.70534         5.18106
     2019.31279        -8.94311         5.21230
     2019.31553        -5.13388         5.10491
     2019.31827       -14.15665         5.15958
     2019.32101       -10.18741         5.11858
     2019.32375       -21.77218         5.16446
     2019.32648       -11.78195         5.12834
     2019.32922       -12.89871         5.13224
     2019.33196        -8.21548         5.25818
     2019.33470        -6.37225         5.23573
     2019.33744        -6.63702         5.18399
     2019.34005       -13.38536         5.29626
     2019.34300        -7.14986         5.23963
     2019.34565        -8.04932         5.22987
     2019.34830       -12.10376         5.38998
     2019.35105        -8.67860         5.84394
     2019.35369        -6.15599         6.27057
     2019.35679        -5.27605         5.44172
     2019.35934        -4.65715         5.10003
     2019.36208        -9.63092         5.16153
     2019.36481        -4.61169         5.23768
     2019.36755        -6.38245         5.19570
     2019.37029        -6.40822         5.13420
     2019.37303        -4.06399         5.15079
     2019.37577        -0.55276         5.33628
     2019.37850        -8.72652         5.21718
     2019.38124        -4.49229         5.28064
     2019.38398        -5.79806         5.17813
     2019.38663        -7.09252         5.30602
     2019.38952       -13.80983         5.25525
     2019.39219        -2.47436         5.24549
     2019.39493        -6.67813         5.14396
     2019.39767        -1.37489         5.25037
     2019.40041        -4.77066         5.11077
     2019.40312        -4.49534         5.15177
     2019.40588        -1.66919         5.11077
     2019.40862        -2.35996         5.14786
     2019.41131        -4.58854         5.43684
     2019.41428        -3.64414         5.56668
     2019.41683        -3.45026         5.67993
     2019.41957        -9.77203         5.19473
     2019.42231        -5.77880         5.12053
     2019.42505        -0.11856         5.15470
     2019.42778        -2.58933         5.31676
     2019.43052         2.96890         5.49346
     2019.43326        -7.10887         5.14591
     2019.43600        -5.21763         5.21327
     2019.43863        -7.31901         5.46906
     2019.44167        -9.57586         5.73655
     2019.44409        -8.94351         6.77921
     2019.44716        -7.73045         5.78927
     2019.44969        -4.71947         5.22792
     2019.45243        -5.18724         5.22109
     2019.45516        -9.01000         5.29528
     2019.45790        -5.72977         5.27966
     2019.46064        -6.36854         5.37143
     2019.46338       -10.46930         5.70824
     2019.46611        -2.61307         5.44367
     2019.46885         1.86216         5.43391
     2019.47159        -0.82561         5.30895
     2019.47433         3.42263         5.50323
     2019.47707         1.69086         5.22206
     2019.47980        -2.83491         5.20546
     2019.48254        -7.00967         5.28942
     2019.48528        -2.94844         5.23280
     2019.48802        -9.57821         5.31285
     2019.49076        -9.30998         5.13420
     2019.49341        -7.81344         5.51104
     2019.49645       -10.89029         5.66822
     2019.49897         1.22172         5.34312
     2019.50171        -4.32504         5.16739
     2019.50444        -6.02981         5.35386
     2019.50718        -3.06058         5.17813
     2019.50992        -3.63435         5.15958
     2019.51266        -8.68111         5.18496
     2019.51540        -3.48188         5.12346
     2019.51813        -2.82465         5.10686
     2019.52087        -8.60441         5.36264
     2019.52361        -9.70018         5.18496
     2019.52635       -13.99195         5.46320
     2019.52908        -3.52072         5.42805
     2019.53182        -6.67548         5.32555
     2019.53456       -10.72525         5.31188
     2019.53730        -7.83202         5.27868
     2019.54004        -3.48078         5.29821
     2019.54277        -2.17455         5.36460
     2019.54551        -5.28732         5.49346
     2019.54819        -2.74188         5.30212
     2019.55117       -10.23950         5.99917
     2019.55376       -11.19874         5.51982
     2019.55646        -1.90639         5.33238
     2019.55920       -12.57215         5.43489
     2019.56194        -5.83292         5.16641
     2019.56468        -7.20469         5.56864
     2019.56741        -6.10146         5.26502
     2019.57015        -8.40822         5.14982
     2019.57289        -4.59099         5.27576
     2019.57563        -5.75076         5.20742
     2019.57837        -3.88452         5.25916
     2019.58110        -5.24029         5.23280
     2019.58384         0.50794         5.51494
     2019.58658        -5.02983         5.18399
     2019.58932        -2.14259         5.20644
     2019.59206        -3.63036         5.23280
     2019.59479        -1.78113         5.16641
     2019.59753        -0.79189         5.37534
     2019.60027        -4.40966         5.40462
     2019.60301        -9.37243         5.14591
     2019.60574         0.28480         5.46418
     2019.60848        -5.98396         5.35776
     2019.61122       -17.48473         5.18594
     2019.61396        -5.91950         5.22401
     2019.61670        -4.82626         5.15470
     2019.61943        -7.58403         5.16056
     2019.62217        -0.38880         5.33921
     2019.62491        -5.28757         5.15860
     2019.62765        -2.03833         5.16641
     2019.63039         3.73490         5.14982
     2019.63312        -6.34987         5.18984
     2019.63586         1.00737         5.70434
     2019.63860        -4.86240         5.23280
     2019.64134       -10.38017         5.35874
     2019.64407        -0.87794         5.59695
     2019.64681        -1.11370         5.17130
     2019.64955        -7.46547         5.17422
     2019.65211        -7.28361         5.68481
     2019.65523        -3.18772         5.79220
     2019.65776       -14.24477         5.30895
     2019.66050        -2.13554         5.33238
     2019.66324        -0.73531         5.42220
     2019.66598        -6.89007         5.23768
     2019.66865        -3.54162         5.30504
     2019.67148       -10.15871         5.22011
     2019.67439       -20.35707        23.66671
     2019.67681        -6.46270         5.68677
     2019.67983        -6.13449         5.65357
     2019.68240       -13.27068         5.23475
     2019.68514         3.09356         5.27966
     2019.68788        -3.72421         5.26306
     2019.69062        -9.66998         5.27185
     2019.69336        -7.69774         5.20644
     2019.69609        -7.57751         5.27185
     2019.69883        -1.50428         5.45344
     2019.70157       -13.91105         5.29723
     2019.70431       -14.38281         5.34409
     2019.70705       -10.06158         5.19375
     2019.70978         2.00365         5.37631
     2019.71252       -11.96611         5.18984
     2019.71526        -7.28388         5.13420
     2019.71800        -4.81665         5.34507
     2019.72073        -3.26342         5.46906
     2019.72347        -5.52318         5.26014
     2019.72621       -11.96895         5.23866
     2019.72895        -8.35372         5.18203
     2019.73169        -4.51648         5.20937
     2019.73442        -1.71925         5.49737
     2019.73716        -7.27102         5.19082
     2019.73990        -5.27979         5.35288
     2019.74264        -6.02655         5.20742
     2019.74538        -4.60532         5.14396
     2019.74811        -5.76809         5.23573
     2019.75085        -4.22885         5.28454
     2019.75359        -0.51162         5.36948
     2019.75633        -6.33339         5.25037
     2019.75906        -8.36616         5.15763
     2019.76180        -2.43492         5.17715
     2019.76454        -3.88769         5.22109
     2019.76728        -2.03946         5.31481
     2019.77002        -7.42922         5.27087
     2019.77275        -9.33299         5.30993
     2019.77549        -0.50876         6.86024
     2019.77823        -2.22553         5.25233
     2019.78097        -5.44029         5.24940
     2019.78371        -4.05806         5.23573
     2019.78644        -7.30483         5.27283
     2019.78918         3.65541         5.34995
     2019.79192         4.88164         5.39779
     2019.79466        -0.59113         5.47394
     2019.79739        -3.74290         5.24940
     2019.80013         0.44034         5.27380
     2019.80287        -1.08543         5.29040
     2019.80561        -1.34720         5.55204
     2019.80835       -10.31896         5.26111
     2019.81108        -4.31073         5.24647
     2019.81382        -9.21950         5.50616
     2019.81656        -8.26827         5.26014
     2019.81930        -7.46103         5.21718
     2019.82203       -10.92980         5.23866
     2019.82477        -7.10757         5.31871
     2019.82751        -9.58833         5.26990
     2019.83025        -6.14410         5.32164
     2019.83299        -2.52287         5.33726
     2019.83572        -6.98964         5.29235
     2019.83846        -4.73440         5.25721
     2019.84120        -4.39717         5.22011
     2019.84394        -5.95594         5.36362
     2019.84668       -12.42270         5.18594
     2019.84941        -1.08747         5.24256
     2019.85215        -1.73224         5.26990
     2019.85489        -2.93801         5.38998
     2019.85763        -7.82277         5.18692
     2019.86036        -6.79154         5.29528
     2019.86310        -7.74031         5.25037
     2019.86584        -0.98807         5.34702
     2019.86858         2.60816         5.34409
     2019.87132        -3.80761         5.40072
     2019.87405        -4.49938         5.23280
     2019.87679         3.71886         5.38510
     2019.87953        -3.06491         5.36264
     2019.88227        15.50732         5.36362
     2019.88501         0.55156         5.22694
     2019.88774        -0.44621         5.32066
     2019.89048         2.62702         5.22401
     2019.89322         5.58825         5.38900
     2019.89596        -9.26351         5.30797
     2019.89869        -5.24828         5.28942
     2019.90143        -3.50205         5.17032
     2019.90417        -0.78281         5.26795
     2019.90691        -6.45658         5.18496
     2019.90965        -6.19135         5.18106
     2019.91238        -3.44712         5.17325
     2019.91512         1.96812         5.22109
     2019.91786         6.32535         5.22011
     2019.92060        -2.26242         5.20546
     2019.92334         4.04982         5.18399
     2019.92607        -2.49295         5.19961
     2019.92881        -0.88872         5.25135
     2019.93155         2.69651         5.21327
     2019.93429        -4.88325         5.24940
     2019.93702        -7.06502         5.17520
     2019.93976        -2.30379         5.24842
     2019.94250        -3.10855         5.22401
     2019.94524        -3.75332         5.31383
     2019.94798       -13.59409         5.26599
     2019.95071        -7.03686         5.44953
     2019.95345        -2.14562         5.18789
     2019.95619         0.59461         5.19668
     2019.95893        -4.16116         5.20937
     2019.96167        -5.54892         5.25233
     2019.96440        -1.20769         5.43391
     2019.96714        -2.88946         5.31481
     2019.96988        -9.06723         5.16349
     2019.97262       -11.40599         5.28747
     2019.97535        -8.13076         5.19082
     2019.97809       -10.45053         5.21523
     2019.98083       -11.78529         5.24159
     2019.98357        -9.72206         5.29138
     2019.98631        -8.36383         5.19277
     2019.98904        -6.40860         5.21230
     2019.99178        -3.39836         5.22597
     2019.99452        -6.35313         5.27576
     2019.99726         0.00410         5.21816
     2020.00000         0.09934         5.33140
     2020.00273        -7.48443         5.25721
     2020.00547        -4.81420         5.41732
     2020.00821        -6.65797         5.39291
     2020.01095        -6.48973         5.34019
     2020.01368        -2.12350         5.29919
     2020.01642        -1.71727         5.33921
     2020.01916        -6.84503         5.27478
     2020.02190       -10.74880         5.31676
     2020.02464       -11.80257         5.35874
     2020.02737        -9.29534         5.18301
     2020.03011         4.13490         5.24354
     2020.03285       -17.14287         5.22011
     2020.03559        -9.93464         5.13224
     2020.03833       -16.89040         5.18984
     2020.04106        -5.68817         5.37241
     2020.04380       -14.36294         5.23963
     2020.04654        -1.14471         5.10589
     2020.04928       -13.38847         5.12346
     2020.05201       -13.23524         5.12834
     2020.05475        -6.16001         5.13322
     2020.05749       -11.17877         5.10003
     2020.06023         2.28846         5.14005
     2020.06297        -4.16531         5.18594
     2020.06570        -8.74908         5.16934
     2020.06844       -10.49584         5.28161
     2020.07118       -12.07561         5.16349
     2020.07392       -10.39138         5.22499
     2020.07666        -4.38314         5.18008
     2020.07939       -13.91891         5.11565
     2020.08213        -1.46168         5.16739
     2020.08487        -8.20745         5.18203
     2020.08761       -10.09721         5.11662
     2020.09034         5.31402         5.11467
     2020.09308        -5.65375         5.11760
     2020.09582         1.10649         5.15470
     2020.09856        -6.96628         5.15568
     2020.10130        -8.83105         5.21327
     2020.10403       -14.04582         5.28454
     2020.10677        -7.99858         5.17618
     2020.10951       -11.25135         5.15860
     2020.11225        -9.02212         5.12443
     2020.11498       -10.36188         5.13908
     2020.11772        -7.85665         5.38607
     2020.12046       -13.42542         5.30309
     2020.12320        -9.02019         5.11272
     2020.12594       -16.19195         5.16739
     2020.12867       -15.78072         5.14494
     2020.13141       -13.70649         5.19863
     2020.13415       -13.82425         5.14591
     2020.13689        -7.33502         5.24159
     2020.13963        -7.01979         5.25623
     2020.14236        -7.11256         5.18106
     2020.14510       -10.87632         5.21620
     2020.14784       -16.61909         5.12834
     2020.15058       -10.18386         5.15763
     2020.15331       -14.08162         5.14298
     2020.15605       -11.52539         5.16446
     2020.15879        -8.14416         5.14982
     2020.16153        -8.77293         5.20449
     2020.16427       -11.07769         5.17032
     2020.16700        -4.18246         5.14689
     2020.16974        -5.57023         5.15860
     2020.17248       -11.84299         5.43391
     2020.17522        -7.19476         5.19863
     2020.17796        -9.72353         5.17227
     2020.18069       -12.20130         5.11955
     2020.18343       -13.18006         5.10589
     2020.18617       -11.01283         5.12248
     2020.18891        -8.60760         5.22011
     2020.19164       -11.70936         5.23866
     2020.19438       -15.93113         5.19180
     2020.19712       -11.58390         5.17130
     2020.19986       -17.17667         5.18496
     2020.20260       -11.74943         5.30895
     2020.20533       -10.07420         5.22694
     2020.20807       -11.92897         5.26111
     2020.21081       -11.25773         5.26502
     2020.21355       -13.49350         5.66236
     2020.21629        -9.76627         5.46125
     2020.21902       -11.01104         5.29626
     2020.22179       -12.71891         5.28747
     2020.22450        -8.24057         5.25818
     2020.22724        -6.54634         5.27380
     2020.22997        -6.96010         5.15079
     2020.23271        -9.05287         5.18887
     2020.23545        -4.39164         5.24549
     2020.23819        -6.15041         5.18008
     2020.24093        -8.96317         5.18301
     2020.24366        -7.69194         5.23866
     2020.24640       -13.15471         5.22401
     2020.24914       -13.06647         5.26209
     2020.25188       -12.38624         5.22401
     2020.25462       -12.04701         5.17032
     2020.25735       -12.88978         5.24061
     2020.26009        -3.71354         5.16056
     2020.26283        -9.87931         5.16251
     2020.26557        -5.80908         5.22694
     2020.26830       -11.04284         5.18008
     2020.27104        -8.42461         5.18594
     2020.27378        -9.16338         5.22206
     2020.27652       -12.63415         5.15568
     2020.27929        -9.85303         5.39779
     2020.28199        -0.31068         8.11279
     2020.28473        -7.30445         7.70569
     2020.28747       -11.08821         7.75353
     2020.29021        -8.17198         5.21816
     2020.29295       -12.70775         5.18399
     2020.29568        -5.30452         5.26990
     2020.29842        -7.27728         5.18496
     2020.30116        -4.59005         5.17618
     2020.30390        -6.04182         5.18984
     2020.30663        -7.82758         5.21718
     2020.30937       -15.16935         5.30797
     2020.31211       -10.36612         5.36362
     2020.31485        -8.57289         5.30797
     2020.31759        -8.46965         5.13224
     2020.32032        -6.48642         5.39779
     2020.32306        -7.18219         5.14786
     2020.32580       -11.18295         5.26111
     2020.32854       -14.09372         5.24744
     2020.33128       -13.04049         5.16837
     2020.33401        -2.40726         5.22792
     2020.33675        -1.40702         5.21718
     2020.33949       -12.14679         5.14884
     2020.34223       -15.87556         5.31481
     2020.34496       -10.39833         5.29821
     2020.34770       -11.22709         5.13908
     2020.35027        -6.03227         5.54228
     2020.35316       -18.45058         6.07630
     2020.35593       -15.08643         5.97769
     2020.35878       -10.29862         5.47101
     2020.36139        -9.34693         5.14396
     2020.36413        -9.13969         5.20839
     2020.36687        -8.10946         5.21816
     2020.36961       -10.69523         5.21816
     2020.37234        -7.25400         5.19863
     2020.37508        -4.27976         5.22304
     2020.37782        -3.85353         5.18984
     2020.38056       -10.92130         5.22890
     2020.38329        -8.11707         5.28357
     2020.38603        -8.70283         5.17911
     2020.38877        -9.24760         5.27868
     2020.39151       -11.05937         5.15568
     2020.39425       -12.71013         5.13517
     2020.39698        -8.14790         5.27478
     2020.39972       -12.74967         5.12443
     2020.40242       -10.73128         5.24744
     2020.40523        -9.26930         6.00210
     2020.40799       -15.04716         5.26014
     2020.41067        -8.15374         5.16544
     2020.41341        -9.95550         5.18301
     2020.41615        -9.20827         5.08245
     2020.41889       -10.87904         5.14396
     2020.42162       -14.19981         5.29919
     2020.42436       -13.39957         5.48565
     2020.42710       -12.32634         5.36655
     2020.42984       -11.00711         5.23573
     2020.43258        -8.24887         5.23085
     2020.43531        -9.16864         5.27380
     2020.43805        -8.88541         5.26892
     2020.44079       -15.03917         5.30212
     2020.44353        -9.84694         5.28161
     2020.44626       -10.05171         5.19082
     2020.44900        -8.76048         5.20839
     2020.45174        -9.04124         5.16153
     2020.45448        -9.61301         5.25233
     2020.45722       -10.32278         5.16544
     2020.45995        -6.52155         5.11565
     2020.46269       -13.51731         5.15275
     2020.46543       -12.19508         5.19668
     2020.46817        -4.19585         5.22890
     2020.47091        -8.45761         5.20351
     2020.47364       -10.55238         5.12736
     2020.47638        -7.13715         5.15079
     2020.47912       -10.62591         5.23768
     2020.48186        -7.85768         5.16251
     2020.48459       -14.07245         5.46906
     2020.48733        -3.90722         5.47199
     2020.49007        -3.32098         5.41536
     2020.49281        -9.96775         5.25721
     2020.49555        -5.31852         5.27576
     2020.49828       -10.29029         5.16251
     2020.50102        -8.47905         5.15372
     2020.50376       -16.82982         5.16934
     2020.50650       -11.97459         5.13322
     2020.50924       -15.52635         5.13908
     2020.51197       -17.16212         5.14786
     2020.51471        -8.00389         5.15079
     2020.51745        -7.83266         5.16446
     2020.52019        -3.98042         5.27966
     2020.52292       -10.49219         5.22792
     2020.52566       -13.02496         5.31090
     2020.52840        -6.92572         5.28454
     2020.53114        -7.44749         5.27966
     2020.53388        -6.68326         5.31774
     2020.53661        -7.69103         5.37631
     2020.53935        -1.67379         5.40267
     2020.54209       -11.46756         5.25525
     2020.54483        -7.16033         5.29138
     2020.54757       -10.25109         5.26990
     2020.55028        -7.34178         5.34702
     2020.55311       -12.66887         5.86542
     2020.55578        -0.81640         5.27771
     2020.55852        -3.30316         5.31285
     2020.56125        -4.43793         5.27380
     2020.56399        -6.03170         5.29821
     2020.56660        -9.00799         5.65552
     2020.56965        -4.81188         5.69750
     2020.57221        -3.97600         5.49249
     2020.57494        -7.95577         5.37338
     2020.57761        -2.97526         5.54423
     2020.58050       -10.45059         5.55887
     2020.58316       -14.58507         5.33140
     2020.58590       -10.83083         5.28064
     2020.58863        -6.28660         5.26990
     2020.59137        -2.08237         5.27087
     2020.59411        -3.44614         5.26697
     2020.59685         5.10110         5.89471
     2020.59958        -7.55067         5.41341
     2020.60232        -7.28844         5.27576
     2020.60506        -8.67720         5.24354
     2020.60780        -9.24597         5.32457
     2020.61054        -9.42174         5.35483
     2020.61327        -1.56551         5.30895
     2020.61601        -8.80227         5.23085
     2020.61875        -3.07804         5.26795
     2020.62137        -7.98538         5.59109
     2020.62421        -7.25751         5.80489
     2020.62703        -5.27558         5.69360
     2020.62970        -5.66411         5.32066
     2020.63244        -7.32688         5.37924
     2020.63518        -5.56564         5.44172
     2020.63791        -0.08941         5.64674
     2020.64065        -8.19818         5.30700
     2020.64339        -8.42594         5.34702
     2020.64613        -9.90171         5.29235
     2020.64887        -8.62048         5.24452
     2020.65160        -1.16725         5.21816
     2020.65434        -4.61201         5.33531
     2020.65708        -0.86978         5.39584
     2020.65982        -8.30055         5.39096
     2020.66256        -7.94631         5.26795
     2020.66529         1.23292         5.35093
     2020.66803        -0.57185         5.29919
     2020.67077         1.40638         5.62428
     2020.67351        -6.87838         5.27478
     2020.67624        -1.77515         5.30114
     2020.67898        -9.47692         5.32359
     2020.68172        -7.60868         5.30407
     2020.68446        -7.39545         5.43879
     2020.68720        -3.80922         5.29528
     2020.68981        -7.62653         5.57254
     2020.69268        -5.70579         5.37534
     2020.69541        -6.82252         5.54716
     2020.69815        -4.27129         5.33531
     2020.70089        -4.82305         5.24549
     2020.70362        -2.07282         5.37338
     2020.70636        -0.96659         5.71020
     2020.70910        -9.73636         5.93571
     2020.71184        -8.20412         5.48175
     2020.71457        -5.62089         5.66236
     2020.71731        -6.66166         5.38119
     2020.72008        -8.90254         5.46222
     2020.72279        -7.72419         5.34507
     2020.72553        -2.65296         5.43879
     2020.72826        -0.18573         5.61257
     2020.73100        -6.13649         5.61355
     2020.73374         7.15474         5.46320
     2020.73648        -7.13903         5.26306
     2020.73921        -5.27379         5.37143
     2020.74195        -2.10056         5.30212
     2020.74469        -7.91733         5.29138
     2020.74743        -2.94710         5.36264
     2020.75017        -5.98386         5.29431
     2020.75290       -11.24563         5.38607
     2020.75564        -8.12840         5.19570
     2020.75838         1.17584         5.27771
     2020.76112         5.38607         5.24940
     2020.76386         3.19030         5.23768
     2020.76659         3.22953         5.26111
     2020.76933         5.73077         5.36655
     2020.77207        -0.00700         5.21425
     2020.77481         6.36823         5.43684
     2020.77754         3.98947         5.31676
     2020.78028         2.86770         5.44465
     2020.78302         9.53893         5.43001
     2020.78576         2.26016         5.36850
     2020.78850        -3.16160         5.25428
     2020.79123         4.22463         5.28357
     2020.79397         7.25686         5.30895
     2020.79671         4.15310         5.32555
     2020.79945        -0.91167         5.31383
     2020.80219        -0.17444         5.37143
     2020.80492         2.62779         5.35288
     2020.80766         2.52503         5.33336
     2020.81040         4.83426         5.28942
     2020.81314         1.76949         5.33140
     2020.81587         4.76973         5.29919
     2020.81861         4.04996         5.25135
     2020.82135         4.85819         5.28357
     2020.82409         8.02742         5.28845
     2020.82683         3.68466         5.28552
     2020.82956         0.98289         5.57547
     2020.83230         5.18112         5.34605
     2020.83504         5.98336         5.41536
     2020.83778        11.40059         5.26209
     2020.84052        15.40582         5.42122
     2020.84325        14.82505         5.57352
     2020.84599         7.03729         5.53544
     2020.84873         4.06752         5.30700
     2020.85147         5.39275         5.30114
     2020.85420         7.91699         5.24647
     2020.85694         8.49422         5.28845
     2020.85968        12.32845         5.28552
     2020.86242         8.02168         5.26795
     2020.86516        12.04392         5.37045
     2020.86789         9.82815         5.53544
     2020.87063        15.43538         5.28161
     2020.87337         6.64562         5.34507
     2020.87611        11.75285         5.38510
     2020.87885        15.55708         5.47589
     2020.88158        11.60631         5.36655
     2020.88432         9.42655         5.28161
     2020.88706         5.87678         5.58035
     2020.88980        -0.54799         5.34898
     2020.89253         9.52125         5.35483
     2020.89527         4.26148         5.50030
     2020.89801        15.21571         5.45246
     2020.90075        10.39994         5.31090
     2020.90349         9.58318         5.27576
     2020.90622         3.89741         5.22987
     2020.90896         8.71564         5.51201
     2020.91170         9.93088         5.60085
     2020.91444         7.25311         5.43586
     2020.91718         4.64634         5.27966
     2020.91991        -1.16543         5.28064
     2020.92265        -0.41019         5.35386
     2020.92539         1.79104         5.26014
     2020.92813        -2.92673         5.26404
     2020.93086        -1.03749         5.39096
     2020.93360        -1.38626         5.34312
     2020.93634         9.87397         5.32652
     2020.93908        -2.27480         5.31676
     2020.94182        -0.73056         5.30700
     2020.94455        -5.46433         5.27966
     2020.94729        -6.16710         5.25135
     2020.95003         3.23414         5.39974
     2020.95277       -11.99263         5.23280
     2020.95551         0.14060         5.32750
     2020.95824        -0.36217         5.49249
     2020.96092         3.03027         5.85566
     2020.96372         4.36730         5.27576
     2020.96646        -1.98047         5.32750
     2020.96919        -0.10123         5.37729
     2020.97193         5.75400         5.23378
     2020.97467        -7.18777         5.33628
     2020.97741        -5.17754         5.32262
     2020.98015        -7.30330         5.46906
     2020.98288         2.37193         5.41634
     2020.98562        11.14416         5.31774
     2020.98836         5.34240         5.23280
     2020.99110         0.35663         5.18008
     2020.99384         1.42886         5.19961
     2020.99657         4.94409         5.24256
     2020.99931         9.29033         5.20644
     2021.00205         0.90856         5.18984
     2021.00479        11.71579         5.17813
     2021.00752         6.65203         5.24940
     2021.01026        12.05526         5.28064
     2021.01300         8.39949         5.21230
     2021.01574         3.33772         5.35386
     2021.01848        -0.79004         5.13810
     2021.02121         0.22019         5.24940
     2021.02395         0.74142         5.20058
     2021.02669         1.32366         5.41829
     2021.02943        -0.19111         5.31774
     2021.03216        12.39112         5.19473
     2021.03490        -0.27965         5.30212
     2021.03764        -4.13541         5.21327
     2021.04038         1.96182         5.27673
     2021.04312         5.57505         5.25330
     2021.04585         1.32129         5.23768
     2021.04859        -5.26048         5.17422
     2021.05133        -4.08425         5.23768
     2021.05407         1.29698         5.58719
     2021.05681         4.39322         5.37241
     2021.05954        -2.55955         5.23475
     2021.06228        -6.09732         5.20742
     2021.06502         0.04092         5.24061
     2021.06776         3.98415         5.26014
     2021.07049         8.47938         5.19863
     2021.07323         9.26461         5.24647
     2021.07597        -2.11815         5.22694
     2021.07871        -2.17192         5.18008
     2021.08145        -0.01569         5.17813
     2021.08418         0.93955         5.21620
     2021.08692         2.59378         5.20742
     2021.08966         1.57501         5.23378
     2021.09240       -10.07676         5.17130
     2021.09514        -5.30852         5.29235
     2021.09787         1.33471         5.44367
     2021.10061        -1.40406         5.24452
     2021.10335       -10.34582         5.25623
     2021.10609        -6.38359         5.20546
     2021.10882        -5.99536         5.17911
     2021.11156        -7.52813         5.20156
     2021.11430        -4.82689         5.22499
     2021.11704        -2.85666         5.17813
     2021.11978        12.83857         5.27673
     2021.12251        -4.31219         5.18692
     2021.12525        -2.12496         5.24647
     2021.12799        -7.67973         5.31774
     2021.13073        -5.21550         5.21425
     2021.13347        -3.22326         5.30797
     2021.13620        -2.17003         5.30895
     2021.13894        -4.49280         5.22890
     2021.14168         3.10644         5.35191
     2021.14442         2.57067         5.21816
     2021.14715        -9.26510         5.27771
     2021.14989       -10.29087         5.19765
     2021.15263        10.27337         5.38022
     2021.15537        -4.56540         5.37534
     2021.15811        -5.42317         5.45539
     2021.16084        -0.42593         5.29528
     2021.16358         1.88130         5.28845
     2021.16632        -1.32647         5.37436
     2021.16906         2.36276         5.44660
     2021.17180         2.00900         5.19180
     2021.17453         1.30323         5.32847
     2021.17727         3.65746         5.37534
     2021.18001        -0.30830         5.30016
     2021.18275        -3.45607         5.42220
     2021.18548         3.71316         5.22304
     2021.18822        -8.13061         5.16544
     2021.19096        -3.61037         5.14786
     2021.19370        -0.64514         5.28259
     2021.19644        -7.64791         5.17813
     2021.19917        -6.09967         5.22304
     2021.20191        -9.28644         5.18594
     2021.20465        -1.72521         5.15079
     2021.20739        -2.35598         5.16641
     2021.21013         6.90426         5.41146
     2021.21286         5.10049         5.43001
     2021.21560         0.64672         5.19473
     2021.21834        -5.90204         5.24159
     2021.22108        -1.30881         5.19863
     2021.22381        -4.65758         5.18301
     2021.22655        -0.73435         5.38217
     2021.22929        -3.15111         5.14298
     2021.23203         3.90112         5.15177
     2021.23477        -7.71465         5.16056
     2021.23750        -3.40741         5.17715
     2021.24024        -6.58618         5.22694
     2021.24298        -3.45395         5.17130
     2021.24572        -7.24672         5.15372
     2021.24845        -1.48747         5.56180
     2021.25120        -2.03927         5.25525
     2021.25393        -4.51402         5.28747
     2021.25667        -0.33178         5.22597
     2021.25941        -5.77955         5.18692
     2021.26214         0.80468         5.25916
     2021.26488        -2.52709         5.15763
     2021.26762        -1.39285         5.29528
     2021.27036        -1.66362         5.61940
     2021.27310         2.00361         5.26795
     2021.27583        -6.07515         5.23866
     2021.27857        -9.28492         5.26990
     2021.28131        -8.54469         5.36753
     2021.28405        -5.16446         5.22987
     2021.28679        -6.33322         5.46320
     2021.28941        -5.87560         6.07532
     2021.29207        -7.59406         5.71410
     2021.29507        -1.16980         5.89959
     2021.29774        -6.86729         5.46320
     2021.30047         1.50694         5.38119
     2021.30321         6.01417         5.34702
     2021.30595         7.07841         5.46418
     2021.30869         6.61264         5.42220
     2021.31143         5.05387         5.22304
     2021.31416         2.45011         5.23378
     2021.31690        -0.49466         5.18399
     2021.32021        -0.03546         7.64028
     2021.32295         4.00177         7.19120
     2021.32569        -1.88800         6.86415
     2021.32842         5.03624         6.96665
     2021.33116        -0.76453         6.83290
     2021.33390        -0.64430         6.85438
     2021.33664         2.30593         6.93248
     2021.33937        -1.23083         6.84267
     2021.34211        -1.54660         7.01254
     2021.34485        -8.93237         7.11114
     2021.34759        -9.60413         6.95201
     2021.35033        -3.96190         7.15898
     2021.35306         0.95633         6.90612
     2021.35580        -1.61944         6.92077
     2021.35854         1.40980         6.95006
     2021.36128        -0.71797         6.92760
     2021.36402        -5.48974         6.89246
     2021.36653        -7.82869         6.20224
     2021.36892        -6.01724         5.22499
     2021.37166        -1.53100         5.20742
     2021.37440        -6.92277         5.21132
     2021.37770        -1.02557         7.05061
     2021.38044        -2.70034         7.14043
     2021.38318        -6.39511         7.60806
     2021.38592         0.17013         7.21951
     2021.38866       -13.60864         7.01742
     2021.39214         7.02295        91.26941
     2021.39413        -6.98218         7.00375
     2021.39687        -4.53494         6.92565
     2021.39938        -9.70290         6.22762
     2021.40177        -5.93444         5.45929
     2021.40451         0.44979         5.33628
     2021.40782        -2.11501         6.99985
     2021.41056         4.54122         7.04085
     2021.41330         1.45845         8.12353
     2021.41587        -0.39572         7.76719
     2021.41877        -0.18508         7.00668
     2021.42151        -1.75585         7.06330
     2021.42425        13.15939         7.01156
     2021.42699        -1.70038         6.88562
     2021.42972        -3.09315         6.95396
     2021.43246         4.82708         6.93834
     2021.43520        -4.33968         6.86122
     2021.43794        -7.05045         6.91686
     2021.44068        -4.51322         6.99594
     2021.44341        -4.41798         7.03597
     2021.44615        -2.69975         6.93932
     2021.44889       -12.35052         7.14922
     2021.45163        -5.71329         7.11309
     2021.45436         2.45395         7.18729
     2021.45710        -6.70882         7.04183
     2021.45984         0.94641         6.82217
     2021.46258        -1.93835         6.78604
     2021.46527         1.50003         7.19120
     2021.46805        -2.08089         6.79678
     2021.47065         2.17784         7.54753
     2021.47353        -1.87542         6.99008
     2021.47627         1.24981         7.04280
     2021.47901        -6.87796         6.99789
     2021.48158        -5.99413         8.04543
     2021.48417        -5.46039         8.97093
     2021.48683        -7.03889         9.77928
     2021.48958         2.43733         9.75390
     2021.49269        -4.10379         6.91101
     2021.49520        -9.31175         6.21200
     2021.49817        -1.31833         7.20291
     2021.50091        -6.32709         6.98325
     2021.50365        -5.24186         6.88660
     2021.50638       -15.34863         6.86903
     2021.50912        -9.51140         7.10040
     2021.51186        -2.32316         7.39231
     2021.51459         3.05610         7.16288
     2021.51733        -0.97170         6.93834
     2021.52007        -5.63046         7.03206
     2021.52281        -7.92323         6.98423
     2021.52555        -5.12300         6.89831
     2021.52829        -0.91777         6.90612
     2021.53102        -5.56653         6.90320
     2021.53376         0.09370         6.98911
     2021.53650        -9.98107         7.18046
     2021.53924         1.09117         7.39914
     2021.54198         0.77640         6.96763
     2021.54471       -10.36037         7.01644
     2021.54745        -7.51314         7.04866
     2021.55019        -3.09590         6.91589
     2021.55293        -2.67967         6.99106
     2021.55566         0.07356         7.04768
     2021.55840        -4.54120         7.08576
     2021.56114         1.58903         6.93444
     2021.56388        -4.60674         6.86707
     2021.56605        -6.94547         5.26306
     2021.56878        -1.34724         5.33726
     2021.57138        -4.99951         5.65650
     2021.57419        -5.29352         5.60183
     2021.57685         8.79800         6.17197
     2021.57982        -4.72159         5.49054
     2021.58247       -12.30007         5.29528
     2021.58521        -5.05084         5.32555
     2021.58795        -7.83161         5.34702
     2021.59069        -1.48738         5.60573
     2021.59342        -8.61014         5.36460
     2021.59616        -3.02291         5.43098
     2021.59890        -2.96668         5.35972
     2021.60164        -5.49244         5.32262
     2021.60438        -3.97021         5.32359
     2021.60702        -3.99266         5.58035
     2021.60985        -3.61075         5.59500
     2021.61241        -2.60388         5.76096
     2021.61545        -7.32070         6.02748
     2021.61807        -0.02008         5.39877
     2021.62080        -2.17081         5.38412
     2021.62354        -0.19658         5.36362
     2021.62628        -2.81135         5.41146
     2021.62902         1.57888         5.28747
     2021.63175        -1.60288         5.41146
     2021.63449        -7.15365         5.53251
     2021.63723         3.49358         5.64283
     2021.63997         0.13782         5.46418
     2021.64271         2.61805         5.38607
     2021.64544        -5.27072         5.31481
     2021.64818        -2.85949         5.29821
     2021.65092        -5.44225         5.29333
     2021.65366        -3.48102         5.23963
     2021.65639         1.08321         5.32652
     2021.65913        -1.20955         5.28942
     2021.66187         0.34368         5.31188
     2021.66461         0.56991         5.30407
     2021.66735        -1.82186         5.26502
     2021.67008         0.83038         5.39877
     2021.67282        -6.25939         5.70727
     2021.67556        -2.84716         5.70239
     2021.67830         1.98808         5.46027
     2021.68104         5.65431         5.31481
     2021.68377         0.58354         5.30797
     2021.68651         5.78577         5.53544
     2021.68925         1.34701         5.30993
     2021.69199         7.00424         5.38119
     2021.69472         0.56347         5.43098
     2021.69746         5.08871         5.47491
     2021.70020         0.37894         5.32359
     2021.70294        -0.99183         5.35386
     2021.70568         4.85340         5.53544
     2021.70841         3.43564         5.41341
     2021.71115        10.60687         5.38119
     2021.71389        10.09410         5.59597
     2021.71663         2.25434         5.43684
     2021.71937        -2.87843         5.46808
     2021.72210        -0.89920         5.41341
     2021.72484        -2.29997         5.45344
     2021.72758        -3.13273         5.40755
     2021.73032        -3.95150         5.71312
     2021.73305         2.98473         5.42610
     2021.73579        16.45897         5.76780
     2021.73855         8.31013         5.71312
     2021.74127        -1.60657         5.45539
     2021.74401        -3.06634         5.48370
     2021.74674        15.44490         5.52666
     2021.74948        -4.00387         5.41732
     2021.75222         0.45636         5.50811
     2021.75496         2.92560         5.56376
     2021.75706        -0.41290         7.33471
     2021.76043         5.87906         5.65943
     2021.76317         3.11429         5.49835
     2021.76591        -2.23647         5.44856
     2021.76865        -0.45424         5.37826
     2021.77138         2.10499         5.42415
     2021.77412         6.68623         5.64088
     2021.77686         3.50146         5.39779
     2021.77960         7.12869         5.38412
     2021.78234         3.27192         5.43586
     2021.78507        11.87516         5.37631
     2021.78781         4.69739         5.37241
     2021.79055        12.07462         5.37729
     2021.79329         2.78586         5.39681
     2021.79603         0.17709         5.41634
     2021.79876         6.12132         5.43586
     2021.80150         8.64755         5.60085
     2021.80424         6.39079         5.52861
     2021.80698         1.00402         5.45344
     2021.80971         3.56125         5.43391
     2021.81245        14.16649         5.64869
     2021.81519        17.33572         5.35679
     2021.81793         6.70195         5.45539
     2021.82067        -0.88582         5.55985
     2021.82340        10.85842         5.58719
     2021.82614         5.85665         5.48761
     2021.82888         4.21188         5.49249
     2021.83162         7.73912         5.45539
     2021.83436        19.69935         5.61745
     2021.83709         3.07558         5.47101
     2021.83983        -2.45519         5.59792
     2021.84257         2.39005         5.60183
     2021.84531        -2.61072         5.51885
     2021.84804         6.45051         5.47882
     2021.85078         5.19675         5.52959
     2021.85352         5.27198         5.49737
     2021.85626         3.68121         5.52178
     2021.85900        -0.88556         5.39681
     2021.86173         5.38168         5.68384
     2021.86447         1.03091         5.68091
     2021.86721        -0.91686         5.65357
     2021.86995        14.11838         5.73363
     2021.87269         4.56661         5.69653
     2021.87542        -1.42016         5.55399
     2021.87816        -2.43393         5.35581
     2021.88090        -2.04569         5.40853
     2021.88364        -2.22546         5.39388
     2021.88637        -2.41423         5.37143
     2021.88911        -5.52699         5.35191
     2021.89185         0.46324         5.69262
     2021.89459        -3.93853         5.42415
     2021.89733        -1.01630         5.39779
     2021.90006        -1.59806         5.34507
     2021.90280        -1.88683         5.38705
     2021.90554         1.39940         5.37729
     2021.90828         8.19864         5.62136
     2021.91102        -1.27113         5.31090
     2021.91375         2.98210         5.37143
     2021.91649         2.19433         5.41341
     2021.91923         2.37757         5.53251
     2021.92197        -4.71420         5.64381
     2021.92470        -3.57097         5.49835
     2021.92744        -4.69473         5.47296
     2021.93018        -0.22050         5.54814
     2021.93292         1.77273         5.65455
     2021.93566         7.50196         5.70824
     2021.93839         5.60020         5.57547
     2021.94113         9.01143         5.65162
     2021.94387        19.98366         5.58230
     2021.94661         8.76190         5.51494
     2021.94935        12.35613         5.52861
     2021.95208         1.86536         5.54716
     2021.95482        14.13959         5.55887
     2021.95756         1.58183         5.51885
     2021.96030        -1.58294         5.51006
     2021.96303         2.73829         5.55790
     2021.96577         0.76753         5.50323
     2021.96851         0.50076         5.56083
     2021.97125        -0.19501         5.47589
     2021.97399         8.86622         5.53544
     2021.97672         5.30246         5.50908
     2021.98494         6.65216         5.51299
     2021.98767        -4.49561         5.48565
     2021.99041        -1.14638         5.48663
     2021.99315         5.40985         5.48858
     2021.99589         6.88009         5.64283
     2021.99863        -1.36868         5.50713
     2022.00136        -3.25045         5.46222
     2022.00410         2.55679         5.53447
     2022.00684         0.50902         5.59109
     2022.00958         7.39525         5.62721
     2022.01232       -13.71352         5.57742
     2022.01505        10.62472         5.55692
     2022.01779         3.22595         5.56961
     2022.01937        -8.53768        15.60077
     2022.02345        -8.67425         6.36722
     2022.02600        -9.92235         5.75218
     2022.02874         3.59988         5.65943
     2022.03148        -3.65489         5.56473
     2022.03422        -4.85765         5.68872
     2022.03696        -2.85442         5.53154
     2022.03969        -4.50619         5.94255
     2022.04243        -6.71795         5.50713
     2022.04517         0.02828         5.57840
     2022.04791        -3.34749         5.45441
     2022.05065        -5.49126         5.45148
     2022.05338        -1.35602         5.51982
     2022.05612       -12.68979         5.52178
     2022.05886       -12.67356         5.49346
     2022.06160        -8.61932         5.45734
     2022.06433        -6.05009         5.53154
     2022.06707       -10.69986         5.48175
     2022.06981         1.30637         5.50030
     2022.07255       -11.37639         5.39291
     2022.07529        -2.10216         5.35191
     2022.07802         1.86407         5.39974
     2022.08076         3.47931         5.37924
     2022.08350         0.84454         5.42415
     2022.08624        -4.36323         5.43782
     2022.08898        -1.26600         5.40950
     2022.09171        -5.92276         5.35386
     2022.09445        -7.24453         5.39486
     2022.09719        -6.10230         5.37826
     2022.09993        -2.88906         5.59207
     2022.10266         0.05917         5.65650
     2022.10540        -3.19760         5.35581
     2022.10814        -2.01937         5.38705
     2022.11088         0.80787         5.43977
     2022.11362         0.21710         5.36362
     2022.11635         3.20533         5.42903
     2022.11909         1.77957         5.36167
     2022.12183         3.27080         5.39486
     2022.12457        -2.04497         5.52178
     2022.12731        -3.72374         5.39584
     2022.13004        -5.08250         5.41927
     2022.13278        -4.72027         5.42024
     2022.13552        -0.27004         5.36362
     2022.13826         2.73120         5.48858
     2022.14099        -2.17257         5.36460
     2022.14373        -9.14834         5.37826
     2022.14647        -3.00611         5.41146
     2022.14921        -0.90287         5.61355
     2022.15195        -4.14364         5.59597
     2022.15468         4.65859         5.40267
     2022.15742         4.51983         5.40169
     2022.16016        12.32606         5.41146
     2022.16290        -0.45471         5.39584
     2022.16564         0.59452         5.40560
     2022.16837        -5.25024         5.40755
     2022.17111        -4.51501         5.36264
     2022.17385        -1.85678         5.40560
     2022.17659         0.32946         5.43294
     2022.17932        -5.38031         5.38022
     2022.18206        -3.53408         5.39877
     2022.18480        -3.93885         5.36460
     2022.18754        -1.23061         5.47980
     2022.19028        -1.56438         5.53056
     2022.19301        -2.50015         5.45734
     2022.19575         7.38109         5.37534
     2022.19849         3.88732         5.40950
     2022.20123         3.55855         5.52568
     2022.20397         2.21878         5.40169
     2022.20670         2.08102         5.58523
     2022.20944        -2.58275         5.48663
     2022.21218         8.49048         5.41243
     2022.21492        -1.20728         5.40267
     2022.21765        -2.62205         5.38217
     2022.22039        -3.50682         5.42805
     2022.22313        -4.66059         5.59792
     2022.22587        -4.95335         5.70141
     2022.22861         2.17288         5.47980
     2022.23134         3.90511         5.45734
     2022.23408         4.22335         5.46515
     2022.23682         2.30158         5.65748
     2022.23956        -1.26819         5.41146
     2022.24230         2.05904         6.02651
     2022.24504         4.19926         6.46876
     2022.24777         5.04951         6.38675
     2022.25051        -7.06527         6.47364
     2022.25325         2.31698         5.83028
     2022.25598         7.23521         5.44563
     2022.25872        -0.97056         5.57352
     2022.26146        -2.98933         5.40560
     2022.26420        -1.60909         5.40462
     2022.26694        -1.39886         5.65943
     2022.26967        -5.36863         5.51201
     2022.27515        -1.19316         5.52763
     2022.27789         7.95707         5.47882
     2022.28062         8.57330         5.43586
     2022.28336         0.46154         5.37045
     2022.28610         0.42377         5.50616
     2022.28884        -4.43600         5.52275
     2022.29158        -6.32476         5.38510
     2022.29397         1.21469         6.19345
     2022.29705        -3.04630         5.52666
     2022.29979         4.85793         5.46027
     2022.30253         6.58617         5.56766
     2022.30527        -2.96260         5.57254
     2022.30800        -5.40637         5.37045
     2022.31074        -4.16013         5.48956
     2022.31348        -3.70590         5.44563
     2022.31622        -8.24567         5.46710
     2022.31895       -22.64544         5.57742
     2022.32169        -0.25520         5.55399
     2022.32443        -4.38597         5.37143
     2022.32717        -2.43274         5.55595
     2022.32991        -4.46550         5.40950
     2022.33264       -10.64327         5.56864
     2022.33538        -8.39804         5.55887
     2022.33812        -4.90881         5.60378
     2022.34086        -5.12557         5.48077
     2022.34360        -7.06134         5.41243
     2022.34633        -6.81111         5.48273
     2022.34907        -1.37987         5.42805
     2022.35181        -0.00164         5.40365
     2022.35455        -5.52341         5.40267
     2022.35728        -9.52518         5.43879
     2022.36002         3.21506         5.44465
     2022.36276        -2.56571         5.42805
     2022.36550        -7.89648         5.43098
     2022.36824        -1.76324         5.50518
     2022.37097       -12.96501         5.38315
     2022.37371        -7.07878         5.41634
     2022.37645        -7.82955         5.54911
     2022.37919        -4.09431         5.63405
     2022.38193       -10.40208         5.55692
     2022.38466       -11.08285         5.45832
     2022.38740       -24.53361         5.48273
     2022.39014        -9.46038         5.43001
     2022.39288        -9.14415         5.40462
     2022.39561       -11.30392         5.48663
     2022.39835       -10.35768         5.51104
     2022.40109        -9.86145         5.55595
     2022.40383        -2.47022         5.37045
     2022.40657        -3.72698         5.39486
     2022.40930       -15.37875         5.48077
     2022.41204        -6.09652         5.44075
     2022.41478        -6.45629         5.40462
     2022.41752        -8.77605         5.58230
     2022.42026        -2.74682         5.52373
     2022.42299        -1.38559         5.42708
     2022.42573        -1.27035         5.58230
     2022.42847        -6.99712         5.36264
     2022.43121        -5.08689         5.52080
     2022.43394         0.41634         5.60183
     2022.43668        -7.54642         5.44465
     2022.43942        -0.52419         5.54032
     2022.44216        -3.90896         5.49054
     2022.44490        -1.25272         5.49639
     2022.44763         0.08551         5.36264
     2022.45037        -7.64426         5.33921
     2022.45311       -13.55603         5.38315
     2022.45585        -5.67479         5.53544
     2022.45859       -22.52856         5.32750
     2022.46132        -9.35833         5.37338
     2022.46406       -12.43109         5.33531
     2022.46680        -9.74686         5.45148
     2022.46954       -15.83763         5.43196
     2022.47227       -22.39940         5.41927
     2022.47501        -0.65616         5.42708
     2022.47775       -14.90393         5.56180
     2022.48049       -10.71470         5.44563
     2022.48297         3.96245         6.22078
     2022.48613         9.60016         5.87909
     2022.48870        -2.17900         5.45441
     2022.49144        -4.54277         5.44953
     2022.49418        -7.32553         5.50030
     2022.49692        -6.08030         5.37924
     2022.49965       -11.19407         5.34409
     2022.50239       -24.24883         5.37436
     2022.50513        -4.49360         5.67114
     2022.50787         8.23963         5.77756
     2022.51060        -7.82214         5.49835
     2022.51334       -11.72490         5.41732
     2022.51608       -19.67767         5.37045
     2022.51882       -11.53744         5.46710
     2022.52156       -11.58920         5.45734
     2022.52429        -9.56897         5.39779
     2022.52703        -8.46674         5.52178
     2022.52977         7.20549         5.55985
     2022.53251        -3.67627         5.44660
     2022.53525        -9.58104         5.58914
     2022.53798        -9.98381         5.50030
     2022.54072        -9.98357         5.37045
     2022.54347        -6.63437         5.44465
     2022.54620       -10.68611         5.56376
     2022.54893        -2.39788         5.52959
     2022.55167        -8.91564         5.41048
     2022.55441        -6.04041         5.41146
     2022.55715         6.37682         5.39974
     2022.55989       -10.98494         5.37924
     2022.56242        -7.43298         5.91326
     2022.56527       -26.42116         6.49121
     2022.56821        -9.60965         5.67603
     2022.57069        -6.42850         5.98941
     2022.57359        -7.47483         5.60769
     2022.57619       -11.22311         6.06068
     2022.57909       -16.63245         5.94255
     2022.58179        -7.00008         5.57840
     2022.58453        -1.10485         5.46515
     2022.58726       -11.79262         5.33433
     2022.59000        -5.31838         5.54130
     2022.59274        -8.38415         5.34702
     2022.59548        -5.62292         5.59988
     2022.59806       -19.89014         5.71215
     2022.60111       -17.92099         5.69360
     2022.60369       -14.18822         5.41634
     2022.60643        -1.93299         5.53154
     2022.60917        -2.37875         5.48175
     2022.61190        -2.38452         5.61745
     2022.61464         3.79971         5.44367
     2022.61738         2.09695         5.31285
     2022.62012        -5.83882         5.34312
     2022.62286        -2.14059         5.49639
     2022.62544         0.91719         5.65650
     2022.62816        -1.04150         5.92497
     2022.63125         2.04248         5.79708
     2022.63381         0.33534         5.35972
     2022.63655         2.05158         5.40462
     2022.63928        -4.79619         5.48663
     2022.64202        -1.62896         5.73167
     2022.64476         1.78527         5.71020
     2022.64750        -1.10949         5.53837
     2022.65023         1.32274         5.61843
     2022.65297         3.51497         5.55399
     2022.65571         2.08621         5.50616
     2022.65845         6.21444         5.50713
     2022.66119         2.41067         5.36557
     2022.66392         2.54890         5.36850
     2022.66666         0.95514         5.35874
     2022.66940         5.68537         5.31188
     2022.67214        -6.28140         5.43586
     2022.67488         0.76184         5.58035
     2022.67761        10.96507         5.33336
     2022.68035         1.82630         5.32359
     2022.68309         8.22653         5.66138
     2022.68583         4.31877         5.49054
     2022.68856         8.03700         5.40169
     2022.69113        -0.02414         5.68286
     2022.69404         9.19447         5.49249
     2022.69678         1.90670         5.53935
     2022.69952        -7.62207         5.37143
     2022.70225         8.14616         5.52080
     2022.70499         1.37240         5.46418
     2022.70773         1.34563         5.42317
     2022.71047         7.94886         5.33628
     2022.71321         3.45710         5.31871
     2022.71868        -1.36744         5.26795
     2022.72142         4.74479         5.32066
     2022.72416        -3.07397         5.35679
     2022.72689         4.88926         5.36362
     2022.72963         3.15551         5.35972
     2022.73238         5.87368         5.38022
     2022.73511         4.57296         5.39584
     2022.73785         4.33119         5.34702
     2022.74058         5.41542         5.76682
     2022.74332         8.96466         5.65650
     2022.74606        10.14489         5.41829
     2022.74880         2.68912         5.35776
