# ================= DQRFIT RESULTS ================
# INPUT FILE: series/DIAM.rad
# OUTPUT: LDETRENDED
# FILTER FUNCTION: f(t)
# f(t)=+line(t)
# line(t)=+P 1+P 2*t
# heav(t)=(t<0?0:1)
# TOTAL OBSERVATIONS MTOT=  499
# INITIAL TIME INTERVAL= 2019.5068 - 2006.7680 = 12.7389
# TOTAL OBSERVATIONS AFTER PREFILTER M=  499
# TIME-SPAN=    0.0000 -    0.0000 =  0.0000
# OBSERVATIONS: USED M=   499 REJECTED MTOT-M=     0 %USED=  100.0000
# N=  2 PARAMETERS
# MAXSIG= 175.00000
# MAXRES=  17.49903
# SCALE FACTOR FOR LENGTHS: SCL=  10.00000
# SCALE FACTOR FOR SIGMAS: SCLSIG=   1.00000
# CHI^2=    756.384 DOF=   497 CHI^2/DOF=   1.52190
# RMS=      7.131 SDEV=      7.138 MEAN=   -0.01826
#  P #       PARAMETER +-    SIGMA %error PARAMETER NAME
# P 1 =       557.86909 +-  190.106  34.08 YZERO                              
# P 2 =        -0.27464 +-    0.095  34.41 SLOPE                              
#       T            LDETRENDED       SIG_OBS
     2006.76797         1.59485         7.35997
     2006.77071         4.13860         7.27979
     2006.77345        -1.21165         7.24154
     2006.77619        -1.98590         7.19466
     2006.77892         1.53086         7.14532
     2006.78166         3.28961         7.09597
     2006.78440        -1.35064         7.21317
     2006.78714         5.95311         7.35627
     2006.78987        10.63786         7.21317
     2006.79261        11.03361         7.24894
     2006.79535         2.63237         7.29089
     2006.79809         6.27612         7.22057
     2006.80083        -1.52713         7.44386
     2006.80356         4.46162         7.26868
     2006.80630         3.25537         7.22797
     2006.80904         3.62013         7.20947
     2006.81178        10.66588         7.24524
     2006.81452         5.89963         7.49321
     2006.81725         0.92438         7.34640
     2006.81999         0.06013         7.15025
     2006.82273         1.09789         7.13915
     2006.82547         6.87264         7.20577
     2006.82820         6.30939         7.12435
     2006.83094         5.30114         7.20947
     2006.83363         4.86988         7.73254
     2006.87201         6.47742         7.59930
     2006.87473        -3.60683         7.69799
     2006.88296        -2.52757         7.21934
     2006.88844         4.38993         8.89340
     2007.48529       -17.31015         7.11941
     2007.48803       -22.06640         7.16012
     2007.49076       -15.35665         7.09844
     2007.49350       -12.26590         7.13175
     2007.49624       -15.11414         7.05773
     2007.49898        -9.55439         7.19096
     2007.50172       -16.31664         7.17986
     2007.50445       -16.69289         7.10461
     2007.50719       -13.18614         7.13915
     2007.50993        -9.18938         7.21193
     2007.51267       -13.45963         7.25141
     2007.51541       -14.37088         7.11078
     2007.51814       -13.99013         7.12928
     2007.52088       -13.19338         7.15272
     2007.52362       -15.31762         7.20453
     2007.52636       -12.06787         7.12311
     2007.52909       -14.15512         7.19220
     2007.53183       -12.41737         7.07500
     2007.53457       -14.41262         7.18603
     2007.53731       -19.90086         7.14285
     2007.54005       -11.37911         7.21193
     2007.54278       -25.09836         7.34394
     2007.54552       -19.68161         7.10584
     2007.54826       -11.50686         7.11448
     2007.55100       -15.36011         7.17739
     2007.55374       -10.90835         7.09597
     2007.55647       -13.47460         7.14532
     2007.55921       -11.23185         7.50061
     2007.56195       -10.00910         7.24154
     2007.56469        -7.97635         7.08857
     2007.56742       -13.84659         7.16135
     2007.57016       -10.38684         7.08857
     2007.57290        -8.08809         7.09597
     2007.57564       -11.44534         7.17246
     2007.57838       -15.79559         7.24031
     2007.58111       -11.80583         7.07993
     2007.58385       -17.14408         7.08487
     2007.58659        -8.63533         7.16259
     2007.58933       -13.88258         7.10831
     2007.59206       -11.10983         7.09967
     2007.59480        -6.38607         7.32296
     2007.59754       -15.46432         7.17122
     2007.60028       -14.66557         7.16876
     2007.60302       -12.72682         7.09350
     2007.60575        -5.99207         7.06513
     2007.60849       -13.46531         7.19343
     2007.61123       -14.44956         7.08857
     2007.61397       -14.47481         7.06636
     2007.61671       -12.61106         7.53268
     2007.61920       -16.51938         8.33456
     2008.60507         1.18138         7.12435
     2008.60781         0.85813         7.20083
     2008.61055         0.65289         7.13545
     2008.61328        -0.97036         7.13915
     2008.61602         8.57439         7.26868
     2008.61876         0.31514         7.26498
     2008.62150         6.69389         7.21070
     2008.62423        -0.34335         7.26622
     2008.62697         6.11740         7.34270
     2008.62971         9.52715         7.35997
     2008.63245        10.35090         7.19220
     2008.63519         6.88265         7.18233
     2008.63792         9.35540         7.34394
     2008.64066         3.10216         7.25758
     2008.64340         0.47091         7.14408
     2008.64614        13.21166         7.30446
     2008.64888         1.68241         7.21440
     2008.65161         5.93216         7.20330
     2008.65435         1.97892         7.28965
     2008.65709         2.65667         7.38341
     2008.65983         3.90842         7.20083
     2008.66256         1.89517         7.31926
     2008.66530         1.89392         7.36367
     2008.66804        -0.99332         7.28472
     2008.67078        -0.34457         7.33160
     2008.67352         6.63818         7.23291
     2008.67625         3.02093         7.85097
     2008.67899         3.18168         7.23167
     2008.68173        -0.47356         7.32173
     2008.68447         3.77719         7.30199
     2008.68721         3.41294         7.23044
     2008.68994         2.98869         7.23661
     2008.69268         1.40344         7.37478
     2008.69542         4.80019         7.24894
     2008.69816         6.14995         7.33900
     2008.70089         7.92670         7.29459
     2008.70363         7.04645         7.18973
     2008.70637         4.92020         7.20330
     2008.70911         2.37095         7.23661
     2008.71185         5.61071         7.52528
     2008.71458         6.43546         7.19343
     2008.71732         6.31721         7.25388
     2008.72006         6.39196         7.23414
     2008.72280         0.70571         7.17739
     2008.72554        -1.75053         7.16382
     2008.72827         6.88922         7.18233
     2008.73101        12.02097         7.20083
     2008.73375         3.90272         7.25265
     2008.73649         2.47247         7.26992
     2008.73922         5.89323         7.26868
     2008.74470         2.13973         7.22674
     2008.74744         0.50648         7.27362
     2008.75018         9.77723         7.25265
     2008.75291         2.67999         7.27115
     2008.75565         3.64074         7.22550
     2008.75839        -1.04051         7.28225
     2008.76113         2.86924         7.16135
     2008.76387        -1.29701         7.19220
     2008.76660         3.04274         7.21440
     2008.76934         2.51850         7.22057
     2008.77208         3.34925         7.00221
     2008.77482         5.31300         7.07993
     2008.77755         2.31575         7.08240
     2008.78029         3.43850         7.05896
     2008.78303        -0.94474         6.95410
     2008.78577         1.63201         7.06143
     2008.78851         0.74776         7.14532
     2008.79124         3.79751         7.26005
     2008.79398        -4.21774         7.00715
     2008.79672         2.86902         6.95533
     2008.79946        -0.66923         6.97507
     2008.80220         6.95552         7.07253
     2008.80493         3.14427         7.08980
     2008.80767         4.60402         7.01208
     2008.81041         2.86478         7.01455
     2008.81315         3.18653         7.01332
     2008.81588         4.66228         7.03552
     2008.81862        -2.39697         7.05649
     2008.82136        -3.19922         7.05403
     2008.82410        -2.12547         7.15519
     2008.82684         3.08829         7.14778
     2008.82957        -0.16896         7.00098
     2008.83231        -9.58821         7.25511
     2008.83505        -8.39646         7.16382
     2008.83779       -10.57071         7.33283
     2008.84052        -2.52595         7.20947
     2008.84326        -0.96520         7.03799
     2008.84600         0.10155         7.06636
     2008.84874        -5.30970         7.18356
     2008.85148       -12.79995         7.17986
     2008.85421        -7.97519         7.18973
     2008.85695        -6.55444         7.16629
     2008.85969         5.35131         7.06636
     2008.87064        -2.16168         7.23414
     2008.87338        -4.56393         7.08980
     2008.87612        -0.42818         7.10954
     2008.87885        -5.39243         7.21564
     2008.88159        -6.20467         7.18479
     2008.88433        -2.67592         7.23784
     2008.88707        -4.70517         7.36984
     2008.88964        -2.76446         7.81519
     2009.56332        -3.17145         7.27732
     2009.56606        -1.92970         7.25758
     2009.56879        -2.64994         7.18356
     2009.57153         3.62081         7.20577
     2009.57427         1.49756         7.30569
     2009.57701         4.33531         7.39698
     2009.57974         8.42206         7.36984
     2009.58248         4.53182         7.29459
     2009.58522         7.79057         7.34023
     2009.58796         5.98132         7.37848
     2009.59070        -2.32493         7.34147
     2009.59343        -8.97118         7.42782
     2009.59617        -2.87043         7.13792
     2009.59891         1.96033         7.17122
     2009.60165        -5.23992         7.26992
     2009.60439         3.52283         7.15889
     2009.60712         0.71258         7.17246
     2009.60986        -2.11667         7.20330
     2009.61260         3.33509         7.05773
     2009.61534        -4.63016         7.28472
     2009.61807         5.48359         7.47470
     2009.62081         4.58634         7.16259
     2009.62355        -1.66991         7.08734
     2009.62629         2.11285         7.09227
     2009.62903         3.72360         7.10214
     2009.63176         1.26235         7.18109
     2009.63450         0.49610         7.17863
     2009.63724         0.74785         7.23537
     2009.63998        -3.25439         7.30693
     2009.64272        -5.09464         7.27115
     2009.64545         8.00511         7.12311
     2009.64819         4.54786         7.32913
     2009.65093        -0.40239         7.17122
     2009.65367        -1.04564         7.14408
     2009.65640        -6.62188         7.07747
     2009.65914        -4.54813         7.16876
     2009.66188         1.97762         7.14532
     2009.66462        -0.68563         7.19960
     2011.70705        -2.22270         7.36121
     2011.70979         1.06205         7.06883
     2011.71253         0.74780         7.07253
     2011.71527        -2.01444         7.14162
     2011.71801         7.13331         7.24648
     2011.72074         6.89706         7.04292
     2011.72348         3.19381         7.11818
     2011.72622         5.83756         7.10707
     2011.72896         4.85932         7.10091
     2011.73170         0.90607         7.14902
     2011.73443         2.20682         7.07747
     2011.73717         3.36857         7.05279
     2011.73991         2.03732         7.06390
     2011.74265         3.62708         7.11818
     2011.74538         4.36683         7.20453
     2011.74812         2.03758         7.34394
     2011.75086         4.81033         7.28965
     2011.75360         1.87608         7.27362
     2011.75634         6.24983         7.34517
     2011.75907        10.95659         7.24648
     2011.76181         2.11634         7.11201
     2011.76455         4.06509         7.15025
     2011.76729         0.20684         7.16999
     2011.77003         1.66759         7.13175
     2011.77276        -2.92565         7.28472
     2011.77550        -6.93490         7.29089
     2011.77824        -0.31715         7.18850
     2011.78098         0.57460         7.15272
     2011.78371         1.37535         7.19836
     2011.78645         3.33811         7.09350
     2011.78919        -0.07414         7.08363
     2011.79193        -3.07639         7.04292
     2011.79467         2.78336         7.03429
     2011.79740         1.17311         7.12681
     2011.80014         3.71687         7.00962
     2011.80288        -0.71838         7.01578
     2011.80562        -2.37963         7.01332
     2011.80836        -1.88288         7.01578
     2011.81109         3.26487         6.97384
     2011.81383        -0.70437         7.04663
     2011.81657         0.54638         6.98248
     2011.81931         1.81813         7.02319
     2011.82204         2.58788         7.00345
     2011.82478         0.66163         7.06143
     2011.82752         0.63138         6.99851
     2011.83026         0.11314         6.97754
     2011.83300         0.84989         6.97754
     2011.83573        -3.47936         6.99481
     2011.83847        -1.41761         7.07870
     2011.84121         6.80414         6.99975
     2011.84395         3.92090         6.98371
     2011.84669         2.96265         6.99358
     2011.84942        -0.93360         6.96397
     2011.85216        -5.82685         6.95904
     2011.85490        -3.51310         7.10831
     2011.85764        -1.42934         7.06760
     2011.86037         9.68541         6.98618
     2011.86311         2.32216         6.99851
     2011.86585         3.80291         7.04416
     2011.86859         9.59966         7.01455
     2011.87133         7.32342         7.03059
     2011.87406        -1.74583         6.96644
     2011.87680        -1.41708         7.05279
     2011.87954         4.99467         7.16876
     2011.88228         5.58342         6.94547
     2011.88502        -1.22783         6.90352
     2011.88762       -14.89611         7.46483
     2011.90966         3.66994         7.02072
     2011.91239         1.95969         7.20330
     2011.91513         4.00145         7.00838
     2011.91787         2.49520         7.12928
     2011.92061        -1.55905         7.08857
     2011.92334        -2.50930         7.09597
     2011.92608        -5.17555         7.12805
     2011.92882        -1.12379         7.10461
     2011.93156         3.59996         7.12928
     2011.93430         1.90871         7.13298
     2011.93703         2.85946         7.15025
     2011.93977         1.76621         7.11324
     2011.94251         3.21597         7.12311
     2011.94525         5.97772         7.11078
     2011.94799         6.83347         7.09227
     2011.95072         4.09422         6.97261
     2011.95346         7.38997         7.20207
     2011.95620        -0.82828         7.16629
     2011.95894        -1.84152         6.89489
     2011.96167         3.94423         6.89735
     2011.96441         5.96398         7.13051
     2011.96715         2.24473         6.94300
     2011.96989        10.99548         6.92203
     2011.97263         1.23224         6.90229
     2011.97536         0.85699         6.93683
     2011.97810        -2.45526         6.90105
     2011.98084         0.31149         6.93190
     2011.98358         6.37324         6.94547
     2011.98632         8.89000         6.89735
     2011.98905         6.51275         6.99481
     2011.99179         4.75750         6.89365
     2011.99453         5.33625         7.03059
     2011.99727         1.93800         6.93436
     2012.00274         9.16051         6.94793
     2012.00548         5.52526         6.92079
     2012.00822        11.03901         6.87885
     2012.01096         6.70276         6.94053
     2012.01369         6.60351         6.93066
     2012.01643         7.80727         6.90846
     2012.01917         4.14702         6.94793
     2012.02191         6.18077         6.89982
     2012.02465         9.54552         6.90476
     2012.02738         6.24127         6.88132
     2012.03012         6.54603         6.87268
     2012.03286         2.16678         6.94793
     2012.03560         5.24753         6.93930
     2012.03833         6.78028         6.91956
     2012.04107        17.49903         6.88502
     2012.04381        10.09679         6.87638
     2012.04655         6.58754         7.02072
     2012.04929         9.83729         7.07253
     2012.05202         1.66004         6.95533
     2012.05476         3.24579         6.94423
     2012.05750         5.04155         6.92203
     2012.08214         6.55531         6.92943
     2012.08488         5.15606         6.99728
     2012.08762         6.95882         6.94547
     2012.09035         2.55157         6.94547
     2012.09309         6.37832         7.03676
     2012.09583         2.82207         7.06266
     2012.09857         6.47582         6.91833
     2012.10131         6.94758         7.16382
     2012.10404         7.23533         6.96520
     2012.10678         2.38108         7.10214
     2012.10952         3.80583         7.16259
     2012.11226         1.03858         7.03182
     2012.11499         5.66334         6.96150
     2012.11773        12.57509         7.03059
     2012.12047        10.66584         6.98371
     2012.12321         8.22359         7.00221
     2012.12595         2.88734         6.95410
     2012.12868        -0.38790         6.97754
     2012.13142         1.79585         7.05649
     2012.13416         5.85360         6.99975
     2012.13690         6.80135         7.02442
     2012.13964         3.82110         7.13051
     2012.14237         1.04285         7.11694
     2012.14511         8.52761         7.04909
     2012.14785        -0.63164         6.98618
     2012.15059         1.32111         6.97014
     2012.15332         1.18286         6.94300
     2012.15606         3.77661         7.08117
     2012.15880         6.54537         7.03306
     2012.16154         6.38212         6.89982
     2012.16428         0.30387         6.97507
     2012.16668         4.11653         8.13224
     2012.18892         4.12764         7.01085
     2012.19165         0.75339         7.01208
     2012.19439        -2.73186         7.01825
     2012.19713         8.39789         7.04416
     2012.19987       -12.64636         7.03922
     2012.20261       -12.42360         7.03552
     2012.20534        -2.79985         7.03306
     2014.55990         4.77079         7.11694
     2014.56263         7.94455         7.10214
     2014.56537         3.70030         7.09227
     2014.56811        -0.48595         7.19590
     2014.57085         2.46480         7.14285
     2014.57358        -0.55445         7.40438
     2014.57632         7.14331         7.15395
     2014.57906         2.43306         7.39081
     2014.58180         6.41081         7.58326
     2014.58454         4.27056         7.56723
     2014.58727        -4.58069         7.55736
     2014.59001         6.99307         7.27732
     2014.59275        -3.54418         7.26375
     2014.59549         2.28557         7.64618
     2014.59823        -7.23168         8.18035
     2014.60096         3.36107         7.89291
     2014.60370         2.38583         7.56229
     2014.60644         0.48758         7.70786
     2014.60918        -1.65167         7.85467
     2014.61191        -1.67392         7.92992
     2014.61465         0.64883         7.69183
     2014.61739         2.93559         7.94966
     2014.62013         0.74834         7.48334
     2014.62287         4.09209         7.31309
     2014.62560         5.54384         7.34764
     2014.62834         1.76159         7.29212
     2014.63108         7.63934         7.55489
     2014.63382         6.46910         7.34517
     2014.63656         5.11585         7.47347
     2014.63929        -2.94840         7.90401
     2014.64203        -4.79165         7.36984
     2014.64477         2.74010         7.74611
     2014.64751         2.68386         7.54009
     2014.65024        -0.54739         7.51048
     2014.65298         5.42936         7.69676
     2014.65572         3.07611         7.51665
     2014.65846        -2.75514         7.42782
     2014.66120        -1.10338         7.35010
     2014.66393         8.15037         7.22674
     2014.66667        10.92812         7.27608
     2014.66941         4.09987         7.35874
     2014.67215         6.20962         7.39945
     2014.67488         7.03738         7.81642
     2014.67762         3.02713         7.40192
     2014.68036         5.13288         7.70910
     2014.68310        -1.39837         7.81519
     2014.68584         2.51338         7.67702
     2014.68857         1.36313         7.42659
     2014.69131         2.69189         7.36367
     2014.69405         2.04264         7.30076
     2014.69679         1.42539         7.44016
     2014.69953         8.86814         7.23908
     2014.70226         3.59189         7.25758
     2014.70500         0.10865         7.49074
     2014.70734         5.00729         8.59239
     2016.59686         2.35722         6.89735
     2016.59959        -1.37603         6.92573
     2016.60233         4.46872         6.91462
     2016.60507         6.31647         6.95040
     2016.60781         2.18323         6.87145
     2016.61055        -2.18502         6.84554
     2016.61328        -3.76727         6.84801
     2016.61602         0.27648         6.83690
     2016.61876        -1.75577         6.78386
     2016.62150         4.15699         6.94423
     2016.62423         5.77974         6.98001
     2016.62971         2.96424         6.94300
     2016.63245        -0.75501         6.90599
     2016.63519         8.18875         6.78879
     2016.63792         3.43050         6.91833
     2016.64066         4.95525         7.01085
     2016.64340        -3.69400         6.86404
     2016.64614         4.94475         6.87268
     2016.64888         0.14251         6.76905
     2016.65161         4.63526         7.01085
     2016.65435        -4.76699         6.80606
     2016.65709        -3.42924         6.90476
     2016.65983        -1.70749         6.94300
     2016.66256         4.01826         6.82950
     2016.66530         4.21302         6.94670
     2016.66804         2.23677         6.80730
     2016.67078         4.44052         6.94176
     2016.67352         6.20827         6.79373
     2016.67625         7.09202         6.80113
     2016.67899        10.36878         6.85047
     2016.68173         8.40453         6.83690
     2016.68447         6.44728         7.09721
     2016.68721        -2.72897         7.24524
     2016.68994         6.04178         6.91833
     2016.69268         2.91754         6.77029
     2016.69542         2.07329         6.77399
     2016.69816         8.84504         6.88132
     2019.43053       -11.53155         6.99975
     2019.43327       -12.09280         6.99358
     2019.43601       -16.53105         6.95163
     2019.43875       -18.15629         7.00838
     2019.44148       -20.02454         7.04292
     2019.44422       -14.60379         7.01455
     2019.44696       -12.02704         7.03799
     2019.44970        -9.84029         7.11818
     2019.45243        -3.64953         7.08610
     2019.45517       -12.28078         7.02442
     2019.45791       -18.41303         7.11201
     2019.46065       -14.05628         7.02195
     2019.46339       -10.09353         7.30199
     2019.46612        -5.92378         7.56229
     2019.46886        -5.03202         7.10091
     2019.47160       -10.18427         7.02565
     2019.47434        -6.37052         7.01208
     2019.47708        -2.25177         7.09227
     2019.47981       -16.36902         7.25265
     2019.48255       -14.40026         7.06636
     2019.48529       -12.20551         7.08734
     2019.48803       -19.77176         7.06020
     2019.49076       -14.62001         6.95163
     2019.49350        -9.45326         6.99851
     2019.49624       -13.31850         7.02689
     2019.49898       -11.72875         7.00345
     2019.50172       -11.94200         7.01578
     2019.50445       -15.81825         6.94917
     2019.50683       -11.34860         7.98544
