# ================= DQRFIT RESULTS ================
# INPUT FILE: series/DMAU.rad
# OUTPUT: LDETRENDED
# FILTER FUNCTION: f(t)
# f(t)=+line(t)
# line(t)=+P 1+P 2*t
# heav(t)=(t<0?0:1)
# TOTAL OBSERVATIONS MTOT=   73
# INITIAL TIME INTERVAL= 2015.3484 - 2015.0773 =  0.2710
# TOTAL OBSERVATIONS AFTER PREFILTER M=   73
# TIME-SPAN= 2015.3484 - 2015.0773 =  0.2710
# OBSERVATIONS: USED M=    73 REJECTED MTOT-M=     0 %USED=  100.0000
# N=  2 PARAMETERS
# MAXSIG= 175.00000
# MAXRES=  26.12466
# SCALE FACTOR FOR LENGTHS: SCL=  10.00000
# SCALE FACTOR FOR SIGMAS: SCLSIG=   1.00000
# CHI^2=    156.292 DOF=    71 CHI^2/DOF=   2.20129
# RMS=     10.107 SDEV=     10.160 MEAN=   -0.58886
#  P #       PARAMETER +-    SIGMA %error PARAMETER NAME
# P 1 =    -38447.79711 +- ********  66.66 YZERO                              
# P 2 =        19.06312 +-   12.718  66.72 SLOPE                              
#       T            LDETRENDED       SIG_OBS
     2015.07734         6.79743         8.82455
     2015.08008        -6.44459         8.81832
     2015.08282         7.74641         8.64322
     2015.08556         5.08092         8.94289
     2015.08830        -3.95590         8.76872
     2015.09103       -11.65302        12.54727
     2015.09925        -7.97806        19.45000
     2015.10198        -0.08931         9.13995
     2015.11020         5.16724         9.37639
     2015.11294        -0.13605         9.26398
     2015.11567        -8.13380         8.84029
     2015.11841         3.57129         8.92361
     2015.12115        -5.61742         9.35972
     2015.12389        11.26729         9.31885
     2015.12663         4.98025         9.10436
     2015.12936        -0.59681         8.88074
     2015.13210         1.87961        12.23905
     2015.13484       -31.35766        79.29389
     2015.13758        10.82785         9.14690
     2015.14031         1.56742         9.12903
     2015.14305        -0.43928         9.59052
     2015.14579        -5.38430         8.91338
     2015.14853        -2.74916         8.66000
     2015.15127         0.82330         8.67450
     2015.17591       -19.12839        13.55659
     2015.17864       -13.60641         8.72967
     2015.18138        -8.98921         8.73267
     2015.18412        -1.34215         8.75986
     2015.18686        -1.68696         8.64633
     2015.18960         9.09476         8.96982
     2015.19233         1.75401         9.05853
     2015.19781        -9.91233         9.08297
     2015.20055         8.80036        10.11727
     2015.20329         5.90575        10.09374
     2015.20602        14.84224         9.33191
     2015.20876        16.11463         9.02826
     2015.21150         9.10168         8.83675
     2015.21424         1.39575         8.90541
     2015.21697         1.26857         9.22950
     2015.22245        -8.20482         9.32719
     2015.22519        -6.04018         8.90763
     2015.23340        15.28406        15.01725
     2015.26626        -7.90003         9.64484
     2015.26899       -16.99404         9.21644
     2015.27173       -15.08044         8.96914
     2015.27447        -7.19486         9.18939
     2015.27721       -14.40838        10.69727
     2015.27995        -9.38866        10.88937
     2015.28268        -9.56867         8.93956
     2015.28542       -13.46411         9.03026
     2015.28816       -20.63609         9.37344
     2015.29090        -5.99475        10.41948
     2015.29363        13.92385        10.51837
     2015.29637         5.58593         8.83712
     2015.29911        11.93955         9.10412
     2015.30185         4.89883        10.13739
     2015.30459        14.07642        10.80414
     2015.30732        26.12466         8.97618
     2015.31006        11.16203         8.95832
     2015.31280        11.21121         8.77584
     2015.31554        -5.08824         8.86331
     2015.31828        -4.65744         8.96483
     2015.32101       -16.15707         8.95377
     2015.32375        -2.48618        10.02401
     2015.32649        -0.97024         8.91992
     2015.32923        -0.92896         9.74912
     2015.33196        -2.22541         9.51545
     2015.33470         1.40249         8.60561
     2015.33744        -5.62927         8.58657
     2015.34018        -1.94257         8.47269
     2015.34292         8.89179         8.54057
     2015.34565         8.13218         8.57240
     2015.34839        10.55475         8.78575
