# ================= DQRFIT RESULTS ================
# INPUT FILE: series/DMND.rad
# OUTPUT: LDETRENDED
# FILTER FUNCTION: f(t)
# f(t)=+line(t)+annual(t)
# line(t)=+P 1+P 2*t
# annual(t)=+P 3*sin(2*pi*t+P 4)
# heav(t)=(t<0?0:1)
# TOTAL OBSERVATIONS MTOT= 3588
# INITIAL TIME INTERVAL= 2022.7488 - 2011.8604 = 10.8884
# TOTAL OBSERVATIONS AFTER PREFILTER M= 3576
# TIME-SPAN= 2022.7488 - 2011.8604 = 10.8884
# OBSERVATIONS: USED M=  3576 REJECTED MTOT-M=    12 %USED=   99.6656
# N=  4 PARAMETERS
# MAXSIG= 175.00000
# MAXRES=  90.95820
# SCALE FACTOR FOR LENGTHS: SCL=  10.00000
# SCALE FACTOR FOR SIGMAS: SCLSIG=   1.00000
# CHI^2=  10340.714 DOF=  3572 CHI^2/DOF=   2.89494
# RMS=     10.128 SDEV=     10.127 MEAN=    0.23813
#  P #       PARAMETER +-    SIGMA %error PARAMETER NAME
# P 1 =      1288.83419 +-  101.451   7.87 YZERO                              
# P 2 =        -0.63856 +-    0.050   7.88 SLOPE                              
# P 3 =         7.19655 +-    0.221   3.07 ANNUAL AMPLITUDE                   
# P 4 =        -2.92734 +-    0.042   1.45 ANNUAL PHASE                       
#       T            LDETRENDED       SIG_OBS
     2011.86036         8.27181         9.19294
     2011.86310         9.37856         9.15551
     2011.86584         3.97430         9.15551
     2011.86858        20.03205         9.11978
     2011.87132         2.88380         9.13509
     2011.87405         0.03955         9.09936
     2011.87679        -9.49270         9.30694
     2011.87953         1.42005         9.15381
     2011.88227         0.68279         9.08065
     2011.88501         2.60654         9.12148
     2011.88774       -10.65371         9.19124
     2011.89048       -10.70896         9.20655
     2011.89322        -1.15121         9.35628
     2011.89596        -1.95246         9.20315
     2011.89869        -3.20672         9.28142
     2011.90143        -7.60597         9.19124
     2011.90417        -2.13822         9.36819
     2011.90691         0.53053         9.16572
     2011.90965        -1.39572         9.16402
     2011.91238        -1.50597         9.47538
     2011.91484        -6.44441        10.54219
     2011.91786         1.30452         9.93818
     2011.92060        -5.52773         9.25760
     2011.92334        -9.01398         9.30354
     2011.92607       -10.33323         9.27121
     2011.92881        -5.17549         9.35798
     2011.93155         0.17926         9.28482
     2011.93429        -3.52599         9.29333
     2011.93702        -1.65324         9.08065
     2011.93976        -3.20549         9.05512
     2011.94250        -1.07774         9.19634
     2011.94524         0.68300         9.02280
     2011.94798         3.48675         9.06703
     2011.95071         1.30150         9.02110
     2011.95345        -3.03475         9.35628
     2011.95619        -7.18500         9.56556
     2011.95893        -2.87825         9.13509
     2011.96167         2.74349         9.20655
     2011.96440        -0.28376         9.12318
     2011.96714         0.96299         9.17423
     2011.96988        -2.60426         9.12488
     2011.97262        -8.22851         9.06703
     2011.97535        -6.81876         9.07384
     2011.97809        -6.09402         9.03981
     2011.98083        -4.33827         9.12318
     2011.98357         3.82248         9.07214
     2011.98631        -4.72177         9.00408
     2011.98904         8.31898         9.23378
     2011.99178         7.46273         9.27121
     2011.99452         0.99647         9.11808
     2011.99726        -1.07278         9.11638
     2012.00273         3.12572         9.14700
     2012.00547        -0.56953         9.13850
     2012.00821         1.14622         9.25079
     2012.01095         6.01796         9.16061
     2012.01368         1.74671         9.08405
     2012.01642         3.29046         9.02450
     2012.01916        -8.13179         8.97005
     2012.02190        -2.24304         9.06703
     2012.02464         0.88370         9.00918
     2012.02737        -2.18055         8.97345
     2012.03011         0.02420         9.17082
     2012.03285        -4.59505         9.12999
     2012.03559        -1.57730         9.02620
     2012.03833         0.41345         9.10617
     2012.04106         1.30519         9.07384
     2012.04380        -1.62506         9.07044
     2012.04654         0.63869         9.06874
     2012.04928       -10.89556         8.99727
     2012.05201       -26.43781         9.05172
     2012.05475       -18.14606         9.20996
     2012.05749         2.49868         9.21676
     2012.06023         4.88843         9.30354
     2012.06297         0.76618         9.12488
     2012.06570         5.60293         9.13339
     2012.06844         2.45968         9.24058
     2012.07118        -6.93757         9.13679
     2012.07392        -1.93883         9.15551
     2012.07666         3.67692         9.16402
     2012.07939         4.29967         9.18103
     2012.08213         5.89042         9.07894
     2012.08487        -4.02783         9.04662
     2012.08761        -3.26708         9.18954
     2012.09034        -3.19534         9.25590
     2012.09308        -3.29059         9.14020
     2012.09582        -0.81784         9.19294
     2012.09856        -6.89409         9.09085
     2012.10130        -4.48934         9.29843
     2012.10403        -4.35160         9.15381
     2012.10677        -6.73485         9.29503
     2012.10951        -5.78210         9.20655
     2012.11225        -3.20935         9.23378
     2012.11498         0.90840         9.19464
     2012.11772         4.31115         9.22016
     2012.12046         6.50589         9.25079
     2012.12320         1.44164         9.23208
     2012.12594        -3.00661         9.06703
     2012.12867       -10.11386         9.00068
     2012.13141        -1.20411         9.03641
     2012.13415        -2.04036         9.03301
     2012.13689         3.53438         9.08915
     2012.13963         1.67613         9.20145
     2012.14236        10.81288         9.42944
     2012.14510        -3.71837         9.06193
     2012.14784        -7.11762         9.07044
     2012.15058        -5.40487         9.06193
     2012.15331        -6.53313         9.05683
     2012.15605        -6.62538         9.24739
     2012.15879        -3.17463         9.19975
     2012.16153        -0.66588         9.00408
     2012.16427        -6.71013         9.17933
     2012.16700        -5.89438         9.25930
     2012.16974        -7.31464         9.12488
     2012.17248        -6.47689         9.07044
     2012.17522        -1.60514         9.10447
     2012.17796        -3.13639         9.13169
     2012.18069        -8.55064         9.20655
     2012.18343       -10.21589         9.14700
     2012.18617        -6.01315         9.34607
     2012.18891        -1.81440         9.14530
     2012.19164         3.18735         9.05512
     2012.19438        -3.61090         9.17763
     2012.19712        -5.36215         9.15551
     2012.19986        -1.83441         9.15551
     2012.20260       -18.07366         9.15211
     2012.20533        -0.25991         9.10957
     2012.20807         0.80384         8.96835
     2012.21081         2.58859         8.79310
     2012.21355        -2.28166         8.77609
     2012.21629        -5.70392         8.82543
     2012.21902        -2.94817         8.78459
     2012.22176        -9.67642         9.07044
     2012.22450       -10.01867         9.13509
     2012.22724        -7.32792         9.11978
     2012.22997        -7.77417         9.13339
     2012.23271        -4.05443         9.06703
     2012.23545        -4.93968         8.85435
     2012.23819        -2.60293         9.15551
     2012.24093        -4.51518         8.85095
     2012.24366        -3.38843         8.84585
     2012.24640        -3.36168         9.03301
     2012.24914        -2.65094         9.12318
     2012.25188        -9.16619         9.09256
     2012.25462        -8.72344         9.26100
     2012.25735        -8.49469         9.11808
     2012.26009       -10.02794         8.97005
     2012.26283       -11.54719         9.11808
     2012.26557       -13.01645         9.12999
     2012.26830       -10.67470         9.14360
     2012.27104        -8.44195         9.42944
     2012.27378        -5.61420         9.11127
     2012.27652        -6.72845         9.13850
     2012.27926        -4.59470         9.42774
     2012.28199        -7.24396         9.17933
     2012.28473        -7.54421         9.23037
     2012.28747        -7.37246         9.12148
     2012.29021        -8.92671         9.15891
     2012.29295        -9.56596         9.18103
     2012.29568       -11.42022         9.12999
     2012.29842        -9.00947         9.16232
     2012.30116        -6.93372         9.30864
     2012.30390        -8.97897         9.02110
     2012.30663       -14.75822         8.87817
     2012.30937        -9.70947         8.94113
     2012.31211         6.38627         9.89734
     2012.31485        -2.58098         9.53663
     2012.31759        -7.30823         9.19124
     2012.32032       -12.52848         9.14190
     2012.32306       -12.23873         8.94453
     2012.32580       -10.58398         8.98026
     2012.32854        -1.31624         9.06363
     2012.33128        -3.20249         9.33416
     2012.33401       -11.54874         9.23378
     2012.33675       -12.24099         9.03301
     2012.33949       -11.21324         9.02960
     2012.34223       -14.38549         8.98707
     2012.34496       -18.24675         9.05342
     2012.34770       -11.62700         9.22527
     2012.35044       -13.76825         9.04321
     2012.35318       -14.85950         9.20485
     2012.35592        -7.40575         8.98026
     2012.35865       -13.16200         9.01089
     2012.36139        -9.62526         8.99387
     2012.36413       -10.55551         9.05342
     2012.36687       -13.52476         9.00748
     2012.36961       -11.25501         8.98196
     2012.37234        -5.99726         9.25760
     2012.37508        -7.84152         9.06703
     2012.37782        -7.24177         9.41243
     2012.38056        -9.46102         8.98536
     2012.38329        -5.07527         9.19805
     2012.38603       -11.82452         9.27461
     2012.38877       -11.31777         9.43455
     2012.39151        -3.06803         9.16402
     2012.39425        -4.24628         9.13679
     2012.39698        -6.56353         9.24569
     2012.39972        -5.82878         9.09766
     2012.40246        -8.74403         8.95474
     2012.40520        -4.43028         8.97686
     2012.40794        -8.39254         9.03641
     2012.41067        -9.49379         9.13509
     2012.41341        -5.59004         9.09596
     2012.41615        -4.66529         9.04662
     2012.41889        -6.59354         9.49750
     2012.42162        -7.34879         9.21336
     2012.42436        -4.95305         9.15721
     2012.42710        -6.26330         9.14190
     2012.42984        -9.05155         9.01089
     2012.43258        -9.28680         8.98877
     2012.43531        -9.00705         9.05342
     2012.43805        -7.28830         9.02280
     2012.44079       -12.22856         9.08235
     2012.44353       -11.95481         9.09766
     2012.44626        -9.45106         9.07044
     2012.44900        -8.82331         9.05683
     2012.45174       -10.59356         9.04832
     2012.45448        -9.48081         9.09256
     2012.45722        -9.03307         9.08575
     2012.45995        -0.16932         9.44816
     2012.46269         1.52343         9.06193
     2012.46543        -5.54582         8.93602
     2012.46817       -10.05407         9.04321
     2012.47091        -9.13333         9.07554
     2012.47364        -1.13658         9.12488
     2012.47638         4.86817         9.28482
     2012.47912        -1.18408         9.36479
     2012.48186        -6.14833         9.03471
     2012.48459        -6.53258         9.03301
     2012.48733        -9.70384         8.99898
     2012.49007        -9.49909         9.04832
     2012.49281        -5.87334         9.05683
     2012.49555        -7.76159         9.04492
     2012.49828        -7.83384         9.04492
     2012.50102        -4.34409         9.07724
     2012.50376        -3.64435         9.20315
     2012.50650        -7.82360         9.03471
     2012.50924        -5.96785         9.23888
     2012.51197        -8.88410         9.25760
     2012.51471        -8.41035         9.05172
     2012.51745       -10.57860         9.16402
     2012.52019        -9.01186         9.20485
     2012.52292        -4.43211         9.09766
     2012.52566        -7.58136         9.08405
     2012.52840        -5.78661         9.14020
     2012.53114         1.94314         9.20315
     2012.53388         0.11389         9.25760
     2012.53661        -0.00737         9.16402
     2012.53935        -1.27162         9.03641
     2012.54209         7.31513         9.31885
     2012.54483        -1.75612         9.04662
     2012.54757        -4.74937         9.02280
     2012.55030         5.74638         9.29503
     2012.55304        -1.09988         8.94793
     2012.55578        -4.65813         9.02790
     2012.55852         0.05862         9.24739
     2012.56125         0.08037         9.01259
     2012.56399        -2.62488         9.02110
     2012.56673        -6.25214         9.08745
     2012.56947         0.88161         9.03471
     2012.57221        -1.71664         9.11127
     2012.57494        -1.95889         9.03301
     2012.57768         0.16286         9.13339
     2012.58042        -3.86739         9.11127
     2012.58316        -7.39565         9.05342
     2012.58590         1.36210         9.05172
     2012.58863         2.12485         9.05342
     2012.59137        -0.19340         9.11297
     2012.59411        -3.11565         9.14360
     2012.59685         0.34910         9.10447
     2012.59958        -1.89316         9.15891
     2012.60232         0.39459         9.52983
     2012.60506         2.23134         9.10447
     2012.60780        -1.16391         9.17933
     2012.61054         2.43484         9.09426
     2012.61327        -1.36941         9.07214
     2012.61601         2.45533         9.10617
     2012.61875         3.47308         9.23208
     2012.62149         6.08583         9.12659
     2012.62423         2.83158         9.10787
     2012.62696         2.31633         9.07044
     2012.62970        -0.21292         9.00068
     2012.63244        10.38182         9.27461
     2012.63518         8.81657         9.12829
     2012.63791         9.85632         9.46517
     2012.64065         3.45707         9.18954
     2012.64339         8.42682         9.08235
     2012.64613         7.57856         9.15891
     2012.64887         5.29531         9.08915
     2012.65160        10.86306         9.09596
     2012.65434         2.74581         9.22697
     2012.65708         8.13056         9.31885
     2012.65982         2.17931         9.38350
     2012.66256         4.94105         9.08745
     2012.66529        10.93380         9.10276
     2012.66803         4.40655         9.18614
     2012.67077         6.67230         9.08235
     2012.67351         1.53005         8.99217
     2012.67624        12.83080         9.04662
     2012.67898         8.52254         9.07384
     2012.68172         7.45229         9.14020
     2012.68446         1.55204         9.03130
     2012.68720         3.02179         9.06874
     2012.68993         9.75054         9.25249
     2012.69267        15.19629         9.50601
     2012.69541         8.66503         8.97856
     2012.69815         6.06578         9.20145
     2012.70089         0.19753         9.00238
     2012.70362         0.40828         9.11297
     2012.70636         6.04803         9.11127
     2012.70910         0.14478         9.09085
     2012.71184         5.72952         9.08405
     2012.71457         7.24127         9.12829
     2012.71731         9.73302         9.07214
     2012.72005        10.84477         9.04832
     2012.72279         7.91052         9.09766
     2012.72553         9.78427         9.06363
     2012.72826        15.68401         9.22867
     2012.73100         5.98976         9.28652
     2012.73374         5.82851         9.25760
     2012.73648         6.76026         9.07044
     2012.73921         3.32701         9.21846
     2012.74195         7.56475         9.21336
     2012.74469         6.82050         9.03981
     2012.74743         9.97025         9.16061
     2012.75017         4.66100         9.30694
     2012.75290         8.59875         9.15551
     2012.75564         3.49450         9.05853
     2012.75838         4.60924         8.96325
     2012.76112         6.00899         8.98877
     2012.76386         5.85674         8.95474
     2012.76659         9.31649         9.03130
     2012.76933         9.98924         9.08745
     2012.77207         8.00999         9.06703
     2012.77481         7.51173         8.97856
     2012.77754         7.35148         8.83904
     2012.78028         8.46223         9.05512
     2012.78302         8.95598         9.11127
     2012.78576         9.35073         8.96835
     2012.78850        12.24648         8.86967
     2012.79123        16.87722         9.21506
     2012.79397         6.65197         8.87477
     2012.79671         5.85372         8.96835
     2012.79945        10.21247         9.24228
     2012.80219        14.03522         9.09936
     2012.80492         7.20297         9.12488
     2012.80766        -8.44829         9.10617
     2012.81040         5.30446         9.05172
     2012.81314         5.44221         9.15041
     2012.81587        -0.07704         8.98366
     2012.81861        -2.53829         9.21166
     2012.82135        -1.53455         9.07384
     2012.82409         2.00320         9.17082
     2012.82683        -1.81305         9.07044
     2012.82956         2.32370         9.06874
     2012.83230         4.36645         9.01769
     2012.83504         3.16720         9.10106
     2012.83778         2.11294         9.04662
     2012.84052         0.42469         9.05512
     2012.84325         3.69144         9.10787
     2012.84599         5.77519         9.37670
     2012.84873         3.19894         9.23548
     2012.85147         6.65869         9.33586
     2012.85420         0.81443         9.14530
     2012.85694         2.93018         9.17933
     2012.85968        -0.91407         9.15041
     2012.86242        -1.44532         9.01599
     2012.86516        -3.97057         9.04662
     2012.86789        -3.69682         9.36479
     2012.87063        -0.51008         9.18103
     2012.87337        -2.82433         9.26440
     2012.87611         1.33842         9.15721
     2012.87885         3.11417         9.07384
     2012.88158         5.10992         9.00408
     2012.88432         3.49067         9.04832
     2012.88706         2.94441         9.28652
     2012.88980         3.01216         9.31204
     2012.89253        -1.13909         9.01769
     2012.89527        -2.39134         8.97516
     2012.89801         3.07641         9.00408
     2012.90075         1.44016         9.03471
     2012.90349        -3.91010         9.08235
     2012.90622        -3.19735         9.03811
     2012.90896         0.44540         9.11808
     2012.91170         0.71015         9.08065
     2012.91444        -0.18310         9.12148
     2012.91718         4.76764         9.09596
     2012.91991         7.36739         9.03811
     2012.92265         6.22114         9.00748
     2012.92539         3.02389         8.96835
     2012.92813        -2.94236         9.06363
     2012.93086        -3.96661         9.18443
     2012.93360       -12.21787         9.19464
     2012.93634        -6.48212         8.90710
     2012.93908        -6.43337         8.99217
     2012.94182       -11.65062         8.91050
     2012.94455        -0.54687         8.98536
     2012.94729         0.11488         9.15551
     2012.95003         1.53762         9.13339
     2012.95277         4.50437         8.93943
     2012.95551         9.01212         8.90710
     2012.95824         8.12187         8.91050
     2012.96098         6.87262         9.21506
     2012.96372         6.57737         9.19634
     2012.96646        -1.84089         8.96835
     2012.96919        -3.04314         9.19124
     2012.97193        -7.06939         9.15891
     2012.97467        -2.08064         9.00238
     2012.97741        -0.15489         9.03981
     2012.98015        -3.04414         8.94623
     2012.98288        -6.97340         8.96495
     2012.98562        -0.01765         8.99727
     2012.98836        -1.99690         9.03301
     2012.99110        -0.08615         9.08235
     2012.99384        -0.60940         8.97345
     2012.99657        -5.16765         8.87987
     2012.99931        -6.70191         8.99387
     2013.00205        -5.09516         9.07724
     2013.00479        -9.36641         9.17423
     2013.00752        -5.52466         8.94283
     2013.01026        -5.16291         8.94113
     2013.01300        -3.10117         9.06874
     2013.01574        -6.63142         9.11978
     2013.01848        -8.73467         9.12488
     2013.02121        -1.25992         9.19124
     2013.02395        -9.31617         9.15551
     2013.02669        -1.40442         9.31034
     2013.02943        -5.53868         9.12829
     2013.03216        -5.76693         9.11467
     2013.03490       -11.07218         9.17423
     2013.03764       -11.71843         9.13169
     2013.04038       -17.08668         9.17593
     2013.04312       -19.64693         9.31034
     2013.04585       -11.88719         9.30524
     2013.04859        -8.05244         9.45497
     2013.05133        -8.56369         9.14190
     2013.05407        -8.15894         9.18103
     2013.05681        -5.25119         9.08065
     2013.05954        -6.26444         9.16232
     2013.06228        -5.60570         9.29843
     2013.06499       -14.19097         9.36309
     2013.08191        -2.34016        11.59709
     2013.08465        -3.83342        11.60560
     2013.08738        -8.39867        11.68557
     2013.08966        -7.97621         9.20996
     2013.09240        -6.19446         9.14870
     2013.09514        -3.31172         9.28822
     2013.09787        -4.21497         9.49750
     2013.10061        -2.71222         9.79355
     2013.10335        -7.05647         9.18784
     2013.10594        -5.21881        10.21722
     2013.11720       -12.18063         9.96710
     2013.11978        -9.28198         9.54855
     2013.12251        -7.98323         9.24058
     2013.12525       -18.51649         9.32565
     2013.12799        -6.22474         9.21166
     2013.13073        -4.13299         9.20145
     2013.13347        -5.48524         9.21846
     2013.13618        -3.23751         9.24228
     2013.13894        -4.64174         9.35118
     2013.14168        -3.83100         9.30524
     2013.14442        -2.94425         9.47879
     2013.14715        -3.36350         9.51962
     2013.14990       -10.94875         9.18443
     2013.15263        -7.87700         9.24909
     2013.15537       -13.93025         9.11638
     2013.15811       -12.27751         9.10447
     2013.16084       -12.92976         9.22527
     2013.16358        -5.11601         9.36819
     2013.16632       -10.23826         9.21846
     2013.16906        -4.36151         9.23888
     2013.17180        -8.48776         9.21676
     2013.17453        -9.09502         9.08745
     2013.17727        -8.10527         9.53663
     2013.18001        -8.61852         9.46007
     2013.18275        -2.56077         9.26781
     2013.18548        -6.25102         9.10447
     2013.18823       -12.88927         9.18443
     2013.19096       -11.16053         9.27631
     2013.19370       -12.11078         9.17423
     2013.19644        -7.24403         9.30183
     2013.19917        -4.58928         9.34777
     2013.20191       -10.92353         9.43455
     2013.20465        -3.90379         9.24058
     2013.20739        -3.80103         9.29503
     2013.21013        -4.32729         9.19805
     2013.21286        -9.75854         9.18784
     2013.21560       -12.93179         9.33757
     2013.21834        -1.03004         9.25760
     2013.22108        -8.84030         9.10957
     2013.22381        -8.58355         9.23718
     2013.22656       -12.59380         9.08405
     2013.22929       -13.11805         9.22867
     2013.23203       -13.06230         9.18614
     2013.23477       -11.50855         9.25760
     2013.23750       -11.92681         9.46177
     2013.24024       -10.10106         9.34777
     2013.24298       -11.93631         9.41413
     2013.24572        -3.92656         9.39712
     2013.24846        -7.11681         9.39031
     2013.25119        -8.90406         9.39541
     2013.25393        -9.36632         9.37330
     2013.25667        -9.05757         9.67615
     2013.25941         3.21618         9.41923
     2013.26214        -1.92407         9.49750
     2013.26489        -2.19232         9.49410
     2013.26762        -7.85557         9.32055
     2013.27036        -8.77483         9.35968
     2013.27310        -3.88208         9.54855
     2013.27583       -10.69433         9.48899
     2013.27857        -7.23758         9.63532
     2013.28131        -4.36183         9.50941
     2013.28405        -4.84008         9.23548
     2013.28679        -7.04234         9.31885
     2013.28952        -9.36859         9.40222
     2013.29226       -12.36484         9.32906
     2013.29500       -12.93809         9.45837
     2013.29765       -11.77140         9.74081
     2013.31690        -2.45611         9.42264
     2013.31964        -5.01036         9.40052
     2013.32238        -7.67061         9.44816
     2013.32512        -0.52086         9.57917
     2013.32785        -7.29011         9.31374
     2013.33059       -12.05636         9.23718
     2013.33333       -13.92162         9.41583
     2013.33607       -15.15087         9.31204
     2013.33880        -8.85412         9.39031
     2013.34155        -0.74837         9.28822
     2013.34428       -12.85662         9.25590
     2013.34702        -5.69187         9.49750
     2013.34976        -5.82913         9.29673
     2013.35249        -9.23338         9.42604
     2013.35523        -6.64463         9.68126
     2013.35797       -14.76288         9.44816
     2013.36071        -4.01613         9.29163
     2013.36344        -5.72039         9.37840
     2013.36618        -3.57364         9.56896
     2013.36892        -6.05889         9.32395
     2013.37166        -6.12714         9.18614
     2013.37440        -7.49239         9.27972
     2013.37713        -7.84364         9.31204
     2013.37988        -9.31489         9.22697
     2013.38261       -13.21615         9.36649
     2013.38535        -6.12040         9.33586
     2013.38809        -6.24765         9.26610
     2013.39082        -7.89990         9.23378
     2013.39242       -29.97588        42.73706
     2013.39513        -8.78415       212.97114
     2013.39907        -9.61864        11.01349
     2013.40177        -4.93191         9.32395
     2013.40451        -5.36516         9.18784
     2013.40725        -1.82241         9.64553
     2013.40999         0.81934         9.62001
     2013.41273        -6.74192         9.30013
     2013.41546       -12.26817         9.83949
     2013.41821       -10.83542         9.34437
     2013.42094        -1.62067         9.26781
     2013.42368        -8.87192         9.22867
     2013.42642       -12.25517         9.26440
     2013.42915        -0.86343         9.36479
     2013.43189        -0.07268         9.42264
     2013.43463        -3.43293         9.22867
     2013.43737         0.33182         9.30354
     2013.44010         2.61457         9.25419
     2013.44284        -4.56368         9.22697
     2013.44558        -7.07994         9.48729
     2013.44832        -9.44019         9.22697
     2013.45106        -4.82744         9.20485
     2013.45379        -5.94869         9.26610
     2013.45654        -8.63594         9.25249
     2013.45927       -11.11720        11.14280
     2013.46201         1.79455         9.38180
     2013.46475        -2.78670         9.18954
     2013.46748        -4.58995         9.20655
     2013.47022        -7.78820         9.26270
     2013.47296        -8.45345         9.10447
     2013.47570       -11.35970         9.08405
     2013.47763         2.81053        15.63804
     2013.48121         8.63081        12.78981
     2013.48391        -2.67146         9.90585
     2013.48665        -0.50371        12.51758
     2013.48939        -7.75596        10.18829
     2013.49212        -9.73622        11.83019
     2013.49487        -9.80846        11.49330
     2013.49760        -6.42772        10.12193
     2013.50034        -3.19897         9.20996
     2013.50308         5.34978         9.32736
     2013.50581        -0.53547         9.12659
     2013.50855        -0.68773         9.10106
     2013.51129         2.95902         9.19805
     2013.51403        -0.85223         9.20145
     2013.51676        -3.79548         9.49410
     2013.51950        -8.67073         9.39712
     2013.52224        -2.46598         9.10106
     2013.52498         2.85576         9.66424
     2013.52772         0.35551         9.29503
     2013.53023        -7.68389         9.72890
     2013.54798        10.20545        25.36694
     2013.54855        -5.16018        22.10015
     2013.56149        -0.30092        16.60617
     2013.56331        -0.24476         9.22527
     2013.56605         0.08699         9.20655
     2013.56878         5.86474         9.17593
     2013.57152         2.25648         9.16232
     2013.57426         5.52523         9.15211
     2013.57700         3.76198         9.10447
     2013.57974        -1.48327         9.11127
     2013.58247         5.97648         9.21846
     2013.58521         2.03223         9.13169
     2013.58795         0.08697         9.12488
     2013.59069        -0.24028         9.13850
     2013.59342        -8.05153         9.26100
     2013.59616         7.70022         9.22527
     2013.59890         2.25097         9.22357
     2013.60164         4.81472         9.29503
     2013.60438         1.84146         9.19805
     2013.60711         6.19221         9.53323
     2013.60985         5.28596         9.68977
     2013.61259         3.32971         9.29333
     2013.61533         1.29846         9.68977
     2013.61807        -1.69979         9.35118
     2013.62080         5.62995         9.41583
     2013.62354         4.83070         9.14020
     2013.62628         9.97845         9.35798
     2013.62902         2.48720         9.34777
     2013.63175        15.64195         9.14190
     2013.63449         5.37369         9.34948
     2013.63723        11.22444         9.21676
     2013.63997         9.25619         9.21846
     2013.64271         8.14194         9.16572
     2013.64544        10.76869         9.29503
     2013.64818        12.28444         9.24569
     2013.65092        11.63418         9.44476
     2013.65366         4.07293         9.15551
     2013.65639         9.28268         9.18103
     2013.65913         3.60143         9.73570
     2013.66187        12.48818         9.22357
     2013.66461         2.40993         9.32225
     2013.66735         9.75067         9.26610
     2013.67008        20.92742         9.68636
     2013.67282         9.52117         9.37670
     2013.67556         5.10792         9.35458
     2013.67830        14.15467         9.48219
     2013.68104        11.88442         9.90075
     2013.68377         7.60616         9.08065
     2013.68651         4.64191         9.04832
     2013.68925         6.56166         9.18103
     2013.69199         8.74541         9.09766
     2013.69472         7.68516         9.47538
     2013.69746         6.39191         9.20145
     2013.70020         9.57265         9.14020
     2013.70294        10.02640         9.11297
     2013.70568        12.17715         9.23548
     2013.70841        11.33990         9.33076
     2013.71115         9.47065         9.09936
     2013.71389         8.28540         9.26270
     2013.71663         6.26714         9.09256
     2013.71937         8.39089         9.18273
     2013.72210        15.09364         9.06874
     2013.72484        13.89039         9.15041
     2013.72758        15.80214         9.27801
     2013.73032        13.35688         9.14530
     2013.73305        11.93463         9.19975
     2013.73579         8.57738         9.24228
     2013.73853         9.27513         9.06703
     2013.74127        10.42988         9.16912
     2013.74401        10.51663         9.35968
     2013.74674        10.76337         9.15721
     2013.74948         6.14712        13.28834
     2013.75222        -4.58113         9.15891
     2013.75496         0.62362         9.04662
     2013.75770        -1.14863         9.28992
     2013.76043        -0.18188         8.98196
     2013.76317         3.96786         9.18273
     2013.76591         5.41161         9.32565
     2013.76865         7.11836         9.16912
     2013.77138         3.30111         9.19634
     2013.77412         6.18086         9.22527
     2013.77686         3.82161         9.04151
     2013.77960         1.85535         9.15721
     2013.78182        -0.71023        11.31635
     2013.78536        -4.42397        10.41118
     2013.78781        -7.46140         9.22697
     2013.79055        -2.33865         9.25079
     2013.79329         0.43910         9.04662
     2013.79603         4.12084         9.06874
     2013.79876         2.95459         9.12318
     2013.80150         5.14034         9.41583
     2013.80424         1.16009         9.14360
     2013.80698         1.84684         8.95984
     2013.80971         4.38759         9.08065
     2013.81245         1.59733         9.04321
     2013.81519         1.92508         9.08575
     2013.81793         0.18083         9.05342
     2013.82067         0.43958         9.16232
     2013.82340         3.88933         9.07724
     2013.82569         8.53978        11.17854
     2013.82888         8.72082         9.20315
     2013.83162         2.85357         9.17763
     2013.83436         0.89532         9.23548
     2013.83709         4.76507         9.23037
     2013.83983         5.05282         9.13509
     2013.84257         1.79256         9.12999
     2013.84531         1.56831         9.17933
     2013.84804        -6.26394         9.01259
     2013.85078        -2.39519         9.14020
     2013.85352         4.66056         9.13169
     2013.85626        -1.80369         9.17593
     2013.85900        -1.11095         8.96325
     2013.86173        -4.79820         9.02790
     2013.86447       -13.82745         9.28142
     2013.86721        -0.16470         9.06023
     2013.86995        -3.05095         9.01259
     2013.87269         3.49480         9.01429
     2013.87542         7.22754         9.03301
     2013.87816         3.96129         9.02790
     2013.88090         7.50904         9.28312
     2013.88364        10.71879         9.55875
     2013.88637         4.18254         9.13509
     2013.88911        -4.52471         8.95304
     2013.89185       -11.42297         8.99387
     2013.89459        -8.37822         9.06023
     2013.89733        -3.68747         9.02450
     2013.90006        -3.19772         9.00918
     2013.90280        -5.02397         9.09426
     2013.90554         0.86477         8.95474
     2013.90828         2.11752         9.06533
     2013.91102        -2.43973         9.07044
     2013.91375        -8.30798         8.97856
     2013.91649       -14.50823         9.02450
     2013.91923         2.99852         9.22867
     2013.92197        -1.33874         9.15721
     2013.92470         0.90501         8.89008
     2013.92744        -0.81624         9.08915
     2013.93018        -0.84749        15.42196
     2013.93292        -2.97674         8.87817
     2013.93566        -4.42899         9.03301
     2013.93839        -1.10725         9.01599
     2013.94113        -4.58450         8.87817
     2013.94296         1.55267        15.23650
     2013.94661        -2.91600         9.08745
     2013.94935        -4.19725         8.92752
     2013.95208        -2.29450         9.00918
     2013.95482         1.57524         9.93477
     2013.95756         1.76099         8.94793
     2013.96030         0.12774         9.06533
     2013.96303         4.89049         9.04492
     2013.96577         0.43324         8.95474
     2013.96851         3.86099         9.01259
     2013.97125        -1.95127         8.84414
     2013.97399        -0.27852         8.98707
     2013.97672       -10.39277         9.01429
     2013.97946        -3.77502         8.91390
     2013.98220        -3.61227         8.95304
     2013.98494        -3.83652         8.91220
     2013.98767        -6.94378         8.94283
     2013.99041        -8.78003         9.07384
     2013.99315       -11.93728         9.00068
     2013.99589        -5.87153         8.98707
     2013.99863       -14.68078         9.03301
     2014.00410        -5.90329         9.06533
     2014.00684         0.48346         9.12659
     2014.00958        -0.78679         9.01089
     2014.01232        -7.88704         9.14190
     2014.01505        -3.84929         9.19464
     2014.01779        -2.06855         9.10617
     2014.02053        -8.58980         8.94453
     2014.02327        -9.10605         9.31715
     2014.02600         7.55470         9.32395
     2014.02874         6.70045         9.20145
     2014.03148         9.03420         9.15891
     2014.03422         7.21394         9.01429
     2014.03696        -3.87831         8.99217
     2014.03969        -4.81956         9.07044
     2014.04243        -2.36481         9.33246
     2014.04517         0.23294         9.32565
     2014.04791        -2.14131         8.92752
     2014.05065         0.14643         8.87307
     2014.05338        -4.03882         8.95644
     2014.05612        -6.61207         8.97686
     2014.05886        -5.44632         8.97345
     2014.06160        -1.93657         8.95134
     2014.06433        -1.24282         9.25590
     2014.06707         0.90892         9.15891
     2014.06981         2.07467         9.19634
     2014.07255        -2.79458         9.02620
     2014.07529        -1.85183         9.14190
     2014.07802        -5.01708         8.95814
     2014.08076       -12.18033         9.34948
     2014.08350       -12.01459         9.24228
     2014.08624        -3.20784         9.98412
     2014.09017         0.70267        39.05001
     2014.09171        -6.64234         9.52643
     2014.09446        -7.88359         9.89054
     2014.09699       -12.09597        10.57792
     2014.09987        -2.92714         9.80376
     2014.10266        -1.05835         9.58428
     2014.10540        -0.46460         9.02280
     2014.10814        -4.14785         8.94623
     2014.11088        -1.58110         9.15211
     2014.11362        -8.63736         9.14360
     2014.11635         6.77939         9.33246
     2014.11909         1.54514         9.10957
     2014.12183         2.84589         9.11808
     2014.12457         0.03564        12.21982
     2014.12731         9.70039         9.08065
     2014.13004        -3.86387         9.03130
     2014.13278         2.14888         9.30013
     2014.13552        -2.24837         9.40222
     2014.13826         3.38738        10.40948
     2014.14099         1.34913         9.07214
     2014.14373        -2.39012         9.12488
     2014.14647        -1.41838         9.12148
     2014.14921        -8.74563         9.01089
     2014.15195        -8.50788         9.16912
     2014.15468        -2.25713         9.19805
     2014.15742         1.36962         9.17252
     2014.16016         1.19437         9.58428
     2014.16290        -3.21689         9.42774
     2014.16564        -7.20114         9.10447
     2014.16837       -19.76139         9.49580
     2014.17111        -5.03464         9.50090
     2014.17385         0.57611         9.56386
     2014.17659         4.42785         9.25079
     2014.17932         2.53060         9.60129
     2014.18206        -0.82765         9.34607
     2014.18480        -6.88490         9.27631
     2014.18754        -7.93715         9.96710
     2014.19028        -8.76940         9.47028
     2014.19301        -7.48266         9.28142
     2014.19575        -2.73491         9.16232
     2014.19849        -0.52316         9.37159
     2014.20123        -6.71741         9.13509
     2014.20397        -3.20166         9.30524
     2014.20670        -4.19191         9.24228
     2014.20944        -4.04717         9.22187
     2014.21218        -2.10142         9.23548
     2014.21492        -3.56867         9.37670
     2014.21765        -5.86192         9.22527
     2014.22039        -4.06817        13.75453
     2014.22308        -9.25745         9.43285
     2014.22603        -6.92257        10.15766
     2014.22861        -1.43293         9.20485
     2014.23134         5.28482         9.25590
     2014.23408        -3.23343         9.26781
     2014.23682        -5.33868         9.36139
     2014.23956        -5.30393         9.39371
     2014.24230        -6.62219         9.18954
     2014.24501       -11.08445        10.22913
     2014.24787        -1.16563        10.20190
     2014.25051        -2.77594         9.32906
     2014.25325        -7.77019         9.36989
     2014.25598        -1.04444         9.41753
     2014.25872        -2.76470         9.33586
     2014.26146        -2.67295         9.43455
     2014.26420        -6.94120         9.30694
     2014.26694        -9.34845         9.33757
     2014.26967        -2.79870         9.35458
     2014.27241        -5.10196         9.48219
     2014.27515        -4.88221        10.67661
     2014.27789        -8.92246         9.34097
     2014.28062        -5.66171         9.42434
     2014.28336        -7.10896         9.43965
     2014.28610        -3.84521         9.48729
     2014.28884        -3.70347         9.76633
     2014.29158        -9.22672         9.16912
     2014.29431        -2.64797         9.23378
     2014.29705        -1.99622         9.40052
     2014.29979        -7.06047         9.46688
     2014.30253        -6.33572         9.37840
     2014.30527        -1.32098         9.36309
     2014.30800         0.09077         9.29503
     2014.31074        -5.47548         9.46347
     2014.31348        -1.98573         9.41073
     2014.31622         0.07702         9.29163
     2014.31895        -3.95723         9.26270
     2014.32169       -10.06649         9.39882
     2014.32443       -20.92774         9.79526
     2014.32717       -15.94799         9.65063
     2014.32991        -8.01624         9.27291
     2014.33264        -6.10949         9.24909
     2014.33538        -8.50774         9.24058
     2014.33812        -1.42600         9.47708
     2014.34086        -0.94825         9.50090
     2014.34360        -5.85950         9.31715
     2014.34633        -3.56875         9.17763
     2014.34907        -5.28100         9.36819
     2014.35181        -1.53026         9.53663
     2014.35455        -3.22151         9.27631
     2014.35728        -7.28876         9.36139
     2014.36002       -13.57701         9.32225
     2014.36276       -14.54926         9.26781
     2014.36550        -9.22651         9.29673
     2014.36824       -13.76877         9.44986
     2014.37097        -4.17202         9.57577
     2014.37371        -1.40627         9.44986
     2014.37645        -3.66452         9.35798
     2014.37919        -0.51877         9.28992
     2014.38193       -12.51402         9.32225
     2014.38466        -5.96328         9.40392
     2014.38740        -8.37053         9.41583
     2014.39014        -5.60678         9.40392
     2014.39288        -3.87603         9.42774
     2014.39561        -3.81428         9.34948
     2014.39835        -3.10753         9.57917
     2014.40109        -7.97579         9.45667
     2014.40383        -6.80704         9.34097
     2014.40657        -7.74929         9.42434
     2014.40930        -9.87254         9.25249
     2014.41204        -2.74379         9.25930
     2014.41478        -8.80904         9.39371
     2014.41752        -7.25930         9.32906
     2014.41917        28.15276        25.49795
     2014.43397        -4.75279         9.29843
     2014.43668        -4.16906         9.42264
     2014.43942         1.63469         9.32225
     2014.44216        -8.11856         9.24569
     2014.44490         1.35019         9.51962
     2014.44763         4.21793         9.43455
     2014.45037        -5.98932         9.17593
     2014.45311        -3.91257         9.06363
     2014.45585        -4.37582         9.08915
     2014.45859        -6.36607         9.18103
     2014.46132        -7.63932         9.15041
     2014.46406        -2.32558         9.16061
     2014.46680        -3.66983         9.29163
     2014.46954        -5.72608         9.17082
     2014.47227        -4.28133         9.24228
     2014.47501        -4.69558         9.37840
     2014.47775        -1.93083         9.14530
     2014.48049         1.73191         9.16232
     2014.48323        -2.46534         9.18443
     2014.48596        -0.69459         9.20145
     2014.48870         3.03116         9.34777
     2014.49144         1.98891         9.16232
     2014.49418        -6.02134         9.08915
     2014.49692        -6.92760         9.10106
     2014.49965       -10.38285         9.18443
     2014.50239        -7.46210         9.33586
     2014.50513        -0.77735         9.44306
     2014.50787         4.12540         9.17423
     2014.51060        -3.07785         9.11297
     2014.51334         1.18789         9.25760
     2014.51608         2.80264         9.18273
     2014.51882        -0.82861         9.19464
     2014.52156         5.95314         9.42434
     2014.52429         1.96389         9.17763
     2014.52703         1.14364         9.16402
     2014.52977        -5.21862         9.19294
     2014.53251         0.11313         9.21676
     2014.53525        -1.64912         9.48049
     2014.53778         4.44550         9.82418
     2014.55250        -1.74410        14.76179
     2014.55441        -1.46288         9.22016
     2014.55715         1.82887         9.39371
     2014.55989         4.19461         9.24569
     2014.56262         0.77936         9.15211
     2014.56536        -0.24689         9.26100
     2014.56810         0.43186         9.29673
     2014.57084        -2.64639         9.21676
     2014.57357        -2.24764         9.11467
     2014.57631         2.49310         9.15551
     2014.57905         3.62685         9.17763
     2014.58179         1.64560         9.32565
     2014.58453         3.82735         9.43795
     2014.58726        -2.96290         9.83099
     2014.59000         5.19085         9.42094
     2014.59274         3.80459         9.33416
     2014.59548         5.57834         9.28482
     2014.59822         5.33509         9.42094
     2014.60095         2.21484         9.42434
     2014.60369         3.03259         9.18614
     2014.60643        -2.42666         9.21166
     2014.60917         5.63308         9.24739
     2014.61190         4.85083         9.55365
     2014.61464        14.70858         9.51111
     2014.61738         8.67633         9.52983
     2014.62012         4.27308         9.58087
     2014.62286         7.43082         9.21336
     2014.62559         6.27457         9.25079
     2014.62833         6.01832         9.28312
     2014.63107         6.64107         9.40392
     2014.63381        12.09582         9.81227
     2014.63655        11.92357         9.32906
     2014.63928        12.97731         9.62681
     2014.64202        -0.76594         9.23548
     2014.64476        -0.45819         9.23718
     2014.64750         2.41456         9.23037
     2014.65023         2.28131         9.21676
     2014.65297        11.41506         9.16912
     2014.65571         7.79380         9.26951
     2014.65845         9.29755         9.14870
     2014.66119         7.72630         9.29163
     2014.66392        12.96705         9.20655
     2014.66666        15.94880         9.16061
     2014.66940        11.93155         9.11978
     2014.67214        10.63229         9.33757
     2014.67488        -0.64096         9.09596
     2014.67761        -4.58921         9.15211
     2014.68035         1.57854         9.20485
     2014.68309        -2.38971         9.11638
     2014.68583         1.34504         9.25590
     2014.68856         4.90778         9.33757
     2014.69130         1.58353         9.27461
     2014.69404        -0.46272         9.25590
     2014.69678         0.91103         9.08235
     2014.69952         2.44578         9.11808
     2014.70225         1.63153         9.11978
     2014.70499         2.15827         9.17763
     2014.70773         5.58002         9.09085
     2014.71047         8.77877         9.11638
     2014.71321        10.49852         8.98366
     2014.71594         8.73727         9.17593
     2014.71868         5.74601         9.04321
     2014.72142         3.74676         9.21506
     2014.72416         9.63551         9.06023
     2014.72689        11.44526         9.16572
     2014.72963         3.61101         9.08235
     2014.73237         3.15376         9.30354
     2014.73511         3.43350         9.18784
     2014.73785         1.41125         9.11467
     2014.74058         3.17600         9.07724
     2014.74332         7.09375         9.30864
     2014.74606        18.52750         9.26100
     2014.74880         6.32825         9.10957
     2014.75154         5.02999         9.38861
     2014.75427         6.14074         9.18103
     2014.75701         4.19649         9.37330
     2014.75975         6.65224         9.42774
     2014.76249         6.33699         9.07214
     2014.76522         1.72274         9.16232
     2014.76793         5.45547         9.37670
     2014.77002         5.06880        12.60946
     2014.79021        -0.35031        10.70383
     2014.79260         3.66022         9.03130
     2014.79534         9.05097         9.16402
     2014.79808         5.55072         9.39031
     2014.80082         6.65246         9.18443
     2014.80355         7.47521         9.55365
     2014.80629         1.25996         9.45156
     2014.80903         8.59771         9.28992
     2014.81177         4.82146         9.19464
     2014.81451         5.21920         9.18614
     2014.81724         8.86395         9.21676
     2014.81998         8.64770         9.20485
     2014.82272         8.61045         9.32395
     2014.82546         3.12320         9.44816
     2014.82820        -0.45305         9.05002
     2014.83093         4.49269         9.26951
     2014.83367         8.54044         9.16572
     2014.83641         7.45619         9.17933
     2014.83915         1.42094        10.21041
     2014.84188         9.37169         9.33757
     2014.84462        -3.52256         9.47538
     2014.84736         4.27918         9.38010
     2014.85010         5.73593         9.19975
     2014.85284         2.06368         9.14360
     2014.85557         5.00143         9.25419
     2014.85831         4.62118         9.40903
     2014.86105        -2.82607         9.14870
     2014.86379        -4.09633         9.27631
     2014.86653        -0.15758         9.19294
     2014.86926        -1.76683         9.12999
     2014.87200        -0.52108         9.26100
     2014.87474        -3.03733         9.17763
     2014.87748        -3.31458         9.26951
     2014.88021         1.63416         9.23548
     2014.88295         3.18691         9.20655
     2014.88569        -8.50834         9.58257
     2014.88843        -2.18559         9.56896
     2014.89117        14.21816         9.58768
     2014.89390         3.13890         9.33927
     2014.89664         5.07365         9.37500
     2014.89938        -9.13460         9.32225
     2014.90212        -7.00985         9.27631
     2014.90485        -3.92210         9.05683
     2014.90759        -2.59435         9.77994
     2014.91033         9.68039         9.08065
     2014.91307         5.58314         9.07724
     2014.91581         3.09289         9.15381
     2014.91854         6.80064         9.05512
     2014.92128        -0.05061         9.10447
     2014.92402         3.33714         9.07044
     2014.92676        -4.23912         9.07044
     2014.92950        -8.23937         9.09085
     2014.93223        -5.32962         9.06533
     2014.93497        -2.87587         9.00578
     2014.93771        -2.37812         9.34437
     2014.94045         3.51463         9.11808
     2014.94318         7.65437         9.45326
     2014.94592         2.78512         9.18784
     2014.94866        -1.49413         9.05683
     2014.95140        -2.76138         8.93432
     2014.95414         0.08637         9.03130
     2014.95687         6.51312         9.08575
     2014.95961         3.64986         9.06533
     2014.96235        -1.23139         9.03811
     2014.96509         5.02936         9.19294
     2014.96783         0.12011         9.12148
     2014.97056         6.48586         9.14020
     2014.97330         0.16861         9.09936
     2014.97604        -4.25165         9.16232
     2014.97878        -1.91490         9.05342
     2014.98151         7.23785         9.16742
     2014.98425         0.06160         9.27972
     2014.98699         0.55035         9.08065
     2014.98973        -2.96391         8.95984
     2014.99247        -8.14716         8.97345
     2014.99520       -11.66741         8.90199
     2014.99794        -3.76166         8.93602
     2015.00068        -4.05191         8.92752
     2015.00342        -7.18816         8.82713
     2015.00616       -17.84842         8.90710
     2015.00889       -18.51267         9.03641
     2015.01163       -16.06292         9.11978
     2015.01437       -10.31617         9.14700
     2015.01711        -4.20942         9.69487
     2015.01984        -1.96467         9.10106
     2015.02258        -1.21493         9.17423
     2015.02532        -0.28018         8.99727
     2015.02806        -6.10843         9.17763
     2015.03080         0.38732         9.05002
     2015.03353        -6.50993         9.07384
     2015.03627        -2.94118         9.09426
     2015.03901         1.92856         9.07384
     2015.04175         0.07331         9.09256
     2015.04449        -0.72894         9.04662
     2015.04722        -1.47819         9.34437
     2015.04996        -7.35944         9.34777
     2015.05216        -2.22904        11.94419
     2015.07857       -21.29318        29.44702
     2015.08008       -10.03321         9.03811
     2015.08282        -3.16046         8.96835
     2015.08555        -2.98172         9.04492
     2015.08829        -9.49397         9.07044
     2015.09103       -17.09722         9.08405
     2015.09377        -1.30147         9.02790
     2015.09585        -5.77114        12.80172
     2015.11960        -8.50598        28.19305
     2015.12115        -4.55599         9.11808
     2015.12388        -5.33524         8.98026
     2015.12662        -6.92949         8.94963
     2015.12936        -3.40274         9.03811
     2015.13210        -5.72599         9.10957
     2015.13483        -1.21525         9.22867
     2015.13757        -3.46350         9.06703
     2015.14031        -7.90175         9.01939
     2015.14305        -4.79900         8.91731
     2015.14579        -3.89325         9.05853
     2015.14852         1.01950         9.15211
     2015.15126        -4.18276         9.00748
     2015.15400        -3.72601         9.00238
     2015.15674         2.88674         8.92241
     2015.15948         2.10449         9.06703
     2015.16221        -1.37076         9.03811
     2015.16495        -2.19102         9.15721
     2015.16769        -3.44227         8.95984
     2015.17043        -3.12052         9.05853
     2015.17316        -4.45977         9.50261
     2015.17590        -5.30902         9.30354
     2015.17864        -3.89927         9.15211
     2015.18138        -0.59453         9.05002
     2015.18412         1.39422         9.00578
     2015.18685         2.78297         9.04662
     2015.18959        -0.90028         9.21336
     2015.19233        -2.49953        10.01134
     2015.19507        -3.36878         9.09426
     2015.19780        -2.21204         9.14530
     2015.20054        -2.46129         9.96880
     2015.20328        -6.15054         8.92581
     2015.20602       -11.89479         9.70848
     2015.20876        -3.01304         9.13169
     2015.21149        -7.73729         9.04151
     2015.21423        -6.90655         9.40052
     2015.21697        -7.39580         9.12318
     2015.21971        -9.10405         9.07214
     2015.22245        -3.92630         9.16742
     2015.22518         0.01145         9.08915
     2015.22792        -5.30880         9.06533
     2015.23066        -5.18506         9.08405
     2015.23340        -4.63331         9.19805
     2015.23613        -1.82556         9.40562
     2015.23887        -0.73981         9.42434
     2015.24161         2.97894         9.62681
     2015.24435        -7.30631         9.47368
     2015.24709        -6.23657         9.35458
     2015.24982        -4.30282         9.06023
     2015.25256        -5.90607         9.12999
     2015.25530         0.70668         9.07044
     2015.25804        -0.88757         9.03811
     2015.26078        -4.68683         9.03981
     2015.26351        -3.38008         9.02620
     2015.26625        -0.91233         9.18273
     2015.26899        -0.38858         9.19464
     2015.27173         8.92617         9.36989
     2015.27446         5.00592         9.42264
     2015.27720         4.83866         9.11127
     2015.27994        -2.54159         9.12318
     2015.28268        -2.06984         9.07214
     2015.28542        -2.06209         9.20996
     2015.28815        -3.95734         9.56386
     2015.29089        -0.87159         9.08915
     2015.29363        -1.98785         9.12318
     2015.29637        -2.21110         9.02280
     2015.29911         1.92765         9.07044
     2015.30184         4.16540         9.11127
     2015.30458         2.60815         9.23888
     2015.30732        -1.10510         9.12318
     2015.31006         7.32264         8.80841
     2015.31279         0.80539         8.87307
     2015.31553        -4.87686         8.99047
     2015.31827        -9.90511         9.01769
     2015.32101        -6.89236         8.83053
     2015.32375        11.51439         9.24909
     2015.32648         0.56713         9.10447
     2015.32922        -1.52012         9.09936
     2015.33196         4.83963         8.88158
     2015.33470        -4.66762         8.85946
     2015.33744        -3.53487         8.86796
     2015.34017        -3.94713         8.98366
     2015.34291         0.04562         8.89178
     2015.34566         0.50538         8.93432
     2015.34839        -1.58188         8.87817
     2015.35112        -7.61313         8.83053
     2015.35386        -1.95238         8.86796
     2015.35660        -3.07064         8.91220
     2015.35934         0.32111         9.02790
     2015.36208        -2.17314         8.99727
     2015.36481        -2.69239         8.79821
     2015.36755        -3.62964         8.77438
     2015.37029         4.57311         8.93772
     2015.37303        -7.94215         8.89689
     2015.37577        -4.11940         8.92241
     2015.37850        -7.87365         9.20145
     2015.38124        -3.42190         8.74206
     2015.38398        -4.19015         9.04321
     2015.38672        -0.27040         9.02620
     2015.38945        -2.81666         8.97345
     2015.39219        -3.57991         8.96835
     2015.39493         3.09484         9.04492
     2015.39767        -4.03941         9.08745
     2015.40041        -1.28766         9.14360
     2015.40314        -1.92791         9.33076
     2015.40588        -6.64817         9.05002
     2015.40862        -1.54642         9.19805
     2015.41136        -1.20867         8.87987
     2015.41410        -3.01792         8.99047
     2015.41683         1.13683         9.21166
     2015.41957        -7.49942         8.90540
     2015.42231        -5.18368         8.95474
     2015.42505        -6.63893         9.17763
     2015.42778        -3.98618         8.84755
     2015.43052         1.13557         9.04151
     2015.43326        -3.14468         9.00918
     2015.43600        -3.96694         9.19294
     2015.43874         3.82481         9.17082
     2015.44147        -3.58344         9.25760
     2015.44421         3.22831         9.35118
     2015.44695        -1.37094         9.29163
     2015.44969        -6.47319         9.48559
     2015.45243         2.99155         9.46347
     2015.45516        -0.53370         9.15551
     2015.45790         2.64805         9.21676
     2015.46064         2.84180         9.35118
     2015.46338        -0.31645         9.17423
     2015.46611         3.67330         9.14360
     2015.46885         2.09004         8.97345
     2015.47159         0.64279         8.83053
     2015.47433         1.22454         9.17933
     2015.47707        -0.73871         9.11297
     2015.47960         1.53391         9.44306
     2015.55183         3.82003        15.95281
     2015.55373         6.90024         9.33757
     2015.55646        12.05999         9.53663
     2015.55920        14.93874         9.76123
     2015.56191         3.05746        14.51338
     2015.56580         1.85295        27.00203
     2015.56741         4.52098        10.23083
     2015.57015        10.41373         9.96540
     2015.57289         6.02848        10.10152
     2015.57563         1.06223        10.62046
     2015.57837         3.79398         9.76293
     2015.58110         2.99172        13.07225
     2015.58384         8.71747         9.99773
     2015.58658        11.75122        10.13725
     2015.58932        11.27497         9.84970
     2015.59206        11.09372         9.87522
     2015.59479        10.88747         9.87693
     2015.59753        11.85521        12.35424
     2015.60027        12.36996         9.78505
     2015.60301        13.61171         9.76633
     2015.60574        10.80646         9.72379
     2015.60848        14.34521         9.73060
     2015.61122         6.75495         9.71699
     2015.61396        13.45770         9.75953
     2015.61670        20.62145        11.67025
     2015.61943        12.91120         9.39201
     2015.62217        15.81295        12.27597
     2015.62491        13.53470         9.44135
     2015.62765         9.88544         9.46347
     2015.63039        13.39719        11.91016
     2015.63312         8.84694         9.65574
     2015.63586        22.84869         9.33246
     2015.63859        11.78543        11.84040
     2015.64134         4.41019         9.15551
     2015.64407        10.73893        10.67831
     2015.64681        11.94968         9.74591
     2015.64955        13.40443         9.36139
     2015.65229        11.65918         9.48389
     2015.65503        15.79093         9.44986
     2015.65776        15.29568         9.65063
     2015.66050        14.87342         9.43795
     2015.66324        13.70917         9.35628
     2015.66598         5.00992         9.40732
     2015.66872        12.73867         9.65404
     2015.67145        10.72942         9.38521
     2015.67304        18.04043        21.07248
     2015.67693        11.42291         9.20825
     2015.67967         8.71066         9.44986
     2015.68240        14.14241        15.70269
     2015.68514         4.95816        15.03062
     2015.68788         3.12091         9.38691
     2015.69062         7.63966        10.80251
     2015.69336         9.88140         9.60469
     2015.69609        16.63015        11.16152
     2015.69883        16.46090         9.46177
     2015.70157        11.65465         9.49240
     2015.70358        18.70093        13.54696
     2015.70811        20.05082        20.60287
     2015.70978        13.54989        18.44884
     2015.71252        13.41964        15.33688
     2015.71526        15.72939        12.72345
     2015.71800        15.74314        12.27597
     2015.72073        18.33789         9.81567
     2015.72347        18.79363        12.94294
     2015.72621         6.99838        11.38271
     2015.72895         0.11413        11.16152
     2015.73169         7.69088        10.82974
     2015.73442         6.84563         9.40052
     2015.73704         9.68030        11.05433
     2015.73992        13.91514        10.11343
     2015.74264        12.76687        11.21937
     2015.74538        14.56762        10.60344
     2015.74811         9.41337        10.07770
     2015.75085         2.60812        10.11173
     2015.75359         2.69387         9.29163
     2015.75633        11.60661         9.97391
     2015.75906        10.85936        10.14235
     2015.76180         4.07711         9.92457
     2015.76454         6.30586         9.31374
     2015.76728         4.35361         9.26610
     2015.77002         8.53236         9.85651
     2015.77275        14.69410         9.25249
     2015.77549         6.06985         9.29843
     2015.77823        14.99260        10.69702
     2015.78097        11.01835         9.36309
     2015.78371         5.24810        10.02665
     2015.78644        12.35085        10.39587
     2015.78918         9.21859         9.71359
     2015.79192        10.49034         9.38691
     2015.79466        11.72309         9.75442
     2015.79739         9.84684         9.16912
     2015.80013         9.26859        10.16277
     2015.80287         3.30033         9.66935
     2015.80561        11.16608        10.41458
     2015.80835         4.50283        12.27427
     2015.81108         0.49158         9.96710
     2015.81382         5.88833         9.74761
     2015.81656         5.07508         9.29503
     2015.81930         5.71682         9.70678
     2015.82203         7.95457         9.46517
     2015.82477        11.29632         9.42944
     2015.82751        15.76807         9.34097
     2015.83025        13.24482         9.56726
     2015.83299         7.90557         9.71018
     2015.83572        10.82731         9.57577
     2015.83846         3.02106         9.71018
     2015.84120         5.46481         9.59278
     2015.84394         5.64756         9.79355
     2015.84668         2.24631         9.72209
     2015.84941        10.83206         9.75953
     2015.85215         7.59280         9.39201
     2015.85489        11.19755        10.18659
     2015.85763         7.04630         9.62001
     2015.86036         8.57505         9.90415
     2015.86310         6.26780         9.56726
     2015.86584         8.48255         9.58598
     2015.86858         0.04629         9.47368
     2015.87132         9.98504         9.50601
     2015.87405        10.84279        11.41504
     2015.87679         5.03354        10.10152
     2015.87953         8.97729        10.56091
     2015.88227         5.67203        10.33291
     2015.88501        -3.25222        12.13475
     2015.88774         0.28053         9.47879
     2015.89048         4.52628         9.39201
     2015.89322         9.02303         9.57577
     2015.89596         3.96478         9.50090
     2015.89869         3.73752         9.60810
     2015.90143        -0.03373         9.27972
     2015.90417        -1.88198         9.27631
     2015.90691         4.69377         9.40562
     2015.90965         4.11852         9.97561
     2015.91238         2.98127         9.52983
     2015.91512         2.79401         9.56896
     2015.91786         0.53776         9.50431
     2015.92060         1.38751         9.56216
     2015.92334         6.48126         9.95009
     2015.92607         1.86501        10.09641
     2015.92881        -3.43424         9.82418
     2015.93155         4.58150        10.14916
     2015.93429       -20.58075         9.70168
     2015.93702         6.54600         9.67786
     2015.93976         7.49975         9.69657
     2015.94250         7.67550         9.66084
     2015.94524         1.07025         9.57747
     2015.94798         2.46899         9.58087
     2015.95071        11.07174         9.44816
     2015.95345         7.15449         9.50431
     2015.95619         3.70824         9.47538
     2015.95893        -4.25001        15.23820
     2015.96167        -0.63126         9.71188
     2015.96440         6.21848         9.61830
     2015.99827        -4.60289        20.40721
     2016.00000        -2.61479         9.44476
     2016.00273        -5.09704         9.47368
     2016.00547        -5.45829         9.43114
     2016.00821        -9.71154         9.52132
     2016.01095         3.71320         9.61660
     2016.01368        -2.85005         9.37500
     2016.01642         1.27370         9.57407
     2016.01916        -0.76555         9.90415
     2016.02190        -0.04080         9.51452
     2016.02464        -0.97605         9.29163
     2016.02737        -0.87331         9.49240
     2016.03011        -3.76256         9.23548
     2016.03285        -8.75081         9.38180
     2016.03512         1.91164        11.62772
     2016.06403         4.71510        20.38509
     2016.06570         0.83917         9.17933
     2016.06844        -1.75308         9.18273
     2016.07118        -1.95433        10.07599
     2016.07342        -3.57890        13.63373
     2016.09692         3.75511        23.27415
     2016.09856       -14.13285         9.20145
     2016.10130       -10.65510         9.08915
     2016.10403       -10.51335         9.31374
     2016.10677        -8.25161         9.08235
     2016.10951        -7.36986         9.15551
     2016.11225        -9.43411        10.03346
     2016.11498        -7.81236         9.15041
     2016.11772        -8.82861         9.24058
     2016.12046       -13.87886         9.94498
     2016.12320         7.00788         9.04662
     2016.12594        -3.51937         9.00068
     2016.12867         5.18638         8.99217
     2016.13141         5.84313         9.08235
     2016.13415         7.67188         9.13850
     2016.13689        -1.45437        10.00624
     2016.13957        -4.93766         9.24569
     2016.14239        -9.85086         9.18103
     2016.14510        -8.92713         9.01769
     2016.14784       -10.84238         9.11808
     2016.15058        -7.03063         9.02620
     2016.15331        -4.13889         9.22867
     2016.15605        -2.95114         9.03130
     2016.15879        -2.98039         9.01259
     2016.16153        -7.37864         9.25419
     2016.16427        -4.39389         8.99727
     2016.16700        -9.78814         9.04321
     2016.16974        -3.96640         8.92581
     2016.17248        -0.92765         9.09936
     2016.17522        -4.43090         9.04151
     2016.17796         1.52785         9.08405
     2016.18069         0.00160         9.31034
     2016.18343        -6.27665        10.59834
     2016.18617        -6.23591         9.04492
     2016.18891         0.80384         8.87137
     2016.19164         0.67159         8.95474
     2016.19438         1.08834         8.84925
     2016.19712         1.35909         8.85435
     2016.19986         1.88184         9.31545
     2016.20260        -5.81342         9.54684
     2016.20533        -2.10567         9.73570
     2016.20807        -3.92492         9.29673
     2016.21081       -11.55117         9.19805
     2016.21355        -6.75242         9.17763
     2016.21629        -4.04867        10.31420
     2016.21902        -1.40493         8.93602
     2016.22176         2.28182         8.90199
     2016.22450        -6.44443         9.04321
     2016.22724        -7.60968         9.24058
     2016.22997        -3.09793         8.86116
     2016.23271        -4.03818         8.88158
     2016.23545        -6.79044         8.91220
     2016.23819       -10.25969         8.86967
     2016.24093        -3.46094         9.02790
     2016.24366        -3.77619         8.83904
     2016.24640         1.25156         9.00748
     2016.24914        -3.26770         8.94963
     2016.25188         3.60505        10.27166
     2016.25462        -3.57820         9.46858
     2016.25735        -9.76045         8.87307
     2016.26009        -6.96170         9.11978
     2016.26283       -12.31895         9.05342
     2016.26557        -6.18721         8.97005
     2016.26830        -5.09446         8.97856
     2016.27104         0.93629         9.04662
     2016.27378         4.75104         8.93602
     2016.27652        -4.22721         9.00748
     2016.27926        -0.01146         9.33246
     2016.28199        -3.75172        10.13555
     2016.28473        -2.05097         8.84925
     2016.28747        -6.55922         9.58768
     2016.29021        -8.96447         8.92752
     2016.29295        -9.75472         9.04492
     2016.29568       -10.02597         8.99387
     2016.29842        -0.80923         9.11127
     2016.30116        -3.53248         9.08575
     2016.30390       -10.00773         9.05002
     2016.30663         4.28502         9.20996
     2016.30937         2.69877         9.13339
     2016.31211        -1.47048         8.93772
     2016.31485         0.66326         8.98196
     2016.31759         0.20301         8.94283
     2016.32032        -6.94424         8.97345
     2016.32306        -7.56649         9.09085
     2016.32580        -6.54374         9.03130
     2016.32854        -3.63799         8.92071
     2016.33128        -7.23425         8.98026
     2016.33401        -8.67750         8.99898
     2016.33675        -5.91575         9.10106
     2016.33949        -3.50400         9.13169
     2016.34223         1.53575         9.28652
     2016.34496        -6.11551         9.29503
     2016.34770        -2.50076         9.09596
     2016.35044         0.37699         9.53323
     2016.35318        -4.25126         9.29163
     2016.35592        -4.22251        10.14065
     2016.35865       -12.40576         9.81737
     2016.36139        -5.47902         8.97175
     2016.36413         2.11473         9.11638
     2016.36687        -2.72452         9.11127
     2016.36961         9.78523         8.98366
     2016.37234         7.08598         8.96835
     2016.37508         0.81173         9.06363
     2016.37782        -5.29253         8.84585
     2016.37978         3.05073        14.69714
     2016.39513        -1.33347        14.92173
     2016.39698        -0.98829         9.10787
     2016.39972         3.96046         8.95474
     2016.40246        -1.24679         9.25590
     2016.40520        -1.17504         9.07724
     2016.40794        -4.57029         8.97345
     2016.41067        -7.13355         9.16742
     2016.41341        -9.91780         9.06703
     2016.41615        -5.58905         8.95474
     2016.41889        -4.73630         9.24739
     2016.42162         1.29145         9.05342
     2016.42436       -12.16581         9.04321
     2016.42710        -6.01706         9.06703
     2016.42984        -4.39431         9.24569
     2016.43258        -1.53356         9.23888
     2016.43521         3.39712         9.80376
     2016.43805         4.77694         9.14530
     2016.44079        -2.98632         9.24569
     2016.44355        -3.09855         9.03981
     2016.44626        -7.21982         9.32395
     2016.44900        -5.17907         9.13679
     2016.45174        -0.19732         9.08915
     2016.45448         0.27543         9.00068
     2016.45722         4.57717         8.90199
     2016.45995         3.75792         8.95134
     2016.46269         1.05467         9.15551
     2016.46543        -5.60858        10.24104
     2016.46817        -5.90983         8.88498
     2016.47091        -0.26508         9.21676
     2016.47364        -4.18634         9.04662
     2016.47637         6.00740         9.15211
     2016.47867         5.60388        15.47640
     2016.48190        -0.42306         9.67445
     2016.48459        -5.62734         9.10106
     2016.48733        -7.37759         9.01429
     2016.49007         3.04015         9.16572
     2016.49281         5.06790         9.09085
     2016.49555        -2.65635         9.20655
     2016.49828         1.87740         9.06193
     2016.50102         1.62415         9.12829
     2016.50376         7.79990         9.36309
     2016.50650         6.57564         9.33586
     2016.50924         0.74039         9.05172
     2016.51197        -1.36086         9.11297
     2016.51471        -0.52611         9.11638
     2016.51745         2.27264         9.37159
     2016.52019         1.36038         9.30524
     2016.52292         0.77613         9.07554
     2016.52566         2.87488         8.92241
     2016.52840         1.72563         9.20315
     2016.53114        -1.00162         8.97686
     2016.53388        -3.85787         8.95644
     2016.53660         5.18687         9.21166
     2016.53936         0.17463         9.22867
     2016.54209         0.19837         9.11978
     2016.54483         2.72112         9.08575
     2016.54757         4.55587         8.98026
     2016.55030         1.06662         9.39882
     2016.55304         4.11636         9.05512
     2016.55578        11.24211         9.53323
     2016.55852         2.35986         9.21676
     2016.56125         2.54061         9.33246
     2016.56399        -0.70864         9.13850
     2016.56673         3.81911         9.09426
     2016.56947        -1.49315         9.67786
     2016.57221        16.17960         9.27461
     2016.57495         7.54935         9.23208
     2016.57768         9.89010         9.54684
     2016.58042         6.97885         9.36309
     2016.58316         7.36060         9.03471
     2016.58590         6.66835         9.53663
     2016.58863         4.66509         9.67275
     2016.59137         1.36984         9.29333
     2016.59411         5.06659         9.93137
     2016.59685        12.32434         9.07384
     2016.59958         4.35508         9.17252
     2016.60232         5.65883         9.20825
     2016.60506         6.66758         9.29333
     2016.60780         7.01133         9.03301
     2016.61054         1.18708         9.21676
     2016.61327         2.56283         9.03301
     2016.61601         0.56957         9.01769
     2016.61875         4.64132         9.24909
     2016.62149         5.53207         9.05172
     2016.62423         5.42182         9.13509
     2016.62696         8.44657         9.02110
     2016.62970         8.09132         9.19805
     2016.63244         6.77906         9.24909
     2016.63518         2.70081         9.10787
     2016.63791        13.92156         9.20315
     2016.64065        10.93531         9.19464
     2016.64339         6.78906         9.19464
     2016.64613         7.76381         9.11638
     2016.64887         3.24255         9.21336
     2016.65183         9.79045        10.11683
     2016.65434         4.84905         9.08745
     2016.65708         1.10380         9.25760
     2016.65982         5.89255         9.08065
     2016.66256         1.33130         9.17933
     2016.66529         4.57404         9.20485
     2016.66803        11.13679         9.22697
     2016.67077        10.74954         9.33076
     2016.67351        10.73329         9.01429
     2016.67624         7.47604         9.00238
     2016.67898         8.93679         9.10787
     2016.68172        17.19453         9.01259
     2016.68446        14.91128         9.45497
     2016.68720         4.64103         9.84800
     2016.68993         6.69578         9.05172
     2016.69267         7.07053         9.11297
     2016.69541        18.00827         9.08235
     2016.69815        13.21302         9.00408
     2016.70089         5.95477         9.08745
     2016.70362        11.80952         9.25249
     2016.70636         8.98027         9.53663
     2016.70910         9.94902         9.38521
     2016.71184        16.44076         9.14020
     2016.71457         8.96351         9.21506
     2016.71731        14.21826         9.13169
     2016.72005        11.11901         9.38691
     2016.72279        11.52976         9.01429
     2016.72553        11.43451         9.55705
     2016.72826        13.50525         9.37670
     2016.73100        11.07900         9.05683
     2016.73374         5.32475         9.38010
     2016.73648         6.42250         8.96154
     2016.73924         3.73527         9.17763
     2016.74195         6.34400         9.10447
     2016.74471         7.35476         9.07554
     2016.74743         9.25649         9.27631
     2016.75017         7.03024         9.11808
     2016.75290        11.23299         8.89349
     2016.75564        12.47174         8.94623
     2016.75838        13.66049         9.07554
     2016.76112        12.00423         8.95984
     2016.76386        11.18398         8.97005
     2016.76659         7.96973         9.03301
     2016.76933         7.54748         9.12659
     2016.77207         8.96323         9.14020
     2016.77481         7.68998         9.05512
     2016.77754         2.96372         9.02280
     2016.78028         2.99547         9.12148
     2016.78302        -0.61378         8.97005
     2016.78576         1.39597         9.40052
     2016.78850        14.30072         9.03471
     2016.79123         9.01446         9.26100
     2016.79397        13.81121         9.33076
     2016.79671         4.20096         9.12659
     2016.79945         0.67771         8.84074
     2016.80219        -3.32654         8.96154
     2016.80492         5.95621         9.04151
     2016.80766         5.00495         9.02790
     2016.81040        -1.52130         9.26610
     2016.81314        -0.73855         9.08065
     2016.81587         1.50620         9.52132
     2016.81861        -3.82005         9.22357
     2016.82135         0.98570         9.07214
     2016.82409         3.08044         9.16912
     2016.82683        -2.24181         9.10276
     2016.82956         5.97094         9.58938
     2016.83230         7.60569         8.97175
     2016.83504         5.70244         9.26100
     2016.83778         7.64719         9.28142
     2016.84052        -6.60407         9.06874
     2016.84325        -2.88032         9.17763
     2016.84600         1.15343         9.18273
     2016.84872         3.33418         9.48389
     2016.85146        -3.09408         9.60299
     2016.85420        -6.81832         9.64893
     2016.85694         2.37742         9.46517
     2016.85968         1.25817         9.58257
     2016.86242        -3.48608         9.25419
     2016.86516         8.56167         9.84970
     2016.86789         2.13841         9.33076
     2016.87063         3.54916         9.44476
     2016.87337         9.97291         9.53153
     2016.87611         8.33666         9.49920
     2016.87884         4.28441         9.40903
     2016.88159        -4.40584         9.25079
     2016.88432        -6.55309         9.38521
     2016.88706         1.09965         9.37159
     2016.88980         3.54540         9.26100
     2016.89253         4.04615         9.23208
     2016.89527        -4.24810         9.39031
     2016.89801        -0.28235         9.20485
     2016.90075        -2.50060         9.27461
     2016.90349         2.91214         9.44476
     2016.90622         8.42189         9.63192
     2016.90896         6.53264         9.37500
     2016.91169         3.89739         9.41753
     2016.91444         0.33814        10.13895
     2016.91717        -7.93212        11.61751
     2016.91993        -6.02536        12.74557
     2016.92266       -11.05061        11.71960
     2016.92541         4.38315        11.98162
     2016.92814        -1.75312        13.72561
     2016.93086        -6.58537        11.88804
     2016.93360        -9.43562        12.15857
     2016.93634        -5.10588        11.54945
     2016.93910        -1.87711        12.41889
     2016.94182        -2.82238        11.71790
     2016.94449       -15.05467        15.81329
     2016.94731        -4.17787        12.03607
     2016.95001        -4.88015        18.65641
     2016.95368         7.67820        22.92876
     2016.95546        -2.47667        12.98378
     2016.95824        -2.43689        10.01134
     2016.96098        -0.92014         9.90585
     2016.96372        -5.27439         9.42604
     2016.96646        -0.78865         9.28992
     2016.97195        -1.71414         9.42944
     2016.97467         5.81960         9.33076
     2016.97741         1.71835         9.23037
     2016.98015        -5.04690         9.38861
     2016.98288        -4.06316         9.43795
     2016.98562         0.42559         9.49750
     2016.98791        -3.91395        11.62602
     2016.99218         3.25078        19.40335
     2016.99315        -2.96060        14.67842
     2016.99763         9.77226        18.05750
     2016.99932         0.11734         9.35118
     2017.00074       -24.77476       775.23864
     2017.00479       -29.86317        26.05092
     2017.00752       -15.64542        14.97617
     2017.01300         0.62008        11.54605
     2017.01574         0.35482         9.08915
     2017.01848        -0.19843         9.26610
     2017.02121        -4.31368         9.21676
     2017.02395        -2.97293         9.20315
     2017.02669        -3.43618         9.37159
     2017.02943         1.87057         9.14020
     2017.03216        -3.96169         9.03471
     2017.03490        -2.30294         9.00578
     2017.03765        -6.75719         9.16232
     2017.04037        -5.23044         9.08915
     2017.04312        -5.04269         9.15041
     2017.04585         1.19006         9.47879
     2017.04859         0.36180         9.72890
     2017.05133        11.28555         9.11808
     2017.05407        10.86330         9.18273
     2017.05681         9.74005         9.05002
     2017.05954        -1.36020         9.19975
     2017.06228        -7.75746         9.08745
     2017.06502        -4.18871         9.10617
     2017.06776        -4.38996         9.39201
     2017.07049        -2.92621         9.08065
     2017.07323        -7.66946         9.11297
     2017.07597       -12.01971         9.03981
     2017.07871        -9.45897         9.32736
     2017.08145        -6.11522         9.14700
     2017.08418        -6.94347         9.18273
     2017.08692        -8.17872         9.12659
     2017.08966        -8.24997         9.28652
     2017.09240        -5.18722         9.14530
     2017.09514        -7.40648         9.08405
     2017.09787        -5.60673         9.71018
     2017.10061         0.27202         9.18954
     2017.10335        -3.96123         9.98412
     2017.10609        -3.87748         9.21506
     2017.10882         1.34627         9.49070
     2017.11156        -6.48199        12.80682
     2017.11430        -5.43424         9.07044
     2017.11704       -12.47449         8.99217
     2017.11978       -10.22374         9.08065
     2017.12251        -9.84399         9.07894
     2017.12525        -5.86624         9.19805
     2017.12799        -2.35750         9.04492
     2017.13073         1.19025         9.13509
     2017.13347         0.89700         8.88838
     2017.13620        -4.22725         9.05002
     2017.13894        -7.95950         9.11808
     2017.14168        -7.46476         9.11978
     2017.14442        -6.78500         9.22187
     2017.14715        -8.94926         9.17933
     2017.14989        -8.22751         9.05853
     2017.15263        -2.42076         9.05683
     2017.15537        -1.61601         9.12659
     2017.15811         1.69073         9.48049
     2017.16084        -3.65452         9.06874
     2017.16358        -4.41977         9.15381
     2017.16632        -5.40602         9.02960
     2017.16906        -7.20927         9.22357
     2017.17180        -6.88452         9.01089
     2017.17453        -1.94178         9.34607
     2017.17727        -5.05703         9.23548
     2017.18001        -7.82028         9.01939
     2017.18274        -4.67053         9.05342
     2017.18548       -10.91378         9.04832
     2017.18822       -13.76603         9.25079
     2017.19096       -14.11429         9.36649
     2017.19370       -14.01154         9.19634
     2017.19644        -4.78679         9.10617
     2017.19917       -10.97304         9.11978
     2017.20191        -6.97229         9.14870
     2017.20465        -2.77754         9.73741
     2017.20668        -3.18125        21.88066
     2017.21080        -7.59562        12.44271
     2017.21286        -6.49630         9.00408
     2017.21560        -8.75355         9.19294
     2017.21834        -7.24080         9.17082
     2017.22108        -0.39405         9.12488
     2017.22381        -6.23531         9.48389
     2017.22655        -7.06756         9.35458
     2017.22929        -7.39981         9.00748
     2017.23203        -4.82006         9.08235
     2017.23477        -6.97131         8.94963
     2017.23750       -12.23557         9.06874
     2017.24018       -11.70885         9.16232
     2017.24298        -8.10407         9.11297
     2017.24572        -8.86932         9.25590
     2017.24846       -12.46857         9.25249
     2017.25119        -5.95482         9.42094
     2017.25393        -7.69608         9.12999
     2017.25667       -10.07833         9.15211
     2017.25941       -13.66058         9.08915
     2017.26214       -10.18383         9.17593
     2017.26488        -2.71208         9.35118
     2017.26762        -0.94933         9.17593
     2017.27036        -5.98059         9.15721
     2017.27310       -17.21184         9.38010
     2017.27583       -11.55709         9.02450
     2017.27857       -11.43734         9.23548
     2017.28131       -10.84059         9.12999
     2017.28405        -8.84284         9.18273
     2017.28679       -13.06610         9.28142
     2017.28952       -12.06335         9.18443
     2017.29226       -10.26160         9.20485
     2017.29500       -10.44885         9.14700
     2017.29774       -12.41010         9.03301
     2017.30047       -14.60335         9.05342
     2017.30321       -14.80161         9.13679
     2017.30595       -12.30286         8.99387
     2017.30869        -9.72511         9.05512
     2017.31143        -5.30336         9.10957
     2017.31416       -11.95561         9.17933
     2017.31690        -5.94786         9.27291
     2017.31964        -5.50212         9.33416
     2017.32238       -12.07737         9.30524
     2017.32512       -13.44162         9.16912
     2017.32785        -9.43187         9.20655
     2017.33059       -13.01713         9.35458
     2017.33333       -14.19938         9.21166
     2017.33607       -14.63863         9.02790
     2017.33880       -15.66288         9.15041
     2017.34154        -9.94213         9.71699
     2017.34428       -12.33438         9.39882
     2017.34702       -10.35163         9.18443
     2017.34976        -8.30389         9.11638
     2017.35249       -13.39414         9.42944
     2017.35523       -14.87239         9.20145
     2017.35796       -12.32564         9.27972
     2017.36071       -10.95089         9.36479
     2017.36344       -10.49415         9.25930
     2017.36618       -11.77540         9.03471
     2017.36892        -6.95465         9.32906
     2017.37166        -8.29790         9.12999
     2017.37440        -7.72115         9.20145
     2017.37713        -9.15940         9.84800
     2017.37987       -16.00265         9.17933
     2017.38261       -13.69791         9.20655
     2017.38535       -13.40316         9.13169
     2017.38809       -13.77741         9.28482
     2017.39082        -9.99266         9.32736
     2017.39356         7.79909         9.47198
     2017.39630        -4.79416         9.02280
     2017.39904        -6.33742         9.07384
     2017.40177        -6.02467         9.16402
     2017.40451        -9.96792         9.57237
     2017.40725        -8.02517         9.49240
     2017.40999        -9.06242         9.30354
     2017.41273        -0.84268         9.41243
     2017.41546        -6.60893         9.11808
     2017.41820        -8.09918         9.28992
     2017.42094       -10.09643         9.40052
     2017.42368        -8.73868         9.18784
     2017.42642       -12.84193         9.23548
     2017.42915        -8.85119         9.19634
     2017.43189        -8.80444         9.58087
     2017.43463        -3.28769         9.39541
     2017.43738         2.86207         9.18784
     2017.44010        -2.64819         9.17593
     2017.44284        -3.88145         9.13850
     2017.44558        -2.86770         9.37330
     2017.44832        -3.94495         9.20315
     2017.45106         2.33880         9.28822
     2017.45379        -0.75045         9.42774
     2017.45653        -0.18770         9.52643
     2017.45927        -4.71595         9.14530
     2017.46201        -2.87821         9.23718
     2017.46475        -7.43846         9.31885
     2017.46748        -6.10571         9.37670
     2017.47022        -1.08196         9.51962
     2017.47296        -4.28721         9.32736
     2017.47552       -10.08258         9.62851
     2017.48117        -8.61597         9.64042
     2017.48391        -4.58622         9.26951
     2017.48664        -1.12847         9.60639
     2017.48939        -5.58672         9.32395
     2017.49212        -2.76898         9.24909
     2017.49486        -5.59123         9.15891
     2017.49760        -5.65948         9.36479
     2017.50034        -5.61473         9.12659
     2017.50308         2.80102         9.24399
     2017.50581        -1.70924         9.16061
     2017.50855        -1.87049         9.22357
     2017.51129        -5.59374         9.13850
     2017.51403        -2.67799         9.36649
     2017.51676        -1.93324         9.11127
     2017.51950        -3.87549         9.34607
     2017.52224        11.79026         9.35458
     2017.52498         2.64700         9.22697
     2017.52772        -2.77325         9.50261
     2017.53045         1.48350         9.20655
     2017.53319        -0.13175         9.35798
     2017.53570         8.87685        10.27677
     2017.53867         2.98575         9.56386
     2017.54141         8.47449         9.14360
     2017.54414         1.13124         9.32225
     2017.54689         1.68899         9.29843
     2017.54962         3.68774         9.64893
     2017.55236         4.56349         9.27801
     2017.55509         4.91823         9.15041
     2017.55783         4.10198         9.36479
     2017.56057         3.28073         9.31545
     2017.56331         0.18348         9.52983
     2017.56605         0.56623         9.39541
     2017.56878         1.49498         9.16742
     2017.57153         8.37473         9.28312
     2017.57426         0.46247         9.22527
     2017.57700         0.09022         9.14020
     2017.57974         1.05397         9.08915
     2017.58248         0.55672         9.31204
     2017.58521         0.10747         9.20996
     2017.58795         2.97922         9.56216
     2017.59069         3.10796         9.80376
     2017.59342         3.52871         9.44135
     2017.59616         5.57146         9.16061
     2017.59890        -0.98679         9.23718
     2017.60163         4.47195         9.25079
     2017.60438        -1.26730         9.30694
     2017.60711        -3.79655         9.32225
     2017.60985         6.58520         9.37670
     2017.61259         1.30095         9.26610
     2017.61533         9.17270         9.31034
     2017.61807         4.95145         9.46347
     2017.62081         2.88420         9.42094
     2017.62354         6.11294         9.55535
     2017.62628         8.99169         9.42774
     2017.62902         7.29544         9.89054
     2017.63175         4.60519         9.39031
     2017.63449         1.59694         9.26440
     2017.63723         2.90168         9.19805
     2017.63997         7.18743         9.40052
     2017.64271         9.89818         9.40562
     2017.64544         5.83693         9.42434
     2017.64818         3.35068         9.74932
     2017.65092         6.82643         9.14020
     2017.65366         6.47617         9.06533
     2017.65639         6.71592         9.15721
     2017.65913         6.17367         9.32225
     2017.66187        12.12442         9.33416
     2017.66460        13.02716         9.91946
     2017.66735        11.70392         9.54174
     2017.67008        10.93366         9.20485
     2017.67282        10.11441         9.79696
     2017.67556         2.53916         9.25590
     2017.67830         6.64691         9.32736
     2017.68104         8.55066         9.37670
     2017.68377         9.53440         9.48899
     2017.68651        12.97015        10.07770
     2017.68925        11.80890         9.58257
     2017.69199         9.67965         9.37330
     2017.69472        11.07940         9.15211
     2017.69746         9.30215         9.43455
     2017.70020        13.94189         9.59448
     2017.70294        12.98164         9.72550
     2017.70568         5.89639         9.31374
     2017.70841         9.24514         9.09596
     2017.71115        11.30089         9.53323
     2017.71389        10.18164         9.19805
     2017.71663        12.18139         9.21506
     2017.71937        10.55113         9.09256
     2017.72210         7.67788         9.30864
     2017.72484         4.38063         9.22527
     2017.72758         9.94538         9.10617
     2017.73032         7.94813         9.31545
     2017.73305         7.39587         9.16912
     2017.73579         2.76962         9.26100
     2017.73853         5.77137        10.22232
     2017.74127         1.09012         9.39882
     2017.74401         8.92787         9.24739
     2017.74674         5.47562         9.27291
     2017.74948         8.62836         9.27461
     2017.75222         7.41011         9.43625
     2017.75496         3.58586        10.04367
     2017.75769         3.52561         9.55705
     2017.76043         4.16336         9.30864
     2017.76317         8.11911         9.36649
     2017.76591        13.25885         9.32736
     2017.76865         7.28560         9.30013
     2017.77138         6.42235         9.28312
     2017.77412         1.98610         9.02280
     2017.77686         8.62785         9.33416
     2017.77959         8.47359         9.35798
     2017.78234         3.87734         9.36649
     2017.78507         2.05109         9.12829
     2017.78781        -0.47416         9.12999
     2017.79055         3.53959         9.36819
     2017.79329        13.29934         9.36649
     2017.79603        12.26808         9.24058
     2017.79877         9.66384         9.59448
     2017.80151        13.37758         9.60639
     2017.80424        10.75833         9.51452
     2017.80698         7.62808         9.39541
     2017.80971         2.14182         9.31715
     2017.81245        -2.84643         9.36479
     2017.81520        -0.12567         9.45497
     2017.81793         1.75707         9.23378
     2017.82067        -2.39918         9.33416
     2017.82340         3.18557         9.31374
     2017.82614         1.24832         9.24058
     2017.82888         0.74506         9.43114
     2017.83162         7.41081         9.35798
     2017.83436         6.28556         9.26270
     2017.83709         1.53031         9.52983
     2017.83983        -1.88594         9.37500
     2017.84257        -2.09519         9.43965
     2017.84530        -1.12245         9.59278
     2017.84804        -8.37270         9.42434
     2017.85078         4.49005         9.16912
     2017.85352         1.77080         9.41073
     2017.85626         2.85855         9.51622
     2017.85900         3.44429         9.47028
     2017.86173         9.31104         9.55705
     2017.86447         1.50979         9.20485
     2017.86721         3.04454         9.12999
     2017.86995         3.15229         9.16402
     2017.87269         1.93804         9.07894
     2017.87542         1.71478         9.62511
     2017.87816         8.83553         9.55535
     2017.88090         4.91728         9.35798
     2017.88364         9.33903         9.62001
     2017.88637         6.54378         9.38010
     2017.88911         4.74853        10.19510
     2017.89185         2.33927        10.13044
     2017.89459         2.87502         9.54174
     2017.89733         5.27477         9.25079
     2017.90006         4.97252         9.32395
     2017.90280         7.73927         9.19464
     2017.90554        11.59002         9.42264
     2017.90828         5.27876         9.48729
     2017.91102         1.87351         9.45326
     2017.91375         0.02326         9.66084
     2017.91649        -2.38399         9.53153
     2017.91923         6.62276        10.71064
     2017.92197         0.00951         9.34097
     2017.92470         0.79425         9.31204
     2017.92744        -3.00100        10.13044
     2017.93018        -6.19425         9.06533
     2017.93292        -5.04050         9.31885
     2017.93566        -0.01675         9.39201
     2017.93839         1.25300         9.33927
     2017.94113        -1.11226         9.29163
     2017.94387         1.09649         9.46688
     2017.94661         1.16524         9.52643
     2017.94935        -3.21601         9.73911
     2017.95209        -3.97926         9.41583
     2017.95482        -6.50752        10.41799
     2017.95756        -5.56377         9.59278
     2017.95974        -2.64338        12.38146
     2017.97768        -4.67892        17.34970
     2017.97946        -4.29078         9.21506
     2017.98220        -6.36903         9.09085
     2017.98492        -9.42129         9.06363
     2017.98767       -12.59854         9.17252
     2017.99039        -7.40780         9.55875
     2017.99957        -4.53894        16.93114
     2018.00136        -6.55879         9.06533
     2018.00410       -12.47405         9.26610
     2018.00684        -4.89730         9.52132
     2018.00958        -5.43355         9.23037
     2018.01232        -4.75380         9.30864
     2018.01505        -6.47205         9.80887
     2018.01779         1.99770         9.34948
     2018.02053        -7.65656         9.38691
     2018.02327        -0.40381         9.51962
     2018.02598        -2.55208         9.98752
     2018.02874        -4.10431         9.29333
     2018.03148        -7.59856         9.12148
     2018.03422       -16.13581         9.30524
     2018.03568       -22.35388        40.22912
     2018.04079        -5.11562        20.55694
     2018.04244        -9.95157         9.68126
     2018.04517        -8.60482         9.42264
     2018.04791        -3.47907         9.41923
     2018.05000        -2.08474        13.65245
     2018.05719       -10.65515        20.07713
     2018.05886       -13.31908         9.20996
     2018.06160        -4.87533         9.20825
     2018.06381       -12.57692        12.44782
     2018.06820         6.89388        21.77177
     2018.06981        -9.61409         9.37840
     2018.07255       -11.71334         9.42944
     2018.07443       -15.60214        16.58575
     2018.08190        -7.86137        22.73139
     2018.08350        -6.32835         9.53323
     2018.08624       -10.74260         9.49410
     2018.08898       -12.65385         9.24739
     2018.09172        -5.84810         9.66935
     2018.09445        -6.61135         9.43285
     2018.09719        -6.65060         9.71529
     2018.09993        -9.58686         9.33076
     2018.10266       -14.83211         9.30864
     2018.10539         2.52763        10.41799
     2018.10814        -6.86561         9.65914
     2018.11088        -8.71386         9.41413
     2018.11362        -2.91311         9.45497
     2018.11635        -4.07037         9.52302
     2018.11909        -6.50362         9.68466
     2018.12183       -11.59087         9.49070
     2018.12457        -2.85412         9.46347
     2018.12731       -11.48237         9.33586
     2018.13004        -9.73563         9.43795
     2018.13278         0.06412         9.52132
     2018.13552        -1.53113         9.59959
     2018.13826        -4.08338         9.27121
     2018.14099        -6.51263         9.36479
     2018.14373        -6.72588         9.23037
     2018.14647        -2.72514         9.83949
     2018.14921        -7.49438         9.39031
     2018.15195         4.22036         9.18784
     2018.15469        -1.53789         9.50261
     2018.15742        -3.84814         9.34948
     2018.16016        -1.57439         9.34437
     2018.16290        -5.14865         9.63362
     2018.16564       -15.00890         9.80206
     2018.16837        -6.54115         9.48899
     2018.17111        -4.98040         9.66935
     2018.17385        -7.66765         9.64723
     2018.17659        -8.57190         9.33586
     2018.17932        -5.46116         9.38180
     2018.18206        -3.98041         9.55705
     2018.18480        -0.00066         9.42264
     2018.18754        -3.98291         9.05342
     2018.19027        -8.02417         9.45326
     2018.19301        -4.75341         9.81057
     2018.19575         1.45633         9.29503
     2018.19849        -3.15992         9.46177
     2018.20123         4.92283         9.38350
     2018.20397         1.51558         9.12488
     2018.20670         2.45733         9.23378
     2018.20944         1.37408         9.19464
     2018.21218        -3.20918         9.11978
     2018.21492       -14.27043         9.29673
     2018.21765        -1.85668         9.08915
     2018.22039        -2.90193         9.28652
     2018.22313        -1.55018         9.31715
     2018.22587       -10.45344         9.11467
     2018.22861        -6.75569         9.40222
     2018.23134        -6.44894         9.13169
     2018.23408        -5.63619         9.17423
     2018.23682        -9.05644         9.55025
     2018.23956        -6.14269         9.08745
     2018.24230        -2.73895         9.27972
     2018.24503        -5.33520         9.27291
     2018.24777        -5.79245         9.18784
     2018.25051         0.35030         9.03301
     2018.25324        -9.03896         9.20655
     2018.25598        -5.19520         9.23037
     2018.25872        -9.10746        10.19340
     2018.26146        -8.11771         9.29503
     2018.26420        -3.16796         9.25930
     2018.26694        -7.79421         9.16912
     2018.26967       -10.38646         9.10276
     2018.27241       -12.81671         9.18443
     2018.27515        -0.24797         9.32055
     2018.27789        -0.48221         9.31034
     2018.28062        -9.88947         9.58938
     2018.28336        -6.69172         9.31374
     2018.28610        -6.64397         9.09936
     2018.28884        -2.95222         9.56046
     2018.29158        -5.07348         9.42264
     2018.29431        -4.16673         9.30524
     2018.29705        -7.45498         9.25249
     2018.29979        -5.67723         9.08745
     2018.30253        -4.58748         9.27291
     2018.30526        -6.20074         9.28652
     2018.30800        -8.65599         9.14700
     2018.31074        -8.41224         9.05002
     2018.31347        -7.72049         9.19805
     2018.31622        -8.18074         8.94453
     2018.31895        -2.82399         9.37670
     2018.32169        -0.81225         9.16061
     2018.32443        -6.12150         9.43285
     2018.32717        -7.08775         9.18443
     2018.32991        -3.57600         9.43114
     2018.33264        -1.43125         9.29163
     2018.33538        -7.67150         9.81227
     2018.33812        -5.38076         9.73060
     2018.34086         1.07499         9.34097
     2018.34360        -9.87726         9.17252
     2018.34633        -5.59451         9.06533
     2018.34907        -7.71176         9.17593
     2018.35181         1.35599         9.13679
     2018.35455        -3.44627         9.26100
     2018.35729        -5.53251         9.40903
     2018.36002        -2.84877         9.13339
     2018.36276        -3.25902         9.54004
     2018.36550        -9.59327         9.30183
     2018.36826        -4.53951         9.80887
     2018.37097        -5.80278         9.51111
     2018.37371        -2.57203         9.34437
     2018.37645        -7.15828         9.42434
     2018.37919        -3.20153         9.05683
     2018.38193        -7.79278         9.26270
     2018.38466        -0.88504         9.39541
     2018.38740        -3.30329         9.11638
     2018.39014        -3.69254         9.30694
     2018.39288        -0.87579         9.12999
     2018.39561        -2.91604         9.29163
     2018.39835         3.80971         9.19634
     2018.40109        -1.33455         9.21676
     2018.40383        -1.66880         9.19294
     2018.40657         6.76295         9.26270
     2018.40930         5.39670         9.63362
     2018.41204         7.49245         9.28312
     2018.41478        -1.46480         9.39031
     2018.42299         7.14344         9.73230
     2018.42573         1.45519         9.40732
     2018.42847         2.03494         9.21506
     2018.43121         0.64669         9.39031
     2018.43394        -0.37057         9.24569
     2018.43668         0.52918         9.43114
     2018.43942         6.15293         9.26951
     2018.44216        -1.52332         9.39201
     2018.44489        -0.74058         9.62341
     2018.44763         4.99218         9.37840
     2018.45037        -0.10408         9.35288
     2018.45310         1.48667         9.44816
     2018.45585         1.35742         9.18273
     2018.45859         5.43417         9.12829
     2018.46130         3.26391         9.30864
     2018.46406         0.28567         9.24739
     2018.46680        -4.61959         9.24399
     2018.46954         1.99916         9.20655
     2018.47227         2.80091        10.11683
     2018.47501         3.88466         9.85991
     2018.47775         0.61041         9.46177
     2018.48049        -2.64484         9.86331
     2018.48323         2.60190         9.24399
     2018.48596        -3.54435         9.33586
     2018.48870         1.49440         9.48559
     2018.49144         0.52815         9.31715
     2018.49414         5.54188         9.75272
     2018.49702        -0.34929        11.02540
     2018.49965         3.98039         9.24739
     2018.50239        -4.18486         9.07894
     2018.50512        -3.65911         9.16912
     2018.50799         1.33972         9.60129
     2018.51060        -3.33561         9.65574
     2018.51334         6.89713         9.32736
     2018.51608        -1.92512         9.19464
     2018.51882         0.58563         9.36139
     2018.52156        -1.01662         9.31374
     2018.52429         2.01713         9.19464
     2018.52703         4.27388         9.24569
     2018.52977         1.52162        10.05728
     2018.53251         4.61337         9.57577
     2018.53525         1.36112         9.53663
     2018.53797         3.64686         9.41583
     2018.54072         3.98562         9.11638
     2018.54346         7.85037         9.35288
     2018.54620         1.69911         9.44816
     2018.54892         3.92485         9.23378
     2018.55167         5.33161         9.28652
     2018.55441         1.37136         9.55195
     2018.55715         1.18211         9.50261
     2018.55989         0.44286         9.55705
     2018.56262         4.55660         9.39201
     2018.56536        -2.33565         9.28312
     2018.56810         9.97810         9.28992
     2018.57084         6.99885         9.32736
     2018.57357         1.89460         9.58087
     2018.57631        -1.77565         9.76633
     2018.57905         6.26909         9.97731
     2018.58179        11.07484         9.94158
     2018.58452         8.79459         9.85821
     2018.58726         6.94134         9.35798
     2018.59001         4.91509         9.58428
     2018.59274         6.50183         9.22016
     2018.59548         3.85058         9.40392
     2018.59822         9.32133         9.43965
     2018.60095         3.38408         9.36139
     2018.60369         9.66883         9.09766
     2018.60643         6.68758         9.25590
     2018.60917         5.87732         9.36139
     2018.61191         6.34108         9.33586
     2018.61464         7.59982         9.04662
     2018.61738         8.06857         9.19975
     2018.62014        11.71033         9.37330
     2018.62286        12.98607         9.54684
     2018.62559        10.40881         9.30013
     2018.62833         2.40056         9.46688
     2018.63107         6.07631         9.11127
     2018.63381         3.85906         9.43625
     2018.63655         3.75881         9.29333
     2018.63928        11.43256         9.59959
     2018.64202         9.51830         9.87182
     2018.64476        15.67605         9.47708
     2018.64749        11.48580         9.63192
     2018.65023        10.35955        10.22062
     2018.65297         9.61230         9.23718
     2018.65571         8.01905         9.17423
     2018.65845         6.98279         9.38861
     2018.66119        17.98554         9.34437
     2018.66392         7.86829         9.37159
     2018.66666         9.17104         9.60469
     2018.66940         6.71579         9.06533
     2018.67214         7.81053         9.69317
     2018.67488         7.26828         9.36649
     2018.67761        10.15803         9.09426
     2018.68035         2.47178        10.07259
     2018.68309         2.15453         9.49750
     2018.68583        16.21728         9.68806
     2018.68856         7.32202         9.46177
     2018.69130         9.64377         9.52302
     2018.69404        12.67052         9.29843
     2018.69678         6.82627         9.69997
     2018.69952         5.29102         9.57237
     2018.70225         4.29777         9.44476
     2018.70496         4.60050         9.38521
     2018.70773         5.80927         9.43285
     2018.71047        -2.25699         9.38350
     2018.71321         3.00776         9.34777
     2018.71594         2.84751         9.26610
     2018.71870        -2.87273         9.51792
     2018.72142         3.17300         9.22357
     2018.72416         5.54275         9.26781
     2018.72689         3.65950         9.20825
     2018.72963         5.87125         9.30183
     2018.73239         4.11901         9.63872
     2018.73511        -0.52425         9.45837
     2018.73785         5.11049         9.33757
     2018.74058         0.61424         9.23888
     2018.74332         3.28499         9.23037
     2018.74606         5.69174         9.21846
     2018.74879         6.66848         9.57237
     2018.75154         2.47524        10.11513
     2018.75427         6.07098         9.18443
     2018.75701         4.29473         9.57747
     2018.75974         6.12147         9.31715
     2018.76249         6.54623         9.56386
     2018.76522         4.73898         9.57747
     2018.76796         4.73972         9.05512
     2018.77068         7.84046         9.40903
     2018.77344         6.09422         9.55535
     2018.77617         8.31497         9.49240
     2018.77892         7.89272         9.71188
     2018.78165        15.29447         9.77824
     2018.78439         5.12721         9.14360
     2018.78710         4.23294         9.42434
     2018.78987        -0.47729         9.64383
     2018.79260         0.87546         8.96835
     2018.79534        10.32421         9.24058
     2018.79808        -0.09404         9.20996
     2018.80082         8.37170         9.09596
     2018.80355         7.60745         9.07214
     2018.80629         6.52320         9.30354
     2018.80903         5.90795         8.93943
     2018.81177         5.77270         9.63532
     2018.81451         4.59745         9.10276
     2018.81724         1.50719        13.28493
     2018.82269         5.47267        11.12409
     2018.82545         1.23143        10.44521
     2018.82823         4.27221         9.25930
     2018.83095         2.65295         9.18954
     2018.83367         0.43368         9.40903
     2018.83634        10.09539        10.84675
     2018.83915        -5.78582        12.80002
     2018.84188         2.29693        12.46824
     2018.84467         8.64371        10.46052
     2018.84634        27.66577       148.94675
     2018.85015         5.17020        10.05558
     2018.85281         2.35190         9.42774
     2018.85560        -1.82931         8.95814
     2018.85831        -1.16158         8.81182
     2018.86105         1.41617         8.84585
     2018.86379         0.33691         8.97516
     2018.86653         3.81966         8.90029
     2018.86926        -2.62259         8.94113
     2018.87200         2.79216         8.85605
     2018.87474         5.97591         9.01259
     2018.87748         2.29566         9.04662
     2018.88021         4.17440         9.25419
     2018.88295         3.47815         9.15721
     2018.88569         4.24790         9.14360
     2018.88843        12.30465         9.07894
     2018.89117         4.16740         9.34948
     2018.89390         6.02915         9.74081
     2018.89664        -3.32911         9.29163
     2018.89938         1.49964         9.20145
     2018.90211         3.68839         9.55025
     2018.90485         5.47014        13.92808
     2018.90759         5.51289         9.99262
     2018.91033         8.36064         9.10447
     2018.91307        11.43438         9.20485
     2018.91581        11.50613         9.13679
     2018.91854        13.01988         8.98026
     2018.92124         4.53260         9.28142
     2018.92402         4.97238         9.16402
     2018.92676         5.69013         9.35118
     2018.92950         7.21087         9.08915
     2018.93223         4.83262         9.25079
     2018.93497         3.98537         9.01769
     2018.93771         3.81812         9.04662
     2018.94045         1.44887         8.93432
     2018.94318         3.35861         9.16912
     2018.94592         2.14636        10.38396
     2018.94866         5.49611         8.91561
     2018.95061         3.51336        14.38917
     2019.40873        20.29489         9.37159
     2019.41136        22.87357         9.48219
     2019.41410        24.64232        10.05558
     2019.41683        19.76407         9.44476
     2019.41957        20.19182         9.25930
     2019.42231        18.95056         9.10787
     2019.42505        22.29031         9.15211
     2019.42779        23.04706        10.02155
     2019.43045        26.47476        10.20701
     2019.43326        13.77856        12.56352
     2019.43633         7.28052        12.00884
     2019.43874        12.47806         9.95519
     2019.44147        11.60580         9.43965
     2019.44421        15.02955         9.24569
     2019.44695        16.57230         9.41073
     2019.44969        15.08705         9.38521
     2019.45242        20.44779        11.88464
     2019.45503        17.85746        10.92162
     2019.45798        18.64834         9.61150
     2019.46064        21.34704         9.41753
     2019.46338        21.96679         9.78505
     2019.46610        23.64552        10.96756
     2019.47320        20.33306        28.26111
     2019.47592        31.92580        26.68046
     2019.47919        29.81488        18.15959
     2019.48142        23.26231        25.69872
     2019.48396        23.19293       764.38847
     2019.48688        19.63479        27.99228
     2019.48964        29.15556        28.73071
     2019.49239        25.17831        32.86523
     2019.49508        39.47903        26.37590
     2019.49777        27.34875        28.35809
     2019.50056        92.51553        63.89801
     2019.50331        -2.48971       151.04184
     2019.50881         3.33180       121.40196
     2019.51146         4.16550        45.43896
     2019.51421        16.12125        27.65709
     2019.51695        25.48400        26.67535
     2019.52061        20.19333        15.94090
     2019.52244        27.92051        24.27461
     2019.52526        26.18230        27.21812
     2019.52790        47.09199        26.05773
     2019.53065        14.11775        29.54740
     2019.53335        28.71347        35.07372
     2019.53611        15.95123        32.57769
     2019.53882        23.62396        32.90097
     2019.54201        36.09900        19.78618
     2019.54430        20.19546        28.54015
     2019.54701        29.10920        31.62828
     2019.54977        18.25995        34.33359
     2019.55246         0.31467        47.95881
     2019.55522        19.26943        34.59051
     2019.55797        13.29919        39.28481
     2019.56068        29.28093        32.53856
     2019.56346        16.36170        31.47345
     2019.56617        11.23843        35.24046
     2019.56891        26.71718        44.59334
     2019.57161         7.59490        47.66446
     2019.57435        15.27965        46.23184
     2019.57761        24.25273        23.02064
     2019.58110        19.33596        15.23820
     2019.58259        55.38091        44.23603
     2019.58529        57.07464        61.20971
     2019.58803        63.92639        66.36341
     2019.59076        -0.34887        55.89268
     2019.59479        16.47371        15.05955
     2019.59625        33.01563        46.72185
     2019.59897       -12.07663        59.60354
     2019.60170        48.09611       150.22114
     2019.60443        19.45986       158.93768
     2019.60990        24.37635       583.11392
     2019.61537        -7.42415       495.27247
     2019.61813        30.57061        45.85071
     2019.63499        13.90237        23.13123
     2019.64601        13.97141        21.02483
     2019.64982        18.33284        15.10038
     2019.65257        27.09960        14.33643
     2019.65525        17.01031        13.28153
     2019.66324        26.92241         9.36649
     2019.66598        24.72016        10.54730
     2019.66872        24.18691        10.51497
     2019.67145        18.73366         9.05512
     2019.67419        26.03541        39.05682
     2019.67695        20.08617         9.23378
     2019.67967        19.17590         9.27291
     2019.68240        21.12765         8.95304
     2019.68514        21.54140         8.96835
     2019.68788        24.08515         9.28312
     2019.69062        18.76990         9.12318
     2019.69336        21.15764         8.90710
     2019.69609        21.22839         8.89519
     2019.69883        25.32414         9.08915
     2019.70157        17.86889         8.94963
     2019.70431        21.89564         9.20996
     2019.70705        23.94539         8.97345
     2019.70978        21.94313         8.91561
     2019.71252        23.18388         9.06703
     2019.71526        20.16263         8.88158
     2019.71800        24.20538         9.29163
     2019.72073        19.65113         9.40732
     2019.72347        22.18088         8.84585
     2019.72621        16.37662         9.01769
     2019.72895        23.93637         9.09085
     2019.73169        25.60512         9.02110
     2019.73442        26.03687         9.23718
     2019.73716        25.98362         8.90199
     2019.73990        29.25037         9.30864
     2019.74264        29.41111         8.93262
     2019.74538        22.79386         8.93432
     2019.74811        22.09561         9.04662
     2019.75085        20.68936         8.98536
     2019.75359        21.09911         9.34948
     2019.75633        22.30985         9.07044
     2019.75906        21.32660         8.97856
     2019.76180        18.26835         8.94283
     2019.76454        25.33310         9.03811
     2019.76728        20.96185         9.33246
     2019.77002        21.33760         9.11808
     2019.77275        20.94434         9.27291
     2019.77549        20.83209        12.32702
     2019.77823        24.04584         9.07214
     2019.78097        29.62359         9.20485
     2019.78371        25.02734         9.13169
     2019.78644        19.76609         9.14700
     2019.78918        22.35783         9.31715
     2019.79192        29.88858         9.11978
     2019.79466        29.13333         9.51792
     2019.79739        27.89108         8.99387
     2019.80013        26.04983         9.07384
     2019.80287        18.98458         9.03471
     2019.80561        27.21632         9.35968
     2019.80835        18.65107         9.04151
     2019.81108        21.62282         9.09085
     2019.81382        25.08657         9.28142
     2019.81656        24.60332         9.12148
     2019.81930        20.27207         9.01599
     2019.82203        17.91281         9.10957
     2019.82400        20.34107        13.84131
     2019.83422         9.76059        29.48445
     2019.83572        18.28956         9.08065
     2019.83846        25.27330         9.08745
     2019.84089        24.52485        10.44861
     2019.88069        23.01727        23.09210
     2019.88227        32.05128         9.08065
     2019.88501        30.76202         9.01089
     2019.88774        28.35277         9.29503
     2019.89048        34.54252         9.03301
     2019.89322        29.52627         9.41073
     2019.89596        27.27502         9.09596
     2019.89869        30.76277         9.13850
     2019.90143        29.92751         8.97856
     2019.90417        24.81326         9.08745
     2019.90691        25.29201         9.00408
     2019.90965        23.37376         9.09085
     2019.91238        27.01351         9.15041
     2019.91512        31.75526         9.21846
     2019.91786        38.02000         8.94283
     2019.92060        26.05275         9.07554
     2019.92607        25.79725         9.05512
     2019.92881        25.63600         9.08065
     2019.93155        27.46474         8.97686
     2019.93429        28.12349         8.97516
     2019.93702        22.12224         8.98707
     2019.93976        24.41799         9.12148
     2019.94250        24.93174         9.15551
     2019.94524        22.67449         9.09766
     2019.94798        24.50223         9.10787
     2019.95071        23.33998         9.48049
     2019.95345        28.32973         8.95644
     2019.95619        27.90648         8.95304
     2019.95893        22.74123         9.00408
     2019.96167        25.50398         9.03471
     2019.96422        24.25461        10.00453
     2020.00382        20.66090        20.01928
     2020.00821        25.39970         9.16742
     2020.01095        25.49745         9.21166
     2020.01368        31.91119         9.26100
     2020.01642        26.66894         9.36649
     2020.01916        23.45269         9.06703
     2020.02190        24.08344         9.19294
     2020.02389        19.18971        14.14757
     2020.03945        14.84164        20.77132
     2020.04106        18.86368         8.99557
     2020.04313        25.92500        14.03868
     2020.08054        14.13288        21.74965
     2020.08213        22.10890         9.10787
     2020.08487        24.36265         9.09766
     2020.08761        20.16540         9.05342
     2020.09034        21.26915         9.03471
     2020.09308        19.12689         8.93772
     2020.09582        26.17864         8.92241
     2020.09856        23.99239         8.91731
     2020.10130        23.20214         8.84074
     2020.10403        20.96389         9.11297
     2020.10677        18.93864         9.10106
     2020.10951        12.69638         8.96495
     2020.11225        19.06813         9.34607
     2020.11498        16.89288         8.90369
     2020.11772        17.38563         9.08405
     2020.12046        15.39238         9.24399
     2020.12320        14.43912         8.97516
     2020.12594        18.73787         8.98536
     2020.12867        12.02562         8.93092
     2020.13141        11.44337         9.06023
     2020.13415        10.61812         8.87647
     2020.13689        17.21287         9.18614
     2020.13963        20.53261         9.09426
     2020.14236        18.75936         8.97856
     2020.14510        22.84311         9.00238
     2020.14784        13.30586         8.97005
     2020.15058        12.11761         8.87647
     2020.15331        11.40736         8.99727
     2020.15605        12.12210         8.97856
     2020.15879        13.42385         8.94113
     2020.16153        17.56760         8.96154
     2020.16427        18.92735         8.95644
     2020.16700        18.76710         8.94623
     2020.16974        22.67285         9.10276
     2020.17248        20.39459         9.59108
     2020.17522        17.00134         8.89859
     2020.17796        19.91109         8.94453
     2020.18069        19.98984         8.86626
     2020.18343        18.91259         8.86796
     2020.18617        12.84834         8.94623
     2020.18891        14.16208         9.13850
     2020.19164        20.79083         9.15891
     2020.19438        17.90958         9.09596
     2020.19712        15.41233         9.11978
     2020.19986         8.52208         9.02450
     2020.20260         9.74882         9.08915
     2020.20533        13.04557         9.02790
     2020.20807        15.06832         9.13850
     2020.21081         9.05507         9.25249
     2020.21355        10.00382         9.78675
     2020.21629        12.60457         9.57917
     2020.21902        12.61031         9.33586
     2020.22179        11.16708         9.27121
     2020.22450        18.53381         9.21336
     2020.22724        16.72356        10.39587
     2020.22998        15.12931        11.00499
     2020.23271        21.09706        11.43545
     2020.23546        16.89881        11.05093
     2020.23819        15.93055        11.99353
     2020.24092        13.90230        11.07134
     2020.24366         0.77505        10.86717
     2020.24640        17.37880        10.59664
     2020.25462        16.56705        11.38271
     2020.26009        17.70054         9.04492
     2020.26283        17.28329         9.06874
     2020.26557        11.81304         9.10276
     2020.26830        16.27678         9.05342
     2020.27104        12.24853         9.15721
     2020.27378        12.34228         9.02790
     2020.27652         6.26803         9.14360
     2020.27929        11.99380         9.30864
     2020.28199        14.12153         9.12318
     2020.28473        10.15227         9.16742
     2020.28747        13.20002         9.08065
     2020.29021         9.02977         9.10276
     2020.29295        11.44252         9.13850
     2020.29568        14.90327         9.10787
     2020.29842        20.03401         9.02450
     2020.30116        19.24076         9.08745
     2020.30390        19.32551         9.07894
     2020.30663        15.77826         9.07044
     2020.30937        10.19001         9.36139
     2020.31211        14.02276         9.36479
     2020.31485        15.21350         9.21506
     2020.31759        11.65825         8.97516
     2020.32032        15.32200         9.24228
     2020.32306        11.92875         8.96665
     2020.32580        11.68850         9.06363
     2020.32854        20.36725         9.35288
     2020.33128        10.98799         8.91901
     2020.33401        14.61974         8.94623
     2020.33675        13.33449         9.08065
     2020.33949         7.39424         9.09936
     2020.34223         9.55799         9.22016
     2020.34496        11.76974         9.10617
     2020.34770         8.53048         8.92411
     2020.35044        10.70623         9.06874
     2020.35318         5.44698         9.12318
     2020.35592         8.00973         9.21846
     2020.35865        13.36948         9.05172
     2020.36139        14.52423         8.99217
     2020.36413        17.41397         9.08745
     2020.36687        12.44172         9.01599
     2020.36961        11.07647         9.12318
     2020.37234        14.23422         8.96835
     2020.37508        15.37697         8.93772
     2020.37782        16.74271         9.03471
     2020.38056         8.09546         8.92241
     2020.38329        12.60521         8.90029
     2020.38603        12.14096         9.06023
     2020.38877        17.36471         9.09936
     2020.39151        12.24146         8.97005
     2020.39425        13.48320         8.95134
     2020.39698        11.29795         9.04832
     2020.39972         5.36470         9.00068
     2020.40246        11.33645         9.00238
     2020.40520        10.41320         9.22187
     2020.40794         9.80495         9.12148
     2020.41067        12.46769         9.04321
     2020.41341        13.12544         9.41243
     2020.41615         9.79119         9.05512
     2020.41889        13.23894         8.99217
     2020.42162         7.36269         9.30183
     2020.42436         8.94644         9.98071
     2020.42710        15.68518         9.28142
     2020.42984        10.27193         9.07554
     2020.43258        13.35168         9.09256
     2020.43531        17.47943         9.24399
     2020.43805        15.93818         9.23378
     2020.44079        12.21393         9.15211
     2020.44353        13.25967         9.08915
     2020.44626        10.22342         9.35968
     2020.44900        15.96417         9.18614
     2020.45174        17.91992         9.04321
     2020.45448        15.88967         8.98366
     2020.45722        15.30842         8.90029
     2020.45995        12.79116         8.95134
     2020.46269         6.35591         8.96325
     2020.46543        11.58266         8.99557
     2020.46817        17.20141         9.66424
     2020.47091        18.64216         9.34777
     2020.47364        12.56690         8.87647
     2020.47638         9.23365        10.22402
     2020.47912        16.87540         9.37840
     2020.48186        16.25515         8.93092
     2020.48459        10.39790         9.14360
     2020.48733        10.23765         9.24058
     2020.49007        15.77239         9.32906
     2020.49281        21.42214         9.44135
     2020.49555        17.22189         9.25079
     2020.49828        16.24164         9.07214
     2020.50102        11.63139         8.82713
     2020.50376        12.59114         8.83053
     2020.50648        10.37188         9.80036
     2020.50925         8.54464         9.28142
     2020.51197         9.57338         8.97005
     2020.51471        14.76413         9.00238
     2020.51745        14.67688         8.98196
     2020.52019        22.31763         9.10957
     2020.52292        17.67237         9.17082
     2020.52566        11.53612         9.12488
     2020.52840        22.03687         9.47708
     2020.53114        17.52362         9.04151
     2020.53388        16.34537         9.03471
     2020.53661         8.26512         9.73400
     2020.53935        15.18686         9.11808
     2020.54209        18.47261         9.17082
     2020.54483        17.54136         9.36989
     2020.54757        16.13511         9.06023
     2020.55030        11.65686         9.28652
     2020.55304        15.67561         9.16912
     2020.55578        23.96035         9.26951
     2020.55852        18.82710         9.50601
     2020.56125        19.52685         9.40392
     2020.56399        20.00560         9.15891
     2020.56673        13.38435         9.06193
     2020.56947        21.05709         9.12488
     2020.57221        19.63284         9.47028
     2020.57494        17.51059         9.19634
     2020.57768        13.13834         9.14700
     2020.58042        12.70309         9.30183
     2020.58316        15.71384         9.54514
     2020.58590        15.30358         9.14530
     2020.58863        21.31433         9.14530
     2020.59137        15.79508         9.15721
     2020.59411        20.34283         9.08915
     2020.59685        22.94058         9.46688
     2020.59958        14.68333         9.40392
     2020.60232        18.91407         9.07894
     2020.60506        19.76882         9.19634
     2020.60780        14.94857         9.08745
     2020.61054        18.49132         9.18784
     2020.61327        25.02007         9.12318
     2020.61601        20.63882         9.40052
     2020.61875        17.95456         9.15381
     2020.62149        14.36631         9.29333
     2020.62423        18.35606         9.17933
     2020.62696        14.97281         9.24739
     2020.62970        19.51656         9.63192
     2020.63244        18.71731         9.35118
     2020.63518        17.82605         9.25760
     2020.63791        21.24280         9.34437
     2020.64065        17.57355         9.33416
     2020.64339        17.56730         9.12148
     2020.64613        21.42805         9.20145
     2020.64887        24.24279         9.15381
     2020.65160        20.60854         9.92116
     2020.65434        18.19929         9.16061
     2020.65708        21.84004         9.04662
     2020.65982        28.70179         9.21506
     2020.66256        20.64054         9.16912
     2020.66529        22.23028         9.18273
     2020.66803        25.54503         9.20145
     2020.67077        19.15678         9.29333
     2020.67351        23.63053         9.13509
     2020.67624        17.85328         9.09596
     2020.67898        18.20703         9.17082
     2020.68172        16.24377         9.21676
     2020.68443        19.50051        10.05558
     2020.68720        15.19727         9.22697
     2020.68993        19.13902         9.21676
     2020.69267        19.07577         9.30694
     2020.69541        17.09252         9.63702
     2020.69815        18.68426         9.42604
     2020.70089        20.32101         9.18443
     2020.70362        20.27476         9.16912
     2020.70636        15.84351         9.85310
     2020.70910        14.98926         9.63192
     2020.71184        23.14401         9.42944
     2020.71457        21.47975         9.50941
     2020.71731        20.19250         9.45326
     2020.72008        16.50227         9.52643
     2020.72279        20.58700         9.19634
     2020.72553        23.37675         9.58768
     2020.72826        27.37350        10.29208
     2020.73100        30.53724         9.46858
     2020.73374        28.32699         9.25590
     2020.73648        21.53174         9.36989
     2020.73921        22.33449         9.19464
     2020.74195        24.65824         9.24228
     2020.74469        20.55598         9.29333
     2020.74743        21.45073         9.44306
     2020.75017        21.70748         9.20655
     2020.75290        19.26523         9.35288
     2020.75564        17.91098         9.12318
     2020.75838        -6.60127         9.12318
     2020.76112        -8.52953         9.13679
     2020.76386        -7.65978         9.10276
     2020.76659        -6.54603         9.05683
     2020.76933        -8.29828         9.28482
     2020.77207        -5.73453         9.21846
     2020.77481        -7.94978         9.20485
     2020.77754        -5.09904         9.09085
     2020.78028        -2.15229         9.23888
     2020.78302       -11.55654         9.00578
     2020.78576        -3.21679         9.12488
     2020.78850       -12.83404         9.19975
     2020.79123       -11.00829         9.07384
     2020.79397        -8.18555         9.08235
     2020.79671        -9.54080         8.99898
     2020.79945       -12.25505         8.99557
     2020.80219        -8.67130         9.38010
     2020.80492        -7.62955         9.04662
     2020.80766       -11.35880         9.18273
     2020.81040        -6.73706         9.22016
     2020.81314         4.29369         8.92581
     2020.81587        -9.41956         8.97345
     2020.81861        -8.43681         8.96495
     2020.82135        -8.27906         9.08575
     2020.82409        -6.93431         9.14700
     2020.82683       -11.92557         9.16402
     2020.82956        -9.13082         9.24399
     2020.83230       -10.28807         9.13339
     2020.83504       -10.71732         9.14360
     2020.83778        -4.02257         8.94963
     2020.84052        -5.78683         9.23378
     2020.84325        -8.77608         9.23548
     2020.84599        -5.53733         9.26100
     2020.84873        -6.64358         8.89859
     2020.85147        -5.18983         9.05342
     2020.85420        -1.79908         8.98707
     2020.85694        -3.28134         9.05683
     2020.85968        -5.81459         8.99557
     2020.86242        -2.46484         8.97686
     2020.86516        -4.61409         9.18103
     2020.86789        -0.06234         9.30013
     2020.87063         3.70241         9.11638
     2020.87337         2.42115         9.17763
     2020.87611        -1.25010         9.25590
     2020.87885        -9.36735         9.28652
     2020.88158        -8.62560         9.32736
     2020.88432        -5.25885         9.12318
     2020.88706       -13.06610         9.65233
     2020.88980       -11.18536         9.40562
     2020.89253        -7.68561         9.35458
     2020.89527        -1.36086         9.38691
     2020.89801        -2.59411         9.44816
     2020.90075         0.88764         9.12659
     2020.90349        -4.70461         9.16912
     2020.90622        -7.14287         9.11297
     2020.90896       -10.13312         9.40732
     2020.91170       -10.14637         9.78505
     2020.91444         0.60138         9.49410
     2020.91718        -0.83387         9.12318
     2020.91991       -14.19213         9.08915
     2020.92265       -15.02638         9.15891
     2020.92539       -18.33063         9.20825
     2020.92813       -14.57188         9.14190
     2020.93086       -11.10813         9.27121
     2020.93360       -11.49738         9.15211
     2020.93634       -15.59464         9.23378
     2020.93908       -16.94689         9.16061
     2020.94182       -14.95214         9.22357
     2020.94455       -12.60139         9.14190
     2020.94729       -16.12864         9.11978
     2020.95003       -18.75889         9.17933
     2020.95277       -13.08815         9.07044
     2020.95551       -10.75340         9.15211
     2020.95824       -15.14065         9.28822
     2020.96098        -6.87990        10.62727
     2020.96270       -13.57481        18.72958
     2020.97837       -16.74879        18.49648
     2020.98015       -13.92666         9.68977
     2020.98288       -13.28791         9.31715
     2020.98562       -12.89317         9.02280
     2020.98836        -7.36642         9.10276
     2020.99110        -8.54467         8.93772
     2020.99308       -10.36240        13.73412
     2021.00863        -4.67748        20.72538
     2021.01026        -5.97443         9.00918
     2021.01300        -9.11568         8.99217
     2021.01483        -9.72151        17.89076
     2021.02235       -19.99271        21.79219
     2021.02395       -10.90069         8.94793
     2021.02669       -13.46194        15.13951
     2021.02870       -18.15866        13.46358
     2021.03604       -30.14697        21.88066
     2021.03764       -13.94795         8.96665
     2021.04038       -18.40420         9.10447
     2021.04312       -14.77145         9.05342
     2021.04585       -14.26170         9.02960
     2021.04859       -17.14396         9.03130
     2021.05133       -20.20221         9.01089
     2021.05404       -10.59447         9.62341
     2021.05681       -10.86471         9.17082
     2021.05954       -19.12096         9.04151
     2021.06228       -18.04521         9.01939
     2021.06502       -17.09847         9.15041
     2021.06776        -7.66372         9.05342
     2021.07049       -10.85697         9.05002
     2021.07323       -11.77122         9.14700
     2021.07597       -17.79747         8.98536
     2021.07871       -16.27972         8.91390
     2021.08145       -16.82698         9.02960
     2021.08418       -20.38823         9.12999
     2021.08692       -17.42348         9.10957
     2021.08879       -15.81929        15.91538
     2021.09347       -27.07030        18.65131
     2021.09514       -18.01623         9.21506
     2021.09787       -10.83949         9.24228
     2021.10061       -13.30274         9.04321
     2021.10335       -17.83699         9.04832
     2021.10609       -19.77824         9.00918
     2021.10882       -20.00349         9.00408
     2021.11156       -20.01575         8.99557
     2021.11430       -20.70800         9.08575
     2021.11704       -16.13625         9.11638
     2021.11978       -16.82750         9.06023
     2021.12251       -20.07975         9.17423
     2021.12525       -13.10300         9.00578
     2021.12799        -6.79826         8.91731
     2021.13073       -11.76751         8.95814
     2021.13347       -16.28876         9.03130
     2021.13620       -18.67001         9.05342
     2021.13894       -15.08126         8.91561
     2021.14168       -15.73951         9.15041
     2021.14442        -3.25577         9.22697
     2021.14715       -17.81002         9.05172
     2021.14989       -21.48027         8.96835
     2021.15263       -14.94352         9.17593
     2021.15537       -11.68677         9.13509
     2021.15811       -13.65402         9.40562
     2021.16084       -16.40628         9.23548
     2021.16358       -14.96453         9.22867
     2021.16632       -10.72478         9.38861
     2021.16906       -10.45203         9.47028
     2021.17180       -16.60028         8.95134
     2021.17453       -21.96253         9.22527
     2021.17727       -14.96879         9.27631
     2021.18001       -24.20404         9.20825
     2021.18275       -23.11429         9.56556
     2021.18548       -20.67654         8.94793
     2021.18822       -20.82479         8.95984
     2021.19096       -20.86505         8.96154
     2021.19370       -20.70230         9.12488
     2021.19644       -24.56855         9.01939
     2021.19917       -22.41280         9.08575
     2021.20191       -18.53205         9.00918
     2021.20465       -19.03430         8.96835
     2021.20739       -20.56356         9.03471
     2021.21013       -16.91781         9.31374
     2021.21286       -23.47706         9.31545
     2021.21560       -16.73631         9.12148
     2021.21834       -19.45456         9.15381
     2021.22108       -14.81181         8.95644
     2021.22381       -24.97607         9.00068
     2021.22655       -21.33232         9.32395
     2021.22929       -17.57957         9.03130
     2021.23203       -13.54782         8.98707
     2021.23477       -23.84707         8.95644
     2021.23750       -18.48432         9.00748
     2021.24024       -19.13158         9.06023
     2021.24298       -21.12683         9.00748
     2021.24572       -25.63808         9.05172
     2021.24846       -20.74833         9.15551
     2021.25119       -15.49758         8.94963
     2021.25393       -22.48383         9.25249
     2021.25667       -20.74209         9.01939
     2021.25941       -20.15534         9.06023
     2021.26214       -18.73959         9.14700
     2021.26488       -14.65484         9.00918
     2021.26762       -18.28209         9.17933
     2021.27036       -15.95934        10.13725
     2021.27310       -13.42860         9.24569
     2021.27583       -20.82185         9.11127
     2021.27857       -19.08210         9.14530
     2021.28131       -23.00735         9.06023
     2021.28405       -22.85360         9.17252
     2021.28679       -26.66786         9.38010
     2021.28952       -21.17511        10.09811
     2021.29226       -21.58836         9.30183
     2021.29500       -16.09261         9.11638
     2021.29774       -19.91486         9.51622
     2021.30047       -17.00711         9.41073
     2021.30321       -13.67737         9.22697
     2021.30595       -13.40262         9.56216
     2021.30869        -4.67387         9.43114
     2021.31143       -12.83312         9.02960
     2021.31416        -7.12937         9.08065
     2021.31690       -10.99262         9.12829
     2021.32021       -19.85351        13.22368
     2021.32295       -16.97976        12.45973
     2021.32569       -26.82602        12.12965
     2021.32842       -15.08327        12.47674
     2021.33116        -9.93852        12.20791
     2021.33390       -16.49177        12.07520
     2021.33664       -15.79602        11.91016
     2021.33937       -15.20427        12.16878
     2021.34211       -18.97853        12.15006
     2021.34485       -18.82478        12.36785
     2021.34759       -17.29203        12.53459
     2021.35033       -18.03828        12.64178
     2021.35306       -21.02553        12.12795
     2021.35580       -18.21478        12.20791
     2021.35854       -20.50704        12.19090
     2021.36128       -21.67329        12.67241
     2021.36402       -22.71754        12.18920
     2021.36653       -25.86894        10.86377
     2021.36892       -19.56141         9.13339
     2021.37166       -18.15666         9.12999
     2021.37440       -16.50791         9.11638
     2021.37770       -21.64280        12.30830
     2021.38044       -17.96505        12.66901
     2021.38318       -20.92930        13.04503
     2021.38592       -17.90255        12.73026
     2021.38866       -19.81480        12.46483
     2021.39214        -8.77558       158.52252
     2021.39413       -17.07131        12.33552
     2021.39687       -18.61356        12.32021
     2021.39938       -16.95696        10.80762
     2021.40177       -12.97943         9.35628
     2021.40451       -17.33968         9.40222
     2021.40782       -18.52657        12.41889
     2021.41056       -15.83482        12.20281
     2021.41330       -16.35307        12.41719
     2021.41603       -22.47532        12.29979
     2021.41877       -23.08057        12.56011
     2021.42151       -18.87383        13.02291
     2021.42425        -7.32308        12.56692
     2021.42699       -11.29433        12.54991
     2021.42972        -8.44358        12.23344
     2021.43246        -8.51883        12.33552
     2021.43520       -20.25608        12.33722
     2021.43794       -18.14034        12.60265
     2021.44068        14.24741        12.79662
     2021.44341         6.29816        12.90551
     2021.44615        12.35291        13.08586
     2021.44889         9.82466        13.02291
     2021.45163        13.87441        13.69158
     2021.45436        10.25915        13.77665
     2021.45710        11.08390        13.25260
     2021.45984         9.70065        12.72686
     2021.46258         7.58640        12.92933
     2021.46527        13.23412        13.70009
     2021.46805         7.88390        12.72345
     2021.47079        10.19764        12.96676
     2021.47353        14.32439        12.70814
     2021.47627        10.77014        13.12329
     2021.47901         2.05189        12.63157
     2021.48174        -0.11236        12.89360
     2021.48448         5.16139        12.79151
     2021.48722        -2.90087        12.73877
     2021.48996        -6.34012        12.61966
     2021.49269        -2.46537        12.74387
     2021.49520        19.54223        11.36399
     2021.49817         9.69313        13.60310
     2021.50091        14.31888        13.22708
     2021.50365         6.94962        12.67241
     2021.50638         2.64537        12.70644
     2021.50912        11.23512        13.07565
     2021.51186        10.91587        14.56102
     2021.51458        18.55761        13.28493
     2021.51733        10.19436        12.94804
     2021.52007        17.57311        13.11309
     2021.52281         5.24886        13.05353
     2021.52555        13.12961        12.98207
     2021.52829        13.91736        13.15392
     2021.53102        11.82511        13.26962
     2021.53376        19.88085        12.92763
     2021.53650        21.00260        12.99569
     2021.53924        24.09335        13.63203
     2021.54198        16.47710        13.01951
     2021.54471         9.83685        13.40574
     2021.54745        11.16860        12.93613
     2021.55019        21.23134        13.96041
     2021.55293        14.00509        13.61842
     2021.55566        25.91784        13.24069
     2021.55840        18.95759        13.11309
     2021.56114        14.74334        13.16073
     2021.56388        23.49109        12.96166
     2021.56605        16.35347         9.81227
     2021.56878        16.84522         9.90755
     2021.57152        13.91097        10.52688
     2021.57426         4.89171        10.19680
     2021.57700        22.57646        10.94374
     2021.57974        13.24721         9.85481
     2021.58247         1.73996        10.05388
     2021.58521         4.91971         9.79696
     2021.58795        11.30846        10.21722
     2021.59069        20.16520        10.16447
     2021.59342        15.99695        10.01815
     2021.59616        10.04470        10.24614
     2021.59890        14.86945        10.03516
     2021.60164        15.78820         9.98922
     2021.60438        12.68395         9.82928
     2021.60711        21.99569         9.93477
     2021.60985        27.95544        10.36864
     2021.61259        24.68519         9.91436
     2021.61533        12.81094         9.86161
     2021.61807        14.83469         9.92286
     2021.62080        21.75644         9.85310
     2021.62354        29.04218         9.84630
     2021.62628        19.62993        10.00624
     2021.62902        23.61768         9.83949
     2021.63175        10.19143        10.04367
     2021.63449        13.74918        10.22572
     2021.63723        24.13092        10.56771
     2021.63997        28.12367        10.18999
     2021.64271        26.03842        10.11853
     2021.64544        13.27117         9.81397
     2021.64818        17.10092         9.88713
     2021.65092        14.11067        10.01815
     2021.65366        22.90241         9.83269
     2021.65639        25.81416         9.89564
     2021.65913        20.71891         9.82078
     2021.66187        13.54266         9.67445
     2021.66461        15.61441         9.61660
     2021.66735        15.86416         9.60299
     2021.67008        20.67190         9.77484
     2021.67282        20.03965         9.92286
     2021.67556        15.25940        10.24104
     2021.67830        19.15215        10.01815
     2021.68104        20.10690        10.15256
     2021.68377        20.12365         9.85310
     2021.68651        18.91639         9.86502
     2021.68925        25.37114         9.72550
     2021.69199        24.06489         9.86502
     2021.69472        16.04264         9.83609
     2021.69746        13.70739         9.92116
     2021.70020        24.62714        10.10322
     2021.70294        19.41888         9.76293
     2021.70568        25.93063        10.20871
     2021.70841        19.00238         9.96030
     2021.71115        19.66413         9.84290
     2021.71389        22.91088        10.52518
     2021.71663        26.64463        10.08961
     2021.71937        16.07637        10.08450
     2021.72210        15.73612         9.91436
     2021.72484        19.94987         9.99943
     2021.72758        16.93362         9.96370
     2021.73032        21.94537        10.28357
     2021.73305        26.96611         9.79015
     2021.73579        27.57986         9.89564
     2021.73855        16.84062        10.54730
     2021.74127        -9.41764         9.59448
     2021.74401        -7.22489         9.54004
     2021.74674        -4.38314         9.47368
     2021.74948       -14.96040         9.72379
     2021.75222        -8.92765         9.45837
     2021.75496        -4.67090         9.69487
     2021.75706        -8.33356        13.01270
     2021.76043        -6.31640         9.66254
     2021.76317        -4.76765         9.65744
     2021.76591        -6.65591         9.46688
     2021.76865        -9.27416         9.56216
     2021.77138        -7.44841         9.78675
     2021.77412         0.42034         9.73570
     2021.77686        -1.14191         9.51622
     2021.77960        -3.83516         9.53834
     2021.78234        -4.33842         9.51452
     2021.78507         2.55733         9.50941
     2021.78781         0.35808         9.41413
     2021.79055        -6.56517         9.40732
     2021.79329        -3.42342         9.44476
     2021.79603        -4.80567         9.41923
     2021.79876        -5.37793         9.42434
     2021.80150        -0.08318         9.59959
     2021.80424         1.03757         9.77144
     2021.80698        -5.03568         9.54344
     2021.80971        -2.60993         9.61830
     2021.81245         2.74782         9.60810
     2021.81519         1.72556         9.27801
     2021.81793        10.13731         9.40222
     2021.82067        -4.03594         9.64383
     2021.82340        -3.14019         9.80546
     2021.82614        -4.51644         9.68977
     2021.82888        -7.11070         9.42774
     2021.83162        -5.64595         9.47028
     2021.83436        -4.29320         9.55025
     2021.83709       -11.64845         9.69487
     2021.83983       -11.02270         9.57917
     2021.84257        -2.19995         9.69997
     2021.84531        -4.02321         9.48389
     2021.84804        -1.92046         9.53834
     2021.85078        -4.48671         9.67445
     2021.85352        -6.29896         9.45497
     2021.85626         3.02879         9.33076
     2021.85900        -3.72646         9.30694
     2021.86173        -7.82672         9.33416
     2021.86447        -6.08397         9.71699
     2021.86721        -4.36722         9.95859
     2021.86995         1.22253        10.04537
     2021.87269         2.18728         9.83949
     2021.87542        -7.34697         9.62341
     2021.87816       -15.17823         9.42604
     2021.88090       -10.38848         9.36649
     2021.88364       -18.32173         9.58598
     2021.88637        -9.54098         9.45497
     2021.88911       -15.68623         9.43285
     2021.89185       -15.78548         9.31034
     2021.89459       -10.94374         9.31545
     2021.89733       -10.43799         9.36989
     2021.90006        -7.76124         9.47198
     2021.90280        -3.27849         9.52643
     2021.90554        -8.27174         9.48389
     2021.90828        -3.24400         9.46177
     2021.91102        -4.98025         9.42264
     2021.91374        -3.63850         9.58257
     2021.92839        -7.62715        18.07622
     2021.93018       -15.59101         9.47708
     2021.93292        -5.73326         9.66765
     2021.93566        -2.77151         9.82588
     2021.93760        -7.39327        14.78051
     2021.94784        -4.86473        29.73286
     2021.94935        -2.25677        10.66300
     2021.95154         0.68763        12.11433
     2021.97792        -4.49653        26.40823
     2021.97946         3.21846         9.43625
     2021.98105         5.00948        22.56635
     2021.99133        12.78304        26.16492
     2021.99415         0.83984        18.13577
     2021.99469        -2.83481        25.69702
     2021.99963         3.40834        17.78017
     2022.00135        -5.27256        16.23695
     2022.00514        -4.15414        20.81215
     2022.02717        -4.09308        23.08529
     2022.02771       -20.16573        19.89167
     2022.04364        -1.96156        27.20791
     2022.04517       -10.78358         9.60639
     2022.04791       -12.45683         9.45156
     2022.05728        -8.92985        22.92195
     2022.05886       -20.37784         9.47879
     2022.06043       -28.43384        27.78300
     2022.07348       -15.49450        16.23865
     2022.07529       -16.61135         9.21166
     2022.07802       -15.70060         9.31715
     2022.08076        -7.31885         9.47708
     2022.08350        -1.48210         9.54344
     2022.08624       -11.33136         9.30694
     2022.08898       -12.70861         9.25249
     2022.09171       -15.04686         9.28652
     2022.09445       -16.46911         9.23888
     2022.09719       -14.70036         9.36139
     2022.09993       -22.44262         9.60810
     2022.10266       -15.08187         9.69827
     2022.10540       -12.71212         9.20825
     2022.10814       -12.77837         9.25930
     2022.11088       -14.19162         9.56726
     2022.11362       -13.65187         9.34777
     2022.11635       -11.77313         9.26270
     2022.11909       -12.62338         9.22527
     2022.12183       -12.30763         9.30354
     2022.12457        -8.74088         9.61320
     2022.12731       -11.21113         9.36479
     2022.13004       -18.76838         9.39541
     2022.13278       -13.62964         9.33416
     2022.13552       -12.73489         9.28652
     2022.13826       -10.67114         9.45837
     2022.14099       -10.82339         9.37159
     2022.14373       -23.43764         9.31715
     2022.14647       -13.63789         9.23378
     2022.14921       -14.33215         9.66595
     2022.15195       -16.54540         9.65404
     2022.15468       -13.86765         9.31034
     2022.15742        -5.87890         9.37330
     2022.16016        24.42585         9.43455
     2022.16290       -10.26640         9.34097
     2022.16564       -14.45066         9.36649
     2022.16837       -11.69291         9.39201
     2022.17111       -15.82616         9.32565
     2022.17385       -12.98341         9.30183
     2022.17659       -17.00566         9.29673
     2022.17932       -22.77792         9.27801
     2022.18206       -24.18517         9.30183
     2022.18480       -22.90442         9.28142
     2022.18754       -16.58067         9.45837
     2022.19028       -21.29492         9.43455
     2022.19301        -9.93617         9.26100
     2022.19575       -11.39443         9.30524
     2022.19849       -15.10868         9.41073
     2022.20123       -16.34293         9.44646
     2022.20397       -13.84618         9.30183
     2022.20670       -16.81543         9.49750
     2022.20944       -14.19868         9.48899
     2022.21218       -14.54794         9.41583
     2022.21492       -16.03719         9.33927
     2022.21765       -16.94044         9.29333
     2022.22039       -19.82569         9.31715
     2022.22313       -18.45894         9.55705
     2022.22587       -20.83019         9.53834
     2022.22861       -19.21145         9.58087
     2022.23134       -15.14270         9.80206
     2022.23408       -12.96495        10.68852
     2022.23677        -8.45723        13.59630
     2022.23981       -10.97929        12.70474
     2022.24227       -13.51272        10.17638
     2022.24451       -13.56829        17.24591
     2022.24777       -10.06921        11.65664
     2022.25051       -19.90846        12.19600
     2022.25325       -19.28971        10.11343
     2022.25598       -10.14696         9.56046
     2022.25872       -14.77921         9.50431
     2022.26146       -19.43147         9.31715
     2022.26420       -18.92372         9.34607
     2022.26694       -22.30297         9.84119
     2022.26967       -17.07722         9.41073
     2022.27241       -11.03247         9.40052
     2022.27515       -12.59473         9.56216
     2022.27789       -12.07398         9.34267
     2022.28062       -16.07723         9.38691
     2022.28336       -16.10848         9.29503
     2022.28610       -13.47073         9.45837
     2022.28884       -20.02498         9.54174
     2022.29158       -19.78924         9.27121
     2022.29431       -17.08249         9.27631
     2022.29705       -11.86474         9.50431
     2022.29979       -13.46999         9.35288
     2022.30253       -16.12724         9.46007
     2022.30527       -16.07149         9.62171
     2022.30800       -20.76775         9.45667
     2022.31074       -18.32000         9.49750
     2022.31348       -16.16525         9.32225
     2022.31622       -18.55950         9.34607
     2022.31816       -29.47826        15.91878
     2022.33629       -29.46668        18.36036
     2022.33812       -18.88351         9.77824
     2022.34086       -12.68677         9.50431
     2022.34360       -14.91702         9.31204
     2022.34633       -10.34027         9.48729
     2022.34907       -12.13852         9.34097
     2022.35181       -12.65077         9.34097
     2022.35455       -14.18102         9.36479
     2022.35728       -20.93228         9.35458
     2022.36002       -15.32853         9.35288
     2022.36276       -15.67478         9.44306
     2022.36550       -20.42303         9.38861
     2022.36824       -16.08328         9.32055
     2022.37097       -15.46854         9.37330
     2022.37371       -20.91179         9.43114
     2022.37645       -20.41704         9.42434
     2022.37919       -12.59829         9.68636
     2022.38193       -21.00454         9.58598
     2022.38466       -22.78579         9.44135
     2022.38740       -35.56105         9.37500
     2022.39014       -25.16530         9.35798
     2022.39288       -17.53455         9.40732
     2022.39561       -20.79080         9.49920
     2022.39835       -19.56605         9.31885
     2022.40109       -19.55030         9.63532
     2022.40383       -14.06256         9.22697
     2022.40657       -15.27181         9.43285
     2022.40930       -24.15806         9.40903
     2022.41204       -22.30431         9.42944
     2022.41478       -21.93556         9.26610
     2022.41752       -21.15481         9.48389
     2022.42026       -21.90907         9.58257
     2022.42299       -22.11232         9.23888
     2022.42573       -22.32157         9.48049
     2022.42847       -21.78182         9.33586
     2022.43121       -23.87807         9.38180
     2022.43394       -14.00432         9.42774
     2022.43668       -23.37058         9.37840
     2022.43942       -13.39383         9.30013
     2022.44216       -13.53908         9.66254
     2022.44490       -12.15633         9.55535
     2022.44763       -13.53558         9.15211
     2022.45037       -24.96084         9.18273
     2022.45311       -24.90809         9.15891
     2022.45585       -21.46434         9.20825
     2022.45859       -32.84759         9.17593
     2022.46132       -17.69684         9.70678
     2022.46406       -24.37509         9.22867
     2022.46680       -21.61735         9.22187
     2022.46954       -17.20160         9.23548
     2022.47227       -30.24485         9.24399
     2022.47501        -8.62710         9.51111
     2022.47775       -22.10835         9.54684
     2022.48042       -22.73965         9.62511
     2022.48313       -15.11492        10.06919
     2022.48596       -18.92111         9.19464
     2022.48870       -24.62736         9.44476
     2022.49144       -23.35561         9.42264
     2022.49418       -17.31786         9.59448
     2022.49692       -27.40611         9.26951
     2022.49941       -23.14752        12.53800
     2022.50217       -30.80676        12.83915
     2022.50514       -13.32686        12.33382
     2022.50788       -12.65711        10.00624
     2022.51060       -19.53937         9.50941
     2022.51334       -25.37762         9.27631
     2022.51608       -23.41788         9.61660
     2022.51882       -24.35413         9.65404
     2022.52144       -18.24146         9.68636
     2022.52430       -20.62763         9.49920
     2022.52703       -18.47388         9.26951
     2022.52977        -8.42513         9.55365
     2022.53251       -19.28439         9.53323
     2022.53525       -19.20664         9.57066
     2022.53798       -22.98189         9.98582
     2022.54072       -17.35314        10.09641
     2022.54347       -13.20539         9.68636
     2022.54620       -17.74765         9.38861
     2022.54893       -19.48690         9.57237
     2022.55167       -11.08815         9.37670
     2022.55441       -14.60240         9.40392
     2022.55715        -5.77565        10.71234
     2022.55989       -12.90290         9.92627
     2022.56262       -16.46216         9.39371
     2022.56536       -27.72241         9.46177
     2022.56810       -15.02166         9.44986
     2022.57084       -17.45391         9.42774
     2022.57357       -18.26016        10.15766
     2022.57631       -13.83741         9.46858
     2022.57905       -19.90667         9.57407
     2022.58179        -9.59292         9.45156
     2022.58453        -6.22317         9.63532
     2022.58726       -15.88042         9.36139
     2022.59000        -7.42067         9.75272
     2022.59274       -24.40092         9.28652
     2022.59548       -14.30918         9.27801
     2022.59822       -21.21343         9.73230
     2022.60095       -23.33468         9.23548
     2022.60369       -15.90593         9.29503
     2022.60643       -12.47818         9.40052
     2022.60917        -7.41843         9.52983
     2022.61190         2.77731        10.11343
     2022.61464         6.60406        10.01134
     2022.61738        -8.68219         9.59108
     2022.62012       -14.75644         9.20315
     2022.62286       -11.78869         9.36819
     2022.62559       -13.14794         9.17252
     2022.62833       -12.61720         9.21676
     2022.63107       -13.65145         9.90415
     2022.63381        -4.59570         9.42094
     2022.63655        -9.85295         9.53493
     2022.63928       -13.81820         9.37159
     2022.64202       -11.52546        10.00794
     2022.64476       -14.82971        10.15596
     2022.64750        -8.55596         9.58257
     2022.65023        -5.40621         9.87863
     2022.65297        -8.89846         9.59448
     2022.65571        -5.76671         9.48049
     2022.65845         0.58103         9.33757
     2022.66119        -6.53122         9.31545
     2022.66392        -4.13147         9.31715
     2022.66666        -3.75172         9.74591
     2022.66940        -8.57997         9.34607
     2022.67214        -6.21622         9.42944
     2022.67488        -0.79048         9.43965
     2022.67761        -2.26273         9.44986
     2022.68035        -1.47098         9.20825
     2022.68309        -0.71023         9.35458
     2022.68583         5.23552         9.65744
     2022.68856        -2.23773         9.52132
     2022.69130        -0.92699         9.34267
     2022.69404        -2.58424         9.28482
     2022.69678        -5.81249         9.56896
     2022.69952        -9.09474         9.81227
     2022.70225         0.38101         9.93988
     2022.70499        -5.96424         9.70338
     2022.70773        -1.16150         9.22867
     2022.71047        -4.84275         9.37670
     2022.71321         2.71100         9.11808
     2022.71868        -2.33650         9.42944
     2022.72142         1.43224         9.37159
     2022.72416         1.61799         9.39031
     2022.72689         0.48274         9.55875
     2022.72963         1.47649         9.50771
     2022.73238        -6.14376         9.30864
     2022.73511        -5.15501         9.59108
     2022.73785        -5.50727         9.68466
     2022.74058         2.40148         9.67956
     2022.74332        -0.29577         9.74932
     2022.74606         0.83598         9.44135
     2022.74880        -3.59527         9.92457
