# ================= DQRFIT RESULTS ================
# INPUT FILE: series/EMBL.rad
# OUTPUT: LDETRENDED
# FILTER FUNCTION: f(t)
# f(t)=+line(t)
# line(t)=+P 1+P 2*t
# heav(t)=(t<0?0:1)
# TOTAL OBSERVATIONS MTOT=  235
# INITIAL TIME INTERVAL= 2010.9979 - 2010.2998 =  0.6982
# TOTAL OBSERVATIONS AFTER PREFILTER M=  231
# TIME-SPAN= 2010.9979 - 2010.2998 =  0.6982
# OBSERVATIONS: USED M=   231 REJECTED MTOT-M=     4 %USED=   98.2979
# N=  2 PARAMETERS
# MAXSIG= 175.00000
# MAXRES=  16.99609
# SCALE FACTOR FOR LENGTHS: SCL=  10.00000
# SCALE FACTOR FOR SIGMAS: SCLSIG=   1.00000
# CHI^2=    418.677 DOF=   229 CHI^2/DOF=   1.82828
# RMS=      7.735 SDEV=      7.752 MEAN=    0.04853
#  P #       PARAMETER +-    SIGMA %error PARAMETER NAME
# P 1 =     -4928.95500 +- 5018.008 101.81 YZERO                              
# P 2 =         2.46506 +-    2.496 101.24 SLOPE                              
#       T            LDETRENDED       SIG_OBS
     2010.29979         8.22249         7.82019
     2010.30253        -0.08345         7.67078
     2010.30527         2.27116         7.85071
     2010.30801        11.66267         7.65828
     2010.31075        -0.06748         7.59683
     2010.31348        -1.38915         7.57673
     2010.31622        12.03535         7.55346
     2010.31896         2.77804         7.82623
     2010.32170        -0.83087         7.70696
     2010.32444         2.17576         7.69153
     2010.32717        -8.54742         7.76450
     2010.32991        -0.47960         7.58915
     2010.33265        -2.42319         7.64502
     2010.33539         0.40916         7.78426
     2010.33812        -2.68589         7.65765
     2010.34086       -14.74554         7.49422
     2010.34360        -4.80896         7.52109
     2010.34634        -2.48990         7.62904
     2010.34908        -3.78968         7.55360
     2010.35181         0.12711         7.51710
     2010.35455        -1.47886         8.76721
     2010.35729        -9.49162        18.27677
     2010.36003         2.48982         7.67539
     2010.36277         1.07291         7.58131
     2010.36550         1.55502         7.86790
     2010.36824         3.87225         7.75883
     2010.37098         3.85655         7.72706
     2010.37372         3.98879         7.53842
     2010.37645        -2.64159         7.60326
     2010.37919        -8.57553         7.83837
     2010.38193       -11.73157         8.01518
     2010.38467        -3.60681         7.66949
     2010.38741        -2.62041         7.63491
     2010.39014        -9.72177         7.63553
     2010.39288       -11.90994         7.66578
     2010.39562        -3.17483         7.60733
     2010.39836       -11.73990         7.46262
     2010.40110        -4.99814         7.55890
     2010.40383       -10.91664         7.47927
     2010.40657       -20.15231         7.50535
     2010.40931        -7.36760         7.51536
     2010.41205       -10.51245         7.58597
     2010.41478        -4.26991         7.55453
     2010.41752        -6.36309         7.49949
     2010.42026         1.19946         7.60809
     2010.42300        -4.34541         7.52212
     2010.42574        -2.77039         7.48070
     2010.42847        -5.06550         7.43395
     2010.43121       -14.58161         7.43852
     2010.43395        -6.24191         7.47072
     2010.43669        -9.52702         7.45117
     2010.43943       -12.43389         7.42735
     2010.44216       -13.18000         7.47303
     2010.44490        -7.88553         7.45999
     2010.44764        -4.70848         7.64125
     2010.45038        -4.03016         7.44990
     2010.45311        -4.49287         7.50232
     2010.45585       -11.75822         7.70179
     2010.45859        -1.95214         7.70952
     2010.46133         2.36872         8.18051
     2010.46407         0.25089         7.88374
     2010.46680       -13.18423         8.33276
     2010.46954        -8.44037         7.63657
     2010.47228        -2.03917         7.52077
     2010.47502        -2.33414         7.65641
     2010.47775        -0.45811         7.80322
     2010.48049        -3.68310         8.40540
     2010.48323         1.84729         7.46532
     2010.48597        -4.41259         7.43979
     2010.48871        -2.24767         9.05383
     2010.49418        -5.13600         7.48773
     2010.49692        -2.53125         7.42297
     2010.49966        -5.73577         7.41692
     2010.50240        -1.57680         7.41441
     2010.50513         1.24903         7.43184
     2010.50787        -7.23267         7.43546
     2010.51061         1.42248         7.42459
     2010.51335         3.83153         7.39918
     2010.51608         0.46807         7.57300
     2010.51882         8.55613         7.44393
     2010.52156         0.51579         7.53568
     2010.52430        -0.31418         7.46637
     2010.52704        -9.06876         7.42979
     2010.52977         5.24631         7.73984
     2010.53251         3.23173         7.46021
     2010.53525         2.49318         7.48700
     2010.53799         4.71029         7.50103
     2010.54073         4.36682         7.69370
     2010.54346        -2.02269         8.00947
     2010.54620         2.70893         7.54029
     2010.54894         2.90085         7.45010
     2010.55168         1.38637         7.49506
     2010.55441         8.10522         8.01667
     2010.55715         4.04149         7.56942
     2010.55989        -0.71206         7.43249
     2010.56263         7.34015         7.87181
     2010.56537         7.04592         7.88517
     2010.56810         5.27603         7.48000
     2010.57084         5.45359         7.60237
     2010.57358        -3.42682         7.62930
     2010.57632        -1.61239         7.68201
     2010.57906        -3.01809         7.58509
     2010.58179        12.81477         7.45570
     2010.58453         1.02534         7.48260
     2010.58727         2.17712         7.64061
     2010.59001        16.99609         7.90157
     2010.59274        13.23961         7.90795
     2010.59548        12.07552         7.46404
     2010.59822         8.27240         7.49259
     2010.60096         2.22947         7.47671
     2010.60370         5.21353         7.54243
     2010.60643         1.80862         7.50000
     2010.60917         6.80134         7.42967
     2010.61191         6.20571         7.46142
     2010.61465        10.45553         7.67269
     2010.61739        12.74257         7.51525
     2010.62012        13.78429         7.66008
     2010.62286         5.63555         7.69176
     2010.62560         2.15299         7.54988
     2010.62834         2.20777         7.63777
     2010.63107        16.24391         7.85566
     2010.63381         6.19473         7.56337
     2010.63655        12.91255         7.74995
     2010.63929        -1.39265         7.47384
     2010.64203         3.23164         8.55374
     2010.64476         6.59087         7.68394
     2010.64750         7.84428         7.51249
     2010.65024         5.56485         7.67742
     2010.65298         7.43935         7.79681
     2010.65572         5.61527         7.45270
     2010.65845        13.01908         7.40729
     2010.66119         8.51640         7.48600
     2010.66393         2.44862         7.51148
     2010.66667        -0.93125         7.42217
     2010.66940         3.26595         7.37141
     2010.67214         8.85804         8.42860
     2010.67488         9.69366         7.60063
     2010.67762         9.21473         7.43382
     2010.68036         6.61718         7.41527
     2010.68309        -0.29015         7.40450
     2010.68583        -0.47468         7.45818
     2010.68857         1.13751         7.44744
     2010.69131         5.41744         7.43389
     2010.69405         8.08061         7.61559
     2010.69678         3.59072         7.44561
     2010.69952        16.11203         7.89734
     2010.70226        10.13270         8.44360
     2010.70500         5.50424        11.82225
     2010.70773         1.80834         8.23419
     2010.71321         7.44590         7.49891
     2010.71595         4.21335         7.64253
     2010.71869        -0.17924        13.16753
     2010.72142         6.19130         8.61294
     2010.72416         2.25704         7.63786
     2010.72690        -3.17442         7.82521
     2010.72964         4.40969         7.49431
     2010.73238         3.26618         7.67502
     2010.73511         6.27965         7.49412
     2010.73785         4.20579         7.63199
     2010.74059         6.47313         7.70269
     2010.74333        10.23822         8.93764
     2010.77892        -9.47606        21.84465
     2010.78166         5.81450         7.48921
     2010.78439        11.01154         7.75263
     2010.78713         2.29888         7.95492
     2010.78987         9.17581         7.43318
     2010.79261         7.51798         7.42309
     2010.79535         8.57032         7.55502
     2010.79808         6.14264         7.58196
     2010.80082         7.35925         7.53790
     2010.80356        14.05932         7.69922
     2010.80630        -2.63988         7.45235
     2010.80903        10.74827         7.60926
     2010.81177        10.88957         7.57050
     2010.81451         6.32934         7.56676
     2010.81725         3.92118        10.78051
     2010.81999        12.96959        18.67884
     2010.82272        10.81384         8.13387
     2010.82546         6.35228         8.06899
     2010.82820         3.68660         7.65635
     2010.83094        -2.61650         7.91047
     2010.83368       -11.45333         7.77195
     2010.83641        -8.82322         7.54807
     2010.83915         2.88692         7.86601
     2010.84189         4.30728         7.43170
     2010.84463        12.72694         7.55859
     2010.84736         5.87740         7.46698
     2010.85010        -1.08677         7.60650
     2010.85284        -5.15973         7.51545
     2010.85558        -0.97706         7.46957
     2010.85832        -3.00494         7.45633
     2010.86105        -9.98500         7.35005
     2010.86379        -9.98257         7.47641
     2010.86653        -8.82217         7.54463
     2010.86927        -8.94306         7.41302
     2010.87201       -16.46770         7.55255
     2010.87474        -5.04419         7.45840
     2010.87748        -1.98096         7.60186
     2010.88296        -2.71055         7.55597
     2010.88569        -0.46154         7.36569
     2010.88843         1.06347         8.90154
     2010.91581       -26.12783         9.78136
     2010.91855        -8.44119         7.30008
     2010.92129        -8.64637         7.36424
     2010.92402        10.35859         7.35589
     2010.92676        -1.96700         7.65515
     2010.92950        -0.33391         7.29534
     2010.93224        -3.61130         7.39819
     2010.93498        -6.48951         7.68051
     2010.93771        -8.57280         7.34802
     2010.94045        -6.06101         7.48645
     2010.94319        -7.19802         7.46749
     2010.94593       -19.06083         7.45716
     2010.94867       -13.62805         7.34945
     2010.95140       -12.65781         7.71966
     2010.95414        -9.34896         7.43871
     2010.95688       -29.94121         7.36993
     2010.95962         1.60921         7.64748
     2010.96235         2.91625         8.14150
     2010.96509         1.83869         7.51549
     2010.96783         4.99922         7.52437
     2010.97057         0.37117         7.74703
     2010.97331        -0.52383         7.48646
     2010.97604        -5.20307         7.49943
     2010.97878        -8.45098         7.35029
     2010.98152       -12.82235         7.32018
     2010.98426       -15.50011         7.66903
     2010.98973        -4.34707         8.22391
     2010.99247        -6.84637         7.63918
     2010.99521         0.89817         7.75326
     2010.99795         2.92033         7.71512
