# ================= DQRFIT RESULTS ================
# INPUT FILE: series/EMBR.rad
# OUTPUT: LDETRENDED
# FILTER FUNCTION: f(t)
# f(t)=+line(t)
# line(t)=+P 1+P 2*t
# heav(t)=(t<0?0:1)
# TOTAL OBSERVATIONS MTOT=  192
# INITIAL TIME INTERVAL= 2010.9979 - 2010.2998 =  0.6982
# TOTAL OBSERVATIONS AFTER PREFILTER M=  186
# TIME-SPAN= 2010.9979 - 2010.2998 =  0.6982
# OBSERVATIONS: USED M=   186 REJECTED MTOT-M=     6 %USED=   96.8750
# N=  2 PARAMETERS
# MAXSIG= 175.00000
# MAXRES=  20.90681
# SCALE FACTOR FOR LENGTHS: SCL=  10.00000
# SCALE FACTOR FOR SIGMAS: SCLSIG=   1.00000
# CHI^2=    190.979 DOF=   184 CHI^2/DOF=   1.03793
# RMS=     12.130 SDEV=     11.925 MEAN=   -2.38304
#  P #       PARAMETER +-    SIGMA %error PARAMETER NAME
# P 1 =     10475.95553 +- 5901.055  56.33 YZERO                              
# P 2 =        -5.18847 +-    2.935  56.56 SLOPE                              
#       T            LDETRENDED       SIG_OBS
     2010.29979       -36.33908        33.79364
     2010.30527       -14.15699        26.84790
     2010.30801       -24.60692        64.85986
     2010.31075       -33.19617        39.35191
     2010.31348       -52.57462        74.46450
     2010.31622       -34.27308       102.42948
     2010.31896       -48.79375        30.66754
     2010.32170       -51.68029        29.96620
     2010.32444       -46.95058        28.50883
     2010.32717       -45.09672        39.02711
     2010.33265       -44.93608        35.21009
     2010.33539        -8.74167        53.15003
     2010.34086       -15.74054        73.16257
     2010.34634         4.37860        54.65764
     2010.46133       -22.20717       129.27418
     2010.46407       -14.32452        10.58173
     2010.46680        -8.89763        14.07578
     2010.46954         0.37601        15.73648
     2010.47228       -12.56431        14.72858
     2010.47502       -14.19807        12.28665
     2010.47775        -5.85891        10.20648
     2010.48049        -8.52803        14.54222
     2010.48323        -1.28303         5.79247
     2010.48597        -4.40872         5.64697
     2010.48871        -4.15849         7.02808
     2010.49418        -9.18843         6.74928
     2010.49692        -6.09515         5.65076
     2010.49966       -10.73030         5.63140
     2010.50240        -4.32055         5.63239
     2010.50513        -1.06353         5.63626
     2010.50787        -5.78530         5.68445
     2010.51061        -2.46963         5.63043
     2010.51335        -1.79113         5.62183
     2010.51608        -3.65205         5.62128
     2010.51882        -0.73732         5.80783
     2010.52156        -4.61188         5.65774
     2010.52430        -6.05587         5.70399
     2010.52704       -13.53475         5.64031
     2010.52977         1.42040         5.62335
     2010.53251        -0.36536         5.80086
     2010.53525        -1.19615         5.73442
     2010.53799         1.40408         5.66564
     2010.54073         1.74544         6.00900
     2010.54346        -9.18653         6.62479
     2010.54620        -0.11916         5.66132
     2010.54894         3.93383         6.47383
     2010.55168         0.81649         5.76959
     2010.55441         5.49392         5.67746
     2010.55715        -4.90650         5.98923
     2010.55989        -4.02540         5.80699
     2010.56263         4.65545         5.93668
     2010.56537         6.33280         5.69565
     2010.56810         0.45903         5.81456
     2010.57084         1.61559         5.69601
     2010.57358        -9.39156         5.79772
     2010.57632        -4.19866         5.81598
     2010.57906        -3.41884         5.64873
     2010.58179         9.81049         5.69163
     2010.58453        -4.87008         5.69416
     2010.58727        -3.97799         5.77971
     2010.59001        13.68565         5.94579
     2010.59274        12.14456         6.16023
     2010.59548        10.86808         5.84405
     2010.59822         4.16921         5.84152
     2010.60096         0.62923         5.67273
     2010.60370         2.10286         5.85915
     2010.60643         0.80179         5.67576
     2010.60917         5.89220         5.64137
     2010.61191         3.11755         5.66472
     2010.61465         3.44182         5.67843
     2010.61739         6.30470         5.86538
     2010.62012         7.38004         5.84805
     2010.62286         4.48154         5.74630
     2010.62560        -2.19756         5.68542
     2010.62834        -0.28577         5.79560
     2010.63107         6.66725         5.93731
     2010.63381         4.50731         5.71987
     2010.63655        14.22147         5.85699
     2010.63929        -3.87775         5.70433
     2010.64203        -0.37300         6.46927
     2010.64476         0.39797         5.88251
     2010.64750         2.77146         5.80632
     2010.65024         4.03982         5.83044
     2010.65298         5.74637         5.90745
     2010.65572         2.52079         5.71716
     2010.65845         8.09142         5.69246
     2010.66119         4.98078         5.77584
     2010.66393         2.38700         5.70830
     2010.66667        15.87715        27.16016
     2010.66940         1.00505        27.37197
     2010.67214        13.98539        21.61775
     2010.67488         8.28032        27.66189
     2010.67762        20.90681        27.44490
     2010.68036        -8.93750        25.95414
     2010.68309         5.22533        25.28371
     2010.68583        12.82840        26.99059
     2010.68857        -4.06875        26.61833
     2010.69131         3.64564        26.09019
     2010.69405         8.57474        26.27693
     2010.69678        -9.86454        25.80197
     2010.69952        -1.94834        22.61365
     2010.70226        13.33983        29.34837
     2010.70500        -5.88753        15.29137
     2010.70773        -2.31741         6.41571
     2010.71321         3.30587         5.73214
     2010.71595         5.23322         5.85840
     2010.71869        -6.11258         9.68936
     2010.72142         8.03449         6.36588
     2010.72416        -2.06498         5.87675
     2010.72690        -5.17255         5.78608
     2010.72964         1.34264         5.85145
     2010.73238        -0.12462         5.84009
     2010.73511         4.69744         5.98701
     2010.73785         0.82443         5.97094
     2010.74059         3.98550         5.97329
     2010.74333         6.62608         6.81362
     2010.77892        -5.23944        19.52001
     2010.78166         0.51522         6.04164
     2010.78439         4.82445         6.22026
     2010.78713        -0.92973         6.23262
     2010.78987         4.82744         5.75011
     2010.79261         5.73928         5.79549
     2010.79535         6.00792         5.85088
     2010.79808        -1.39841         5.82942
     2010.80082         1.38018         5.84507
     2010.80356         8.89301         5.94378
     2010.80630        -1.42311         5.88999
     2010.80903         7.75690         5.86023
     2010.81177         8.76891         5.82075
     2010.81451         3.32963         5.93053
     2010.81725         1.91532         5.80383
     2010.81999         4.80854         5.91087
     2010.82272        11.03311         5.81166
     2010.82546         4.58981         5.88447
     2010.82820         6.49754         5.87260
     2010.83094        -1.69468         6.13239
     2010.83368        -9.66974         6.02674
     2010.83641        -5.92753         5.86851
     2010.83915         2.17490         5.85170
     2010.84189        -0.27993         5.76200
     2010.84463        12.17717         5.88313
     2010.84736         2.25737         5.90020
     2010.85010         0.61896         5.89239
     2010.85284        -0.89743         5.81593
     2010.85558         3.84433         6.16893
     2010.85832         1.55032         5.83989
     2010.86105       -11.55498         5.75043
     2010.86379        -6.78505         5.91070
     2010.86653        -4.55298         6.05666
     2010.86927        -2.95064         5.78210
     2010.87201       -15.31520         5.90384
     2010.87474        -5.88908         5.75981
     2010.87748         0.44945         5.88605
     2010.88296         0.17757         5.90138
     2010.88569        -1.27671         5.77120
     2010.88843        -0.68726         6.82768
     2010.91855        -7.02842         5.84207
     2010.92129        -6.89335         5.74146
     2010.92402        11.07724         5.72011
     2010.92676        -0.83694         5.95213
     2010.92950        -1.58852         5.70788
     2010.93224        -4.78238         5.82038
     2010.93498        -5.77349         6.06152
     2010.93771        -2.76616         5.78286
     2010.94045         0.00436         5.87235
     2010.94319        -6.74963         5.77895
     2010.94593       -15.69654         5.75741
     2010.94867       -12.80828         5.68151
     2010.95140        -4.06196         5.90621
     2010.95414        -4.95049         5.79951
     2010.95688       -14.96505         5.68496
     2010.95962        -0.30859         5.98400
     2010.96235         8.14597         5.99851
     2010.96509         0.68354         5.80084
     2010.96783         6.30547         5.97568
     2010.97057         1.49715         5.67568
     2010.97331         0.24398         5.67517
     2010.97604        -8.21003         5.93703
     2010.97878        -6.73918         5.67472
     2010.98152       -10.71011         5.70819
     2010.98426        -8.84219         5.84121
     2010.98700         0.54968         6.01502
     2010.98973        15.67047         6.54553
     2010.99247         1.55772         5.92617
     2010.99521        10.59636         5.84027
     2010.99795         7.39796         5.81839
