# ================= DQRFIT RESULTS ================
# INPUT FILE: series/ENTR.rad
# OUTPUT: LDETRENDED
# FILTER FUNCTION: f(t)
# f(t)=+line(t)+annual(t)
# line(t)=+P 1+P 2*t
# annual(t)=+P 3*sin(2*pi*t+P 4)
# heav(t)=(t<0?0:1)
# TOTAL OBSERVATIONS MTOT= 4144
# INITIAL TIME INTERVAL= 2022.4305 - 2008.9949 = 13.4356
# TOTAL OBSERVATIONS AFTER PREFILTER M= 4131
# TIME-SPAN= 2022.4305 - 2008.9949 = 13.4356
# OBSERVATIONS: USED M=  4131 REJECTED MTOT-M=    13 %USED=   99.6863
# N=  4 PARAMETERS
# MAXSIG= 175.00000
# MAXRES=  21.93724
# SCALE FACTOR FOR LENGTHS: SCL=  10.00000
# SCALE FACTOR FOR SIGMAS: SCLSIG=   1.00000
# CHI^2=   4457.834 DOF=  4127 CHI^2/DOF=   1.08016
# RMS=      6.004 SDEV=      6.004 MEAN=   -0.08181
#  P #       PARAMETER +-    SIGMA %error PARAMETER NAME
# P 1 =      1135.37456 +-   51.196   4.51 YZERO                              
# P 2 =        -0.56274 +-    0.025   4.51 SLOPE                              
# P 3 =         4.66330 +-    0.129   2.76 ANNUAL AMPLITUDE                   
# P 4 =         3.02281 +-    0.039   1.28 ANNUAL PHASE                       
#       T            LDETRENDED       SIG_OBS
     2008.99494        -2.06034        13.98390
     2008.99657         0.04458         5.86586
     2008.99931        -3.78188         5.92510
     2009.00479        -5.05480         5.85651
     2009.00752        -3.92626         5.77336
     2009.01026       -10.94672         5.83468
     2009.01300        -6.01818         5.91263
     2009.01574        -7.97964         5.98226
     2009.01848        15.00190         5.99889
     2009.02121         1.81244         6.02487
     2009.02395        -6.42001         5.94589
     2009.02669       -15.14247         5.93134
     2009.02943       -21.63193         6.03631
     2009.03216       -19.30239         5.90639
     2009.03490       -15.56985         5.78375
     2009.03764       -13.89131         5.76193
     2009.04038       -13.70177         5.84092
     2009.04312       -14.14123         5.84403
     2009.04585       -15.31069         5.88561
     2009.04859       -16.95215         5.75673
     2009.05133       -16.12361         5.72347
     2009.05407       -18.21107         5.82117
     2009.05681        -8.29953         5.86482
     2009.05954        -9.96599         5.92094
     2009.06211       -16.01154         7.20761
     2009.07141       -20.36131         9.97633
     2009.07323       -12.32328         5.96979
     2009.07597       -17.82974         6.25768
     2009.07871       -13.14920         5.74530
     2009.08145       -12.48866         5.68918
     2009.08418        -7.38412         5.69333
     2009.08692        -7.46458         5.73179
     2009.08966       -11.92404         5.76920
     2009.09240       -13.75450         5.88873
     2009.09514        -3.56496         5.75673
     2009.09787        -4.93142         5.75361
     2009.10061         0.48912         5.76713
     2009.10335       -10.42433         5.78583
     2009.10609        -4.33079         5.83468
     2009.10882        -0.76425         5.75673
     2009.11156        -3.23071         5.72244
     2009.11430        -6.07917         5.79831
     2009.11704        -1.96763         5.92510
     2009.11978        -3.61409         5.79207
     2009.12251        -0.22255         5.77752
     2009.12525        -2.77401         5.74010
     2009.12799        -2.54447         5.71724
     2009.13073         3.23807         5.80870
     2009.13347        -7.63839         5.77752
     2009.13620        -9.15385         5.83676
     2009.13894        -4.01531         5.72763
     2009.14168        -9.40776         5.78687
     2009.14442        -4.52422         5.74426
     2009.14715        -8.66568         6.05190
     2009.14989       -20.46414         6.04982
     2009.15263        -1.24060         5.81078
     2009.15537        -9.00306         6.00201
     2009.15811        -6.68852         5.84923
     2009.16084        -8.17098         5.79831
     2009.16358         2.99256         5.88353
     2009.16632       -14.05790         6.07372
     2009.16906         2.55164         5.96979
     2009.17180        -0.33082         5.77648
     2009.17453        -2.46128         5.80246
     2009.17727        -0.25974         6.08204
     2009.18001        -3.72120         5.83676
     2009.18275        -4.04165         5.96563
     2009.18548        -7.93311         5.80766
     2009.18822       -11.64657         5.87210
     2009.19096        -7.93803         5.89704
     2009.19370        -9.90149         5.86482
     2009.19644        -7.47495         5.86066
     2009.19917        -0.01941         5.89912
     2009.20191       -10.95187         5.84923
     2009.20465       -11.75233         5.94173
     2009.20739        -7.55879         5.95524
     2009.21013       -10.14425         5.92614
     2009.21286        -5.59571         6.09659
     2009.21560        -7.19217         5.77024
     2009.21834       -10.22063         5.82845
     2009.22108         1.56192         5.79727
     2009.22381        -6.81754         5.81078
     2009.22655        -8.59600         5.87106
     2009.22929       -11.28346         5.81597
     2009.23203        -9.81092         5.77024
     2009.23477        -5.26138         5.88041
     2009.23750        -9.55084         5.91159
     2009.24024         1.29870         5.88145
     2009.24298        -4.48276         5.88769
     2009.24572        -7.55422         5.90016
     2009.24846        -3.90168         5.84715
     2009.25119        -4.07414         6.07372
     2009.25393        -4.84260         6.02695
     2009.25667        -5.96906         5.86378
     2009.25941        -9.91852         5.87210
     2009.26214       -11.15197         5.88249
     2009.26488        -8.00443         5.83468
     2009.26762        -0.90189         5.91887
     2009.27036        -4.81235         5.90016
     2009.27310       -10.62081         5.90224
     2009.27583        -8.12427         5.86690
     2009.27857       -10.83773         5.87833
     2009.28131        -4.38119         5.99785
     2009.28405        -7.88065         5.89808
     2009.28679        -3.50511         5.92406
     2009.28952       -11.52857         5.82325
     2009.29226       -13.99603         5.83468
     2009.29500       -16.10749         5.88561
     2009.29774       -12.89795         5.91990
     2009.30047       -18.95840         5.89288
     2009.30321       -14.52786         5.84403
     2009.30595        -6.08832         5.85027
     2009.30869        -6.45578         5.99889
     2009.31143        -6.08424         5.83676
     2009.31416        -8.37870         5.87314
     2009.31690        -9.50916         5.83364
     2009.31964        -6.60962         5.84715
     2009.32238        -5.93708         5.79207
     2009.32512        -9.23154         5.93965
     2009.32785       -20.71800         5.94173
     2009.33059       -15.74546         5.82741
     2009.33333        -6.22792         5.79519
     2009.33607       -12.76238         5.86586
     2009.33880        -2.16384         5.82325
     2009.34154        -6.64029         6.06125
     2009.34428        -9.05375         5.97187
     2009.34702        -7.78721         6.01136
     2009.34976       -13.55367         5.78687
     2009.35249       -12.21813         5.85131
     2009.35523       -13.96759         5.88353
     2009.35797        -4.61105         5.87106
     2009.36071       -15.00951         6.19740
     2009.36344        -8.70697         5.96563
     2009.36618         0.21957         5.99785
     2009.36892        -8.80189         5.87521
     2009.37166       -11.01435         5.87210
     2009.37440       -12.08781         5.80662
     2009.37713       -16.08427         5.91783
     2009.37987        -6.46872         6.11010
     2009.38261        -5.33918         5.90224
     2009.38535        -7.05464         5.88769
     2009.38809       -13.39410         5.96044
     2009.39082       -11.37656         5.83156
     2009.39356       -10.90602         5.89600
     2009.39630       -14.85348         5.89184
     2009.39904       -12.92594         5.88353
     2009.40177        -9.31840         5.91159
     2009.40451        -2.14686         5.81078
     2009.40725        -3.57232         5.89392
     2009.40999        -6.26278         6.13400
     2009.41273        -3.09924         5.92510
     2009.41546        -1.97270         5.96356
     2009.41820        -6.24015         5.97083
     2009.42094        -8.77061         5.89496
     2009.42368       -11.46307         5.96459
     2009.42642       -10.15953         6.11114
     2009.42915        -3.09499         6.11529
     2009.43189       -12.75045         5.99058
     2009.43463        -5.09291         5.88041
     2009.43737        -3.10737         5.89704
     2009.44010       -13.83183         5.97187
     2009.44284       -13.67029         5.92718
     2009.44558        -2.31075         6.01552
     2009.44832        -4.45021         5.94589
     2009.45106        -2.48567         5.81701
     2009.45379        -5.97513         5.89392
     2009.45653        -1.89859         6.14959
     2009.45927        -1.18604         5.99889
     2009.46201        -1.67250         5.96356
     2009.46475         0.95204         6.02280
     2009.46748        -8.61642         6.00201
     2009.47022        -7.30988         5.98954
     2009.47302        -2.26131         6.11737
     2009.47570        -3.77080         5.88665
     2009.47843        -2.31626         5.94381
     2009.48123       -11.96369         6.16830
     2009.48391        -8.28018         5.96875
     2009.48665        -9.87364         6.05294
     2009.48933       -11.20813         6.14440
     2009.49224        -4.43449         6.45931
     2009.49486       -12.35702         5.99266
     2009.49760        -5.93847         5.97187
     2009.50034        -6.14893         5.97291
     2009.50308        -6.85739         6.09347
     2009.50581         1.36215         6.09555
     2009.50855        -1.86931         6.09035
     2009.51129        -2.90677         6.14543
     2009.51403         3.84677         5.94277
     2009.51676        -0.40769         5.93445
     2009.51950        -9.08315         5.89392
     2009.52224        -6.62361         5.92926
     2009.52498        -9.30507         5.89704
     2009.52772        -3.74653         5.96563
     2009.53045        -3.07899         6.11945
     2009.53319        -3.33445         5.91783
     2009.53593        -7.94591         5.95524
     2009.53867        -5.00336         5.93342
     2009.54141        -4.58782         5.92822
     2009.54414        -9.10628         6.08931
     2009.54688        -8.21374         5.91471
     2009.54962        -2.05920         5.87106
     2009.55236         1.35034         5.91263
     2009.55509         2.30888         5.85651
     2009.55783         7.81342         5.88457
     2009.56057        -0.89504         6.14959
     2009.56331        -6.62850         6.11841
     2009.56605        -6.69996         6.33563
     2009.56878        -4.14342         5.95524
     2009.57152        -2.16488         6.18805
     2009.57426        -2.97934         6.01032
     2009.57700        -1.55879         6.04774
     2009.57974        -7.47125         6.07164
     2009.58247        -6.99071         6.07268
     2009.58521        -6.31717         6.07580
     2009.58789        -6.42366         6.07268
     2009.59069        -3.64109         6.02384
     2009.59342        -2.37155         6.14959
     2009.59616         5.58699         6.23170
     2009.59890         2.61753         5.91055
     2009.60164        -3.06593         5.92718
     2009.60438        -3.43239         5.94069
     2009.60711        -1.01185         5.94797
     2009.60985        -7.94231         5.92822
     2009.61259        -2.08477         6.03735
     2009.61533         1.07277         6.25976
     2009.61807        -2.47768         5.93342
     2009.62080         0.64786         5.92406
     2009.62360        -6.99157         5.91055
     2009.62628        -3.47506         5.96044
     2009.62907        -2.75349         6.24729
     2009.63175        -1.52998         5.91783
     2009.63449        -3.47544         5.99785
     2009.63723        -0.58990         6.01968
     2009.63997        -3.89936         5.97811
     2009.64271        -2.85382         6.05190
     2009.64544         1.21172         5.93342
     2009.64818        -2.13774         6.05190
     2009.65092        -3.68820         5.95004
     2009.65366        -7.49966         5.99162
     2009.65639        -4.91611         5.90224
     2009.65913         2.53643         6.05917
     2009.66187        -0.46803         6.04046
     2009.66461        -6.42549         6.08723
     2009.66735         1.15805         6.03942
     2009.67008         3.62659         5.95732
     2009.67282        -1.73887         5.88561
     2009.67556        -4.91333         5.95524
     2009.67830        -4.27779         6.20052
     2009.68104        -8.87025         6.20571
     2009.68377       -10.01371         5.96356
     2009.68651         0.10383         5.87625
     2009.68925         0.56837         5.96459
     2009.69199        -6.80309         5.99681
     2009.69472        -7.13654         5.97499
     2009.69746        -1.85800         5.89496
     2009.70020         8.15554         5.90847
     2009.70294         5.64208         5.95212
     2009.70568        -1.63238         5.84300
     2009.70841        -4.24284         5.88769
     2009.71115         2.36770         5.97187
     2009.71389        -0.95376         6.09139
     2009.71663        -5.01622         5.96563
     2009.71937        -4.23368         6.14024
     2009.72210        -7.21714         5.88457
     2009.72484        -4.56560         6.18493
     2009.72758        -5.06806         5.95420
     2009.73032        -1.67152         5.88561
     2009.73305        -0.78098         6.05813
     2009.73579        -5.11743         5.98018
     2009.73853         0.21411         5.97083
     2009.74127         4.43665         6.06645
     2009.74401         2.59119         6.08100
     2009.74674         0.46073         5.90328
     2009.74948        -1.85973         6.18909
     2009.75222         0.15781         5.89392
     2009.75496        -4.03965         5.95420
     2009.75770         9.41489         5.98434
     2009.76043         3.93643         5.91367
     2009.76317         1.97897         5.91367
     2009.76591        -0.93349         5.99473
     2009.76865        -2.05295         6.04358
     2009.77138        -0.51241         5.98954
     2009.77412         0.85614         5.88769
     2009.77686        -1.28232         5.86274
     2009.77960         2.65722         5.96875
     2009.78234         8.61576         5.98018
     2009.78507        18.14230         6.13504
     2009.78781         1.17984         6.04358
     2009.79055        -0.46562         6.03839
     2009.79329        -7.41508         6.13920
     2009.79603        -9.03754         6.24105
     2009.79876         3.71200         6.10178
     2009.80150        -2.35146         6.05709
     2009.80424        -2.96292         6.03527
     2009.80698        -0.58038         6.20468
     2009.80971        -2.02184         6.17765
     2009.81245        10.70870         6.40422
     2009.81519         7.13325         6.20364
     2009.81793         7.27979         6.16102
     2009.82067         6.63333         6.26392
     2009.82340         1.39487         6.04254
     2009.82614         6.26041         6.02591
     2009.82888        11.15295         6.12257
     2009.83162         3.27549         6.29613
     2009.83436        -0.24597         6.02280
     2009.83709        -4.22243         6.12673
     2009.83989        -2.74086         6.29509
     2009.84257         2.99965         6.32004
     2009.84536         0.05923         6.44683
     2009.84804         4.17673         6.50296
     2009.85078        12.47627         6.10386
     2009.85352         8.61782         6.18285
     2009.85626         4.16036         6.07892
     2009.85900         3.66890         6.32316
     2009.86173        -5.44856         6.09555
     2009.86447         5.49598         6.49672
     2009.86721         1.18852         6.29406
     2009.86995         3.28006         6.10178
     2009.87269         2.25560         6.13504
     2009.87548        -0.11783         6.25248
     2009.87816         7.98068         6.36473
     2009.88084        -0.02581         6.51855
     2009.88364         3.24976         6.45307
     2009.88637         3.72330         6.16934
     2009.88911        13.40284         5.99058
     2009.89185        12.85739         6.15479
     2009.89459         4.78193         6.04566
     2009.89733        -6.11453         6.12881
     2009.90006        -5.72399         6.02384
     2009.90280         6.04955         5.99993
     2009.90554        -0.56291         6.28366
     2009.90828        -2.48237         5.98850
     2009.91102        -2.30783         6.02072
     2009.91375        -3.02129         5.93549
     2009.91649        -5.72075         6.03527
     2009.91923        -4.39221         5.96044
     2009.92197        -7.05867         5.97395
     2009.92470        -5.76113         6.02280
     2009.92744        -4.03059         5.98226
     2009.93018        -5.87005         6.21195
     2009.93292        -1.24450         5.96459
     2009.93566        -2.62496         6.00928
     2009.93839        -0.84042         6.17765
     2009.94113        -0.97088         6.00825
     2009.94387        -3.11034         6.08515
     2009.94661        -2.48280         6.12673
     2009.94935         4.81574         5.99681
     2009.95208         1.41328         6.25768
     2009.95482        -5.45918         5.93134
     2009.95756        -4.24964         5.92406
     2009.96030       -11.23110         5.95732
     2009.96303        -6.61956         5.90535
     2009.96577       -11.74702         6.13192
     2009.96851        -2.70048         6.04254
     2009.97130        -0.22790         6.25872
     2009.97399        -0.61439         6.00617
     2009.97672        -9.39685         5.95108
     2009.97946       -12.29231         6.10386
     2009.98220       -10.34877         5.94693
     2009.98494        -5.56423         5.88976
     2009.98767        -9.06569         5.89912
     2009.99041        -9.46715         5.90016
     2009.99315        -8.66261         6.03007
     2009.99589        -7.23507         5.92926
     2009.99863       -11.91353         5.90431
     2010.00410        -8.77445         5.89080
     2010.00684       -10.16491         5.90535
     2010.00958        -8.82537         5.98330
     2010.01232       -13.30682         6.09659
     2010.01505        -9.82528         5.90951
     2010.01779        -9.55174         5.84507
     2010.02053        -5.71120         5.89184
     2010.02327        -8.97366         6.30341
     2010.02600       -12.41812         5.95732
     2010.02874        -2.44058         6.16622
     2010.03148         6.80296         6.12049
     2010.03422        -0.77550         6.07788
     2010.03696        -6.23996         6.30445
     2010.03969        -5.32842         6.14232
     2010.04243         5.25212         5.92822
     2010.04517        12.07866         5.95732
     2010.04791         9.97320         6.07580
     2010.05065         5.06975         6.04982
     2010.05344         6.31132         6.35018
     2010.05612         2.74083         6.10490
     2010.05886         8.00237         5.94589
     2010.06160        -6.30809         5.91159
     2010.06433        -7.37755         5.87314
     2010.06707        -4.81201         5.93965
     2010.06981       -16.08847         6.01864
     2010.07255       -10.93293         6.23585
     2010.07534        -6.35336         6.20156
     2010.07802        -7.47285         5.97395
     2010.08076        -4.09331         5.92198
     2010.08350        -4.48677         5.91679
     2010.08624        -2.92823         5.97707
     2010.08898         6.50731         6.09867
     2010.09171         4.11586         5.84819
     2010.09445         0.52040         6.01760
     2010.09719         3.04994         6.07996
     2010.09993        -3.50352         5.87314
     2010.10266        -2.25398         5.84507
     2010.10540        -3.05344         5.96148
     2010.10814         1.60510         5.94173
     2010.11088        -0.35936         5.98954
     2010.11362        -3.73282         5.94693
     2010.11635         6.23372         5.98538
     2010.11909         1.43726         5.88561
     2010.12183        -3.34920         6.04774
     2010.12457         1.08934         5.88976
     2010.12731         1.51088         6.08827
     2010.13004        -4.77457         6.04150
     2010.13278        -4.21503         5.98330
     2010.13552        -7.16349         5.98642
     2010.13826        -5.23995         5.90120
     2010.14099        -3.29741         5.86378
     2010.14368        -6.86290         6.20987
     2010.14647        -8.16433         6.29509
     2010.14921        -6.12579         5.96044
     2010.15166        -8.95741         6.80851
     2010.22906         0.54215         7.39780
     2010.23134        -3.37357         6.16622
     2010.23408        -8.93003         6.09035
     2010.23956         0.09105         6.19740
     2010.24230        -2.22641         6.21507
     2010.24503        -0.43587         6.08723
     2010.24777        -3.60232         5.95732
     2010.25051        -3.55078         6.28366
     2010.25325         2.90976         6.04566
     2010.25598         1.15030         5.96979
     2010.25872         6.20984         6.02384
     2010.26146         4.84438         6.22754
     2010.26420        -3.57108         6.20260
     2010.26694        11.93946         6.07996
     2010.26967        -1.64000         6.44787
     2010.27241        -1.22346         6.32212
     2010.27515        -3.52592         5.98226
     2010.27789        -3.29438         6.02384
     2010.28062        -1.43684         5.94589
     2010.28336        -8.81530         6.04150
     2010.28610        -2.26176         6.07268
     2010.28884         1.25779         5.88769
     2010.29158        -4.97067         6.01968
     2010.29431        -2.20913         5.97603
     2010.29705        -0.81359         5.88457
     2010.29979        -0.74405         6.04878
     2010.30258         3.94152         6.29406
     2010.30527        -0.63297         7.80833
     2010.30812         6.31563         6.30549
     2010.31074        -4.65989         5.91159
     2010.31348        -3.22535         5.98330
     2010.31622        -3.95281         5.90431
     2010.31895        13.96473         6.26392
     2010.32169        13.49727         6.00201
     2010.32443         6.40081         6.04254
     2010.32717         2.77436         5.86690
     2010.32991         3.75290         6.38240
     2010.33264         2.98544         5.87937
     2010.33538         6.72098         6.24625
     2010.33812         1.26252         6.03111
     2010.34086        -3.96894         5.88041
     2010.34360         1.13660         5.90535
     2010.34633        -4.15586         5.89808
     2010.34907        -2.61732         5.83052
     2010.35181        -6.78478         6.64430
     2010.35455         1.26076         5.85443
     2010.35728        -1.58470         5.83156
     2010.36008        -4.12312         6.21715
     2010.36276        -2.43062         5.82948
     2010.36550        -4.44708         6.08723
     2010.36824         4.49447         6.05501
     2010.37097         3.38701         5.83780
     2010.37365         4.51451         6.09763
     2010.37645         1.36409         5.92406
     2010.37919        -1.48637         6.02695
     2010.38193         7.35717         6.25248
     2010.38466         1.68971         5.93861
     2010.38740         2.45425         5.89600
     2010.39014         3.53979         5.89496
     2010.39293        -4.22464         6.00617
     2010.39556        -9.40516         6.12153
     2010.39835        -1.20359         6.09243
     2010.40109        -3.70005         5.73595
     2010.40383        -3.65151         5.77440
     2010.40657        -2.69696         5.70685
     2010.40930        -2.61842         5.80974
     2010.41204        -1.54388         5.80870
     2010.41478         1.05766         5.80558
     2010.41752         3.91620         6.31796
     2010.42026         9.15674         5.81909
     2010.42299         4.04528         5.96356
     2010.42573        -2.81818         5.81805
     2010.42847        -1.89464         5.83468
     2010.43121        -4.37210         5.80350
     2010.43394        -4.50656         5.74634
     2010.43668       -10.22602         5.98850
     2010.43942        -2.27148         5.79831
     2010.44216        -3.11694         5.75673
     2010.44490        -7.67039         5.72971
     2010.44763       -11.08085         5.78479
     2010.45037        -9.30831         5.89496
     2010.45311        -0.19577         5.92718
     2010.45585        -1.00923         5.73491
     2010.45859        -1.66369         5.84403
     2010.46132        -0.17615         5.87106
     2010.46406         0.29339         5.91783
     2010.46680        -7.04207         5.91679
     2010.46954        -2.15153         5.71620
     2010.47227       -11.14899         5.77856
     2010.47501        -6.34745         5.77440
     2010.47775         0.23909         5.99993
     2010.48049         1.89363         5.92926
     2010.48323         2.47017         5.74426
     2010.48596        -4.17328         5.71932
     2010.48870        -5.35674         5.75154
     2010.49144        -3.97020         5.90847
     2010.49418         0.18934         5.82948
     2010.49692        -1.14412         5.73387
     2010.49965         0.06742         5.79311
     2010.50239        -3.13404         5.75258
     2010.50513         0.45950         6.17142
     2010.50787        -3.53496         5.71724
     2010.51055        -5.39145         5.83676
     2010.51334        -1.23388         5.72867
     2010.51608        -9.83734         5.69437
     2010.51882        -2.26080         5.73387
     2010.52156         2.66074         5.82845
     2010.52429        12.14829         5.78999
     2010.52709         5.59086         6.14751
     2010.52977         0.23737         5.78583
     2010.53251        -5.69509         5.70789
     2010.53525        -0.85655         5.73387
     2010.53798        -1.13901         5.69749
     2010.54072         2.45653         5.77232
     2010.54346        -7.09093         6.07372
     2010.54620        -2.31939         5.79519
     2010.54893        -1.83585         5.79831
     2010.55167         0.22369         5.79623
     2010.55441         5.28923         5.78791
     2010.55715         1.96277         5.80974
     2010.55989        -3.32269         5.93342
     2010.56262        -0.02115         5.75361
     2010.56536         2.43040         5.86378
     2010.56810        -3.38606         5.81286
     2010.57084        -1.09152         5.87729
     2010.57357       -10.53998         5.98434
     2010.57631         0.50256         6.00928
     2010.57905         8.52710         6.25768
     2010.58179        -3.04836         5.90847
     2010.58453        -8.99182         5.73491
     2010.58726        -1.72528         5.89808
     2010.59000         1.85926         5.88249
     2010.59274         0.83080         5.85962
     2010.59548         1.94834         6.64950
     2010.59822         0.01788         5.85131
     2010.60095         2.28042         5.80246
     2010.60369         5.24397         5.83572
     2010.60643         1.55251         5.83364
     2010.60917         4.68205         5.91367
     2010.61190        -4.02241         5.91471
     2010.61464        -5.51087         5.80974
     2010.61738        -2.65533         5.76089
     2010.62012        -5.42879         5.79415
     2010.62286        -0.75725         5.78272
     2010.62559        -1.29871         5.81182
     2010.62833         3.37383         5.81909
     2010.63107        -4.70163         6.68068
     2010.63381        -0.83409         5.82741
     2010.63655        12.58245         5.81182
     2010.63928         2.82699         5.83780
     2010.64202        -3.16947         5.82429
     2010.64476        -7.93792         5.91679
     2010.64750        -5.12138         5.78479
     2010.65023         1.04516         6.07580
     2010.65297         5.43770         6.05813
     2010.65571         3.12824         5.76817
     2010.65845         1.93078         5.76297
     2010.66119         1.38532         5.76401
     2010.66392         0.65886         5.80142
     2010.66666         9.02840         5.91367
     2010.66940         2.92194         5.76505
     2010.67214        -2.06152         5.79311
     2010.67488         5.39702         5.77024
     2010.67761         4.88056         5.77128
     2010.68035         5.60010         5.72244
     2010.68309         1.64965         5.73387
     2010.68583         8.59319         5.90535
     2010.68856         2.48773         5.71516
     2010.69130         1.04427         5.76713
     2010.69404        -0.89219         5.88561
     2010.69678        -2.30565         5.72244
     2010.69952        -4.59711         5.72140
     2010.70225        -0.25557         5.91990
     2010.70499         3.79597         5.74738
     2010.70773         0.89251         5.79103
     2010.71047         5.98005         5.68606
     2010.71321         7.15559         5.73179
     2010.71594        -1.80787         5.92614
     2010.71868         7.53467         5.75777
     2010.72142        10.66622         6.43228
     2010.72416         3.69576         5.85755
     2010.72689         3.18730         5.78791
     2010.72963        -4.62616         5.73283
     2010.73237         1.34238         5.74426
     2010.73511         1.72392         5.75569
     2010.73785         2.23846         5.87729
     2010.74058         1.61300         5.85131
     2010.74332         4.06354         5.66320
     2010.74606         2.69308         5.77648
     2010.74880         2.51162         5.76713
     2010.75154         1.79016         5.73699
     2010.75427         4.37070         6.01864
     2010.75701         5.50524         5.78999
     2010.75975         5.94278         5.69230
     2010.76249        -1.74367         5.74634
     2010.76522        -2.35813         5.83260
     2010.76796         7.45241         5.77232
     2010.77070        -1.74605         5.72244
     2010.77344         0.59549         5.75154
     2010.77618        -6.64897         5.97083
     2010.77891        -1.74743         5.69230
     2010.78165        -3.07389         5.79831
     2010.78439         6.63165         5.86274
     2010.78713         5.47019         5.87729
     2010.78987         8.04473         5.83572
     2010.79260         5.71827         5.72347
     2010.79534         0.32981         5.69126
     2010.79808         5.60135         5.69230
     2010.80082        -1.44110         5.69645
     2010.80355         4.36944         5.69126
     2010.80629         3.80898         5.93134
     2010.80903         8.74452         5.72971
     2010.81177         6.70906         5.84403
     2010.81451        20.48660         6.02176
     2010.81730         7.38917         5.82741
     2010.81998         0.01268         5.92302
     2010.82272         6.65022         5.77336
     2010.82546         2.26876         5.75154
     2010.82820         8.52730         5.72867
     2010.83093         0.45284         5.96148
     2010.83367        -2.54562         6.02695
     2010.83641         2.87892         5.75777
     2010.83915        -1.74054         5.71516
     2010.84188        -2.17999         5.67151
     2010.84462         6.17955         5.77128
     2010.84736        -1.26591         5.79415
     2010.85010        16.19063         5.81078
     2010.85289        11.18920         5.85027
     2010.85557         8.09771         5.58525
     2010.85831         5.54425         5.55719
     2010.86105         1.92379         6.09555
     2010.86379        -2.17567         5.58005
     2010.86653        -3.04413         5.62682
     2010.86926        -0.97159         5.59460
     2010.87200         4.28295         5.61747
     2010.87474         7.59849         5.84300
     2010.87748        -0.57097         5.72763
     2010.88021         1.47258         6.55180
     2010.88295         4.52012         5.63098
     2010.88569         1.78666         5.61331
     2010.88843        -1.90380         5.82325
     2010.89117        -1.75226         5.90224
     2010.89390         3.68828         5.60292
     2010.89664         2.07982         5.58317
     2010.89938         3.74036         5.58109
     2010.90212         3.23190         5.58733
     2010.90485         5.92544         5.58525
     2010.90759        -1.85402         5.62786
     2010.91033        -4.20248         5.56030
     2010.91307        -4.30594         5.52912
     2010.91581        -3.91640         5.49379
     2010.91854        -0.61286         5.88561
     2010.92128       -11.46731         5.59564
     2010.92402        -9.89177         5.55407
     2010.92676        -2.62223         5.54367
     2010.92950        -6.81069         5.56862
     2010.93223        -5.22115         5.60603
     2010.93497         1.39339         5.90639
     2010.93771         5.52993         5.91783
     2010.94045        -4.71953         5.83572
     2010.94318        -2.54899         5.60915
     2010.94592       -10.55645         5.79519
     2010.94866         1.18609         5.64449
     2010.95140         1.01763         5.84300
     2010.95414         0.92017         5.90120
     2010.95687        -2.35829         5.59564
     2010.95961        -2.52174         5.73699
     2010.96235         0.38180         5.72555
     2010.96509        -6.10966         5.69022
     2010.96783        -8.91412         5.76920
     2010.97056       -15.23158         5.75777
     2010.97330       -12.63604         5.64968
     2010.97604        -7.69650         5.61539
     2010.97878        -3.81096         5.67878
     2010.98151        -3.98442         5.69749
     2010.98425         0.64612         5.75050
     2010.98699         3.90266         5.59252
     2010.98973         6.16220         5.70996
     2010.99247        14.55074         5.86586
     2010.99520         5.36628         5.70685
     2010.99794        -3.79617         5.64761
     2011.00342        -2.16709         5.68294
     2011.00616         1.97645         5.62370
     2011.00889        -0.21101         6.05190
     2011.01163        -2.73347         5.59356
     2011.01437        -2.65893         5.60499
     2011.01711        -2.02539         5.76297
     2011.01984         4.35315         5.61954
     2011.02258        -3.33831         5.60084
     2011.02532       -10.39677         5.70892
     2011.02806        -9.75323         6.12153
     2011.03085        -8.31965         5.87625
     2011.03353        -2.81215         5.63721
     2011.03627         0.98739         5.74218
     2011.03901        -2.77006         5.63929
     2011.04175         1.77248         5.72036
     2011.04449         0.55502         5.73075
     2011.04722        -2.40644         5.71100
     2011.04996        -5.49490         5.77024
     2011.05270        -3.45436         5.64864
     2011.05544        -1.04782         5.66631
     2011.05817         0.73172         5.63617
     2011.06091        -0.70474         5.58940
     2011.06365        -1.37820         5.60292
     2011.06639         0.23734         5.60811
     2011.06913        -7.34312         5.97811
     2011.07186       -12.12358         5.65176
     2011.07460        -9.32404         5.68606
     2011.07734         0.00951         5.63409
     2011.08008        -2.55995         5.60603
     2011.08282        -7.61741         5.67982
     2011.08555       -11.07487         5.65176
     2011.08829        -8.27433         5.68086
     2011.09103       -10.63679         5.69853
     2011.09377        -1.24425         5.83884
     2011.09650        -4.30871         5.67878
     2011.09924       -13.86717         5.69541
     2011.10198        -5.60763         5.92614
     2011.10472        -4.39909         5.61643
     2011.10746        -5.48255         5.64968
     2011.11019        -2.79901         5.69230
     2011.11293        -2.35447         5.71100
     2011.11567         1.15707         5.73283
     2011.11841        -1.91538         5.74426
     2011.12115         6.67016         6.09451
     2011.12388         1.37370         5.96356
     2011.12668         0.01727         6.07996
     2011.12936         2.81078         5.72763
     2011.13210        -2.92468         5.69437
     2011.13483        -5.20914         5.68190
     2011.13757       -13.24060         5.96148
     2011.14031        -3.14306         5.65696
     2011.14305         1.49348         5.77960
     2011.14579        -2.02898         5.73906
     2011.14852        -3.42444         5.62890
     2011.15126        -0.86990         5.60084
     2011.15400         2.32964         5.62266
     2011.15674         3.71819         5.69749
     2011.15948        -2.14227         5.75465
     2011.16221        -0.66673         5.96148
     2011.16495         0.61181         6.09555
     2011.16769        -4.87965         5.71100
     2011.17043        -9.56211         5.64033
     2011.17322       -10.73054         6.00617
     2011.17590        -7.78603         5.59980
     2011.17864        -3.94849         5.63306
     2011.18138        -3.92795         5.67463
     2011.18412        -2.33241         5.74426
     2011.18685        -5.66787         5.81389
     2011.18959        -1.91833         5.71828
     2011.19233        -4.18379         5.69957
     2011.19507        -5.64124         5.63409
     2011.19780         6.61030         5.99162
     2011.20054         2.18984         5.65696
     2011.20328        -5.35062         5.80558
     2011.20602        -6.90608         5.74738
     2011.20876        -0.99454         5.87625
     2011.21149        -6.88400         5.67878
     2011.21423        -3.53746         5.70373
     2011.21697        -6.91692         5.76817
     2011.21971        -4.62938         5.72971
     2011.22245        -5.94084         5.65592
     2011.22518        -0.14730         5.67151
     2011.22792         0.52824         5.95108
     2011.23066        -1.67722         5.63929
     2011.23340         0.67532         5.64345
     2011.23613        -4.01713         5.61747
     2011.23887        -2.22959         5.65800
     2011.24161        -1.30605         5.69957
     2011.24435         7.35049         5.86378
     2011.24709        -6.13797         5.63825
     2011.24982        -1.46443         5.78168
     2011.25256        -3.51989         5.66839
     2011.25530        -2.63835         6.04046
     2011.25804         1.53619         6.11322
     2011.26078         0.92373         5.81805
     2011.26351        -3.34673         5.61539
     2011.26625        -5.78919         5.67047
     2011.26899        -1.61865         5.69126
     2011.27173        -1.34311         5.82013
     2011.27446        -5.64456         6.01344
     2011.27720        -8.62902         6.28886
     2011.28000        -3.73745         5.83260
     2011.28268        -3.80194         5.69022
     2011.28542        -5.57440         5.67671
     2011.28815        -1.05786         5.66735
     2011.29089        -1.61232         5.63098
     2011.29369        -8.01275         5.78168
     2011.29637        -5.45424         5.63825
     2011.29911        -4.70670         5.63825
     2011.30184         5.24584         5.80870
     2011.30458        -4.06662         5.67878
     2011.30732        -3.36208         5.62890
     2011.31006        -1.84654         5.62786
     2011.31279        -7.55800         5.71516
     2011.31553        -0.71445         5.68606
     2011.31827        -0.39191         5.67567
     2011.32101        -2.59637         5.67671
     2011.32375        -7.54683         5.65280
     2011.32648        -9.70629         5.59564
     2011.32922       -13.94375         5.64345
     2011.33196        -9.42221         6.30237
     2011.33470       -13.02767         5.97291
     2011.33744        -9.03913         5.73283
     2011.34017        -5.12059         5.82429
     2011.34291        -7.08805         5.85755
     2011.34565        -1.90951         5.80870
     2011.34839       -10.64397         5.82013
     2011.35112        -3.43443         5.76401
     2011.35386        -6.48388         5.78479
     2011.35660       -10.09134         5.64761
     2011.35934       -12.50880         5.69645
     2011.36208       -15.50226         5.69645
     2011.36487        -0.49569         5.99266
     2011.36755        -9.85118         5.80974
     2011.37029       -24.14864         5.81182
     2011.37303        -7.30310         5.76193
     2011.37577        -7.56256         5.74634
     2011.37856        -8.29299         5.88249
     2011.38124       -10.28648         5.75258
     2011.38398       -11.10594         5.71724
     2011.38672        -4.87340         5.75050
     2011.38945        -2.72886         5.77752
     2011.39219        -6.28132         5.74634
     2011.39493       -10.53177         5.75985
     2011.39767        -8.81223         5.87937
     2011.40041        -7.85269         5.74114
     2011.40314        -9.97115         5.80558
     2011.40588       -10.25461         5.80766
     2011.40862        -2.20707         5.77128
     2011.41136        -4.18653         5.75361
     2011.41404       -10.13002         5.88561
     2011.41683        -7.69845         5.73803
     2011.41957        -7.66891         5.74010
     2011.42231       -20.84037         5.76193
     2011.42510        -8.49079         5.87210
     2011.42778        -8.66229         5.78479
     2011.43052        -7.55675         5.74426
     2011.43326        -7.55420         5.87833
     2011.43600       -15.74966         5.86690
     2011.43874       -15.80312         5.74426
     2011.44153        -5.76655         5.82741
     2011.44421        -6.31604         5.77648
     2011.44695        -9.91350         5.79727
     2011.44969        -8.64896         7.05587
     2011.45243       -13.57542         5.77856
     2011.45516        -9.35188         5.91471
     2011.45790        -5.61734         5.73699
     2011.46064       -10.80580         5.78064
     2011.46338       -10.34726         5.79934
     2011.46611       -12.21072         5.77232
     2011.46885        -9.92318         5.74842
     2011.47159        -8.41463         5.85027
     2011.47433        -7.89709         5.83780
     2011.47707        -6.82455         5.74530
     2011.47980        -4.91201         5.78168
     2011.48254        -5.80547         5.74738
     2011.48528        -5.62193         5.82429
     2011.48802        -5.73539         5.76609
     2011.49076        -2.56685         5.80766
     2011.49349        -0.94731         5.78479
     2011.49623        -5.41777         5.77856
     2011.49897        -4.60323         5.79519
     2011.50171         2.85731         5.76297
     2011.50444        -4.92515         5.77232
     2011.50718        -8.37761         5.76505
     2011.50992        -4.30207         5.84611
     2011.51266        -4.90052         5.96667
     2011.51545        -6.21795         5.99370
     2011.51813         1.26856         5.75258
     2011.52087        -4.35290         5.96771
     2011.52361        -3.44336         5.77648
     2011.52635       -10.04882         5.83884
     2011.52908         4.82272         5.74530
     2011.53182         2.01926         5.78272
     2011.53456        -0.72920         5.76920
     2011.53730         2.85234         5.82533
     2011.54004        -3.86012         5.97187
     2011.54283        -7.00054         5.85755
     2011.54551         0.25596         5.85027
     2011.54825        -2.25550         5.75985
     2011.55099        -1.78395         5.79311
     2011.55373         5.20659         5.85235
     2011.55646        -2.76387         5.79727
     2011.55920        -3.80133         5.72659
     2011.56194        -2.06979         5.89288
     2011.56468         6.68675         5.79311
     2011.56747         4.95532         5.82948
     2011.57015        -0.15817         6.10074
     2011.57289         0.89537         5.75465
     2011.57563         1.00991         5.76609
     2011.57837         1.70945         6.04254
     2011.58110        -0.43401         5.95212
     2011.58384        -3.86547         5.85339
     2011.58658        -6.07693         5.94173
     2011.58932        -0.00739         5.80454
     2011.59206         1.43516         5.78791
     2011.59479        -2.16030         5.84611
     2011.59759         4.57527         5.85339
     2011.60027         0.36778         5.75465
     2011.60301         1.87132         5.73075
     2011.60574         3.16286         5.83572
     2011.60848         3.46740         6.08515
     2011.61122         0.71194         6.03423
     2011.61396         1.43948         5.90224
     2011.61670         0.96002         5.94381
     2011.61943         4.44756         6.00721
     2011.62217         4.92210         5.90328
     2011.62491       -10.24436         5.82429
     2011.62770       -10.72178         5.99058
     2011.63039         2.84473         5.80038
     2011.63312         2.10627         5.80246
     2011.63586         0.43981         5.81701
     2011.63860         3.69735         5.79934
     2011.64134        13.18189         6.16206
     2011.64407         3.76443         5.86066
     2011.64573        10.66536        13.57649
     2011.64955         5.23551         6.00825
     2011.65229         3.97805         5.89288
     2011.65503        -3.90341         5.94277
     2011.65776         1.70513         5.92094
     2011.66050         1.69167         6.07164
     2011.66324         4.10121         5.94797
     2011.66598         5.15975         5.98434
     2011.66872        -2.99571         6.04982
     2011.67145         3.64684         5.78064
     2011.67419         6.02838         5.78064
     2011.67693         5.62292         5.81078
     2011.67967         3.83246         5.82845
     2011.68240         2.42600         5.81805
     2011.68514         2.67954         5.84819
     2011.68788         4.76908         5.91679
     2011.69068         5.07865         5.91159
     2011.69336         7.24016         5.87833
     2011.69609         0.74670         5.88665
     2011.69883         0.00924         5.84715
     2011.70157         3.39778         5.88976
     2011.70431         8.96732         5.94381
     2011.70705         3.03486         5.93445
     2011.70978        -2.81959         5.84403
     2011.71252         0.49395         5.78375
     2011.71526         4.26149         6.01448
     2011.71800         3.77403         5.96875
     2011.72073        11.08157         5.81078
     2011.72347         6.54211         5.88769
     2011.72621         6.71465         5.84507
     2011.72895        10.54519         5.78272
     2011.73169         7.37773         5.93445
     2011.73442         9.03527         5.88769
     2011.73716        15.82581         6.04774
     2011.73990         8.96835         5.89496
     2011.74264         5.58689         5.77232
     2011.74538         7.49943         6.03215
     2011.74811        16.91498         6.06645
     2011.75085         6.54552         6.03111
     2011.75359        10.16906         6.02903
     2011.75633         9.04660         5.87521
     2011.75878        14.52898         6.45515
     2011.76454         9.77322         5.85027
     2011.76728         8.15476         5.98330
     2011.77002         2.90930         5.91783
     2011.77275         7.30784         5.99577
     2011.77549        13.26638         6.14855
     2011.77766        12.34260         7.36247
     2011.78473        18.20558        12.95291
     2011.78644        14.09354         5.85443
     2011.78918         8.03709         5.80038
     2011.79192         2.77963         5.84300
     2011.79466         3.04217         5.78687
     2011.79739         7.77971         5.80246
     2011.80287         4.07179         5.80870
     2011.80561        -0.86267         5.79207
     2011.80835         4.93387         5.87729
     2011.81108         3.35741         6.00825
     2011.81382         3.44695         6.01656
     2011.81656        -1.68051         6.32523
     2011.82203        11.59357         5.89808
     2011.82477         5.00411         5.92094
     2011.82751         3.15666         5.76297
     2011.83025         8.16020         5.95004
     2011.83299         1.23174         5.89496
     2011.83572         3.31028         5.82117
     2011.84120        12.93736         5.89080
     2011.84394         6.40490         5.91679
     2011.84668         6.57444         5.80454
     2011.84941         1.71698         6.05709
     2011.85215        -1.00148         5.82741
     2011.85489         1.24406         6.00928
     2011.86036         9.91414         5.82637
     2011.86310        13.87368         5.84507
     2011.86584        14.09222         5.89392
     2011.86858        21.30877         5.90951
     2011.87132         5.93831         5.80766
     2011.87405        -1.15715         5.82845
     2011.87953         0.49593         5.95004
     2011.88227         6.45947         6.03839
     2011.88501         5.80601         5.83780
     2011.88774         2.68055         5.80038
     2011.89048         6.50609         6.04566
     2011.89322         2.47363         6.08723
     2011.89869         6.95071         5.95524
     2011.90143        -4.34375         5.85235
     2011.90417         0.85379         5.89496
     2011.90691        -2.37166         5.97187
     2011.90965         6.32988         5.92094
     2011.91238         6.28742         6.07060
     2011.91786         2.07850         5.99473
     2011.92060        -5.01896         5.87937
     2011.92334         0.15358         5.93238
     2011.92607        -2.36688         5.96979
     2011.92881        -2.12934         5.95836
     2011.93138         2.56111         6.47593
     2012.02863         1.44183        19.58162
     2012.03199         2.43873        10.32969
     2012.05201         6.61599         5.74322
     2012.05475        15.74653         6.70043
     2012.05749        16.70607         6.06021
     2012.06023        14.16461         6.04150
     2012.06297         3.25315         5.84300
     2012.06570         1.91070         5.90743
     2012.07118         4.65778         5.70685
     2012.07392        -2.02868         5.71412
     2012.07666         1.89586         5.74426
     2012.07939         9.88340         5.85962
     2012.08213         7.64294         5.62266
     2012.08458         8.51632         6.35537
     2012.09034        -0.21744         5.68398
     2012.09308         1.93710         5.67255
     2012.09582         1.41664         5.76609
     2012.09856         0.72218         5.66943
     2012.10130         0.99772         5.82429
     2012.10392         0.40020         5.79934
     2012.10951         0.29235         5.83676
     2012.11225        -1.60711         5.88769
     2012.11498         0.93943         5.71412
     2012.11772         8.17997         5.69022
     2012.12046        11.54851         5.71308
     2012.12320         1.97305         5.73491
     2012.12867        -6.38387         5.87002
     2012.13141        -1.68233         5.76609
     2012.13415         4.97921         5.65072
     2012.13689         2.73475         5.72140
     2012.13963         2.77429         5.91887
     2012.14236         9.15783         6.09139
     2012.14784        -0.88708         5.59460
     2012.15058         3.23846         5.71724
     2012.15331        -2.13300         5.64137
     2012.15600        -0.73249         5.92406
     2012.15828        -2.84721         8.47972
     2012.16153         7.74162         5.66631
     2012.16700        -1.35530         5.69645
     2012.16974        -4.46476         5.71828
     2012.17248        -1.66722         5.66112
     2012.17522         1.88532         5.65800
     2012.17796        -0.07414         5.67047
     2012.18069         1.38640         5.64864
     2012.18617        -4.37351         5.69645
     2012.18891         3.43503         5.73595
     2012.19164         5.52557         6.60481
     2012.19438         5.92711         5.82741
     2012.19712         4.61265         5.77752
     2012.19986        -0.18381         5.91471
     2012.20533        -8.27973         5.96667
     2012.20807         2.35781         5.75050
     2012.21081         4.73935         5.60395
     2012.21343         3.64983         5.87625
     2012.21902        -7.50803         5.67463
     2012.22450       -17.02194         5.86898
     2012.22724        -3.88340         6.00513
     2012.22997        -1.57686         6.06541
     2012.23271        -9.28132         5.90951
     2012.23545         8.68422         5.79103
     2012.23813        -0.08127         6.27431
     2012.24366        -8.20916         5.81701
     2012.24640        -2.77962         5.72971
     2012.24914        -1.83808         5.73179
     2012.25188        -5.98454         5.63513
     2012.25462        -7.26400         5.65800
     2012.25735        -7.22746         5.65384
     2012.26283        -4.30137         5.66320
     2012.26557        -7.43783         5.68398
     2012.26819       -10.31236         9.54917
     2012.27110        -5.26372         5.92614
     2012.27378        -1.00021         5.63202
     2012.27652         1.86933         5.69126
     2012.28199         1.08441         5.72659
     2012.28473         0.15695         5.67151
     2012.28747        -3.81751         5.68502
     2012.29021        -4.18797         5.65904
     2012.29295        -5.58143         5.68294
     2012.29568        -8.65589         5.66216
     2012.30116        -6.29780         5.82533
     2012.30390        -5.25926         5.71724
     2012.30663       -16.24972         5.68294
     2012.30937        -2.49518         5.77128
     2012.31211         1.06736         6.09035
     2012.31485        -3.18410         5.96979
     2012.32032        -0.31902         5.76193
     2012.32306        -6.81248         5.71724
     2012.32580        -5.95294         5.67775
     2012.32854         1.69060         5.82845
     2012.33128        -2.96686         5.89600
     2012.33401        -4.40332         5.82013
     2012.33995        -6.19698         6.68276
     2012.34223       -10.36069         5.68710
     2012.34548        -6.94586         6.87607
     2012.35135       -14.78456         9.55645
     2012.35318        -5.62053         6.07580
     2012.35837       -13.06761         9.80068
     2012.36145        -3.57888         8.39450
     2012.36413        -4.03037         6.58506
     2012.36687        -8.89583         5.70996
     2012.36961        -3.76029         5.70685
     2012.37234        -4.93175         5.78064
     2012.37782        -5.26367         5.78999
     2012.38056        -5.73512         5.73075
     2012.38329        -5.79358         5.74634
     2012.38603        -3.52704         5.87106
     2012.38877        -4.46850         5.94173
     2012.39151        -3.18796         5.77544
     2012.39698        -3.58488         5.75777
     2012.39972        -3.07434         5.62370
     2012.40246        -4.90280         5.67047
     2012.40520        -6.88226         5.70061
     2012.40794        -1.10572         5.66631
     2012.41067        -3.87618         5.67878
     2012.41615        -6.62410         5.65176
     2012.41889         0.18044         5.99681
     2012.42162        -5.41301         6.73264
     2012.42442        -6.41844         5.82117
     2012.42710        -8.55593         5.70789
     2012.42989        -3.28236         5.77960
     2012.43531        -8.62231         5.71620
     2012.43805        -2.49177         5.59564
     2012.44079       -11.42923         5.56654
     2012.44353       -13.49569         5.66216
     2012.44626        -8.05915         5.72971
     2012.44900        -7.85761         5.83572
     2012.45448        -4.95953         6.98831
     2012.45722        -8.67399         5.67359
     2012.45995         1.32456         5.95836
     2012.46269         5.83610         6.26807
     2012.46543        -6.85836         5.71100
     2012.46817        -5.14982         5.78999
     2012.47364        -0.22874         5.82429
     2012.47638        -0.15820         5.76920
     2012.47912        -0.53866         5.77232
     2012.49384         1.53062        10.95847
     2012.49555        -3.58442         5.68294
     2012.49828         1.46812         5.71412
     2012.50102         3.61467         5.69645
     2012.50376         2.94821         5.70269
     2012.50650         0.26975         5.66423
     2012.51197        -1.00317         5.85235
     2012.51471        -3.86863         6.34290
     2012.51745         0.98291         5.76089
     2012.52019        -1.95655         5.71828
     2012.52292         3.76399         6.90413
     2012.52566        -6.52047         5.76193
     2012.53114        10.25161         5.76713
     2012.53388         8.53415         5.81493
     2012.53639         3.55557         6.74304
     2012.53947         5.14030         6.64950
     2012.54209         3.12578         6.41877
     2012.54483         4.27232         5.69957
     2012.55030         5.15540         5.87625
     2012.55304         5.61294         5.63929
     2012.55578        -5.72352         5.78999
     2012.55852         1.89502         5.69645
     2012.56125         2.51356         5.64137
     2012.56399        -5.48790         5.63513
     2012.56947         0.74918         5.70581
     2012.57221         4.15072         5.72451
     2012.57494         0.55126         5.72140
     2012.57768         2.03181         5.66423
     2012.58042         1.39435         5.72555
     2012.58316        -1.04911         5.71100
     2012.58863         7.05897         5.63929
     2012.59137         3.98051         7.59111
     2012.59411         5.43205         5.67463
     2012.59685         1.47859         6.11945
     2012.59970         4.11919         6.18077
     2012.60232         0.58767         6.07268
     2012.60780         2.80775         5.66631
     2012.61054         4.29429         5.70269
     2012.61327         0.47383         5.71516
     2012.61601         6.09537         5.60603
     2012.61875         7.01492         5.63825
     2012.62149         5.71346         5.77128
     2012.62696         5.62354         6.92284
     2012.62970        -1.57992         5.76713
     2012.63244         4.53862         5.69749
     2012.63518         8.63016         5.65384
     2012.63752        13.86848         6.69939
     2012.64025         2.28002         6.70354
     2012.64613         4.47432         5.67567
     2012.64887         5.24386         5.60084
     2012.65160         9.08340         5.74946
     2012.65434         7.74494         5.86586
     2012.65708         6.91749         7.60878
     2012.65976       -13.98201        13.48400
     2012.66261         7.78260         7.07042
     2012.66529        13.85611         5.61227
     2012.66803        10.24065         5.65592
     2012.67077         8.89619         5.60499
     2012.67351         8.75473         5.63617
     2012.67613         6.76521         5.97811
     2012.67898         8.77481         5.61123
     2012.68446         8.07689         5.67255
     2012.68720         7.19343         5.67151
     2012.68993         8.01797         5.78895
     2012.69273         2.72355         7.17227
     2012.69541        12.91405         5.80870
     2012.69815        10.10960         5.77440
     2012.70362         5.30168         5.72140
     2012.70636         7.67622         5.67463
     2012.70910        12.28676         5.75881
     2012.71184         9.24430         5.67047
     2012.71457         9.21184         5.64761
     2012.71731         6.12538         6.05917
     2012.72279        11.80746         5.60499
     2012.72553        10.46800         5.65384
     2012.72826        15.14054         5.71412
     2012.73100         8.34808         5.80662
     2012.73374         6.95062         5.72555
     2012.73648         7.71017         5.64657
     2012.74195        13.42425         5.69749
     2012.74469        10.33979         5.68710
     2012.74669        15.61291         8.24068
     2012.75017         4.62987         5.77440
     2012.75290         9.05941         6.09035
     2012.75564         8.64295         5.64968
     2012.76112         6.96803         5.62890
     2012.76386         5.47457         5.66943
     2012.76659        10.11711         5.75569
     2012.76933        12.79265         5.72347
     2012.77207        12.59619         5.70269
     2012.77481         7.52074         5.72659
     2012.79397        10.50752         6.02591
     2012.79671         5.79606         6.39071
     2012.79945        15.75160         6.17869
     2012.80219        13.03614         6.31796
     2012.80492        11.46668         5.77128
     2012.80766        10.11822         6.03319
     2012.81040        15.51076         5.76920
     2012.81314         9.85330         5.75258
     2012.81587         2.20885         5.80662
     2012.81861         0.13539         5.96979
     2012.82135        -4.13607         5.78064
     2012.82409        10.32447         5.92926
     2012.82683         6.70701         5.92302
     2012.82956         8.41455         5.80142
     2012.83230        11.60709         5.81597
     2012.83504         1.23663         5.97499
     2012.83778         5.23817         5.78791
     2012.84052         5.65371         5.80558
     2012.84257         4.61287         8.04737
     2012.85814        10.45963        15.38905
     2012.85968         7.88350         5.78687
     2012.86242         1.63204         5.80350
     2012.86516         6.95858         5.77648
     2012.86789         7.50912         5.96875
     2012.87063         1.75566         5.74218
     2012.87337         4.28120         5.80142
     2012.87611        13.33574         5.82117
     2012.87885         8.78328         5.75050
     2012.88158         9.05282         5.84196
     2012.88432        14.53736         5.81182
     2012.88706         0.85390         6.20260
     2012.88980         4.53044         5.99370
     2012.89253         5.16198         5.69541
     2012.89527         5.42953         5.66527
     2012.89801         5.75307         5.67878
     2012.90075         6.64661         5.68814
     2012.90349         4.15315         7.18578
     2012.90622        -0.46231         5.66527
     2012.90896         7.71723         5.72971
     2012.91170        10.86877         5.79519
     2012.91444         6.34831         5.78272
     2012.91718        15.20885         5.85962
     2012.91991        13.26939         5.76505
     2012.92265        17.82293         5.70581
     2012.92539         4.99747         5.81182
     2012.92813         4.85301         5.86170
     2012.93086        -1.68445         5.83156
     2012.93360         8.75410         5.77960
     2012.93634         8.07264         5.65488
     2012.93908        -1.62682         5.68190
     2012.94182        -0.64028         5.68710
     2012.94455         9.48426         5.65384
     2012.94729        14.27680         5.75361
     2012.95003        12.20534         5.72244
     2012.95277        13.29188         5.66423
     2012.95551        12.09342         5.65488
     2012.95824        14.34096         5.67047
     2012.96098        11.96150         5.95524
     2012.96372        13.62904         5.78375
     2012.96646        10.91658         5.70892
     2012.96919        16.84612         5.93861
     2012.97193         8.87166         5.82013
     2012.97467         8.24621         5.75050
     2012.97741        12.53275         5.70477
     2012.98015         8.45229         5.65176
     2012.98288         6.40883         5.61227
     2012.98562         7.03937         5.67151
     2012.98836         4.05991         6.09347
     2012.99110        10.08245         5.63617
     2012.99384         8.71099         5.62578
     2012.99657         5.68253         5.63513
     2012.99931         4.19407         5.64033
     2013.00205         3.73361         5.71412
     2013.00479         6.10815         5.66839
     2013.00752         0.13369         5.65488
     2013.01026         2.82723         5.77128
     2013.01300         4.99778         5.62474
     2013.01574         6.39832         5.65384
     2013.01848         2.86286         5.72763
     2013.02121        -1.11160         5.73179
     2013.02395         0.70794         5.70581
     2013.02669         7.71448         5.87937
     2013.02943         7.46902         5.69957
     2013.03216         4.59156         5.69749
     2013.03433         1.25178         7.60462
     2013.03764        -5.42536         5.72036
     2013.04038       -10.35882         5.71932
     2013.04312        -6.89528         5.84923
     2013.04585        -6.97374         5.89600
     2013.04859        -6.85320         5.77024
     2013.05133        -3.36365         5.69230
     2013.05407        -4.50611         5.68918
     2013.05681        -0.48157         5.73075
     2013.05954        -3.43203         5.81597
     2013.06228        -3.75949         5.93134
     2013.06502         6.97905         5.96252
     2013.06776         2.61659         5.90016
     2013.07055        -0.28384         5.95212
     2013.07323         4.92367         5.73179
     2013.07597         3.94321         5.69541
     2013.07871         4.23275         5.65800
     2013.08145         3.21729         5.73491
     2013.08418        -0.66217         5.89392
     2013.08692        -0.17063         5.73283
     2013.08966        -5.58509         5.72867
     2013.09240         3.94146         5.87314
     2013.09514         5.64600         5.71100
     2013.09787         6.71054         5.96148
     2013.10061         6.07008         6.02176
     2013.10335         6.47462         5.78479
     2013.10609        -0.29684         5.72451
     2013.10882         1.04770         5.65384
     2013.11156        -3.36676         5.79415
     2013.11430         0.04278         5.65800
     2013.11704        -3.43568         5.74010
     2013.11978        -0.18114         5.87937
     2013.12251        -4.24460         5.75050
     2013.12525       -10.15506         6.19532
     2013.12799        -3.75052         6.20364
     2013.13073        16.19503         5.73075
     2013.13347         8.00557         5.68190
     2013.13620        12.78011         5.72555
     2013.13894         3.61465         5.76505
     2013.14168         1.42219         5.72763
     2013.14442         0.71273         5.88873
     2013.14715         9.77527         5.91471
     2013.14989        -0.21619         5.68814
     2013.15263         3.68535         5.75361
     2013.15537        -4.15311         5.69853
     2013.15811        -6.31257         5.73803
     2013.16084        -9.56503         5.72140
     2013.16358        -5.08249         5.75050
     2013.16632        -1.06895         5.74322
     2013.16906         2.62959         5.72763
     2013.17180        -2.27186         5.71100
     2013.17453         0.24668         5.67151
     2013.17727         3.23722         6.03423
     2013.18001        -0.20924         5.85339
     2013.18275         1.90030         5.73595
     2013.18548         0.20984         5.69437
     2013.18805        -5.75272         6.15375
     2013.19096        -4.17108         5.75361
     2013.19370        -1.32754         5.74738
     2013.19644         0.97000         5.72659
     2013.19917         4.45954         5.82221
     2013.20191         2.76008         5.73906
     2013.20465         2.00562         5.77128
     2013.20739         0.65816         5.87521
     2013.21013         7.28171         5.66320
     2013.21286         1.57725         5.67463
     2013.21560         3.44679         5.82637
     2013.21834         6.36533         5.79934
     2013.22108        -2.69813         5.74322
     2013.22381        -5.03059         6.00721
     2013.22655        -1.22805         5.67255
     2013.22929        -4.38751         5.68710
     2013.23203        -0.97797         5.66112
     2013.23477        -0.78243         5.73283
     2013.23750        -1.88189         5.87937
     2013.24024        -3.01935         5.81909
     2013.24298        -1.82881         5.84092
     2013.24572         5.06873         5.83052
     2013.24846         3.33227         5.83468
     2013.25119         0.46782         5.86170
     2013.25393         2.35236         5.89184
     2013.25667         1.75590         6.04046
     2013.25941         4.36344         5.90120
     2013.26214         3.34598         5.84403
     2013.26488        10.16552         5.91367
     2013.26762         2.26006         5.86482
     2013.27036        -2.82940         5.91367
     2013.27310         1.79414         6.03111
     2013.27583        -1.42932         6.02176
     2013.27857         3.59222         5.95940
     2013.28131        15.86276         5.97187
     2013.28405         4.04730         5.83572
     2013.28679         4.10384         5.91055
     2013.28952        -1.63561         5.83052
     2013.29226        -2.81707         5.82948
     2013.29500         0.88447         5.82117
     2013.29774        -7.15599         5.82325
     2013.30047        -1.53245         5.84507
     2013.30321        -5.46591         5.87210
     2013.30595        -5.30537         5.78999
     2013.30869        -7.96083         5.96563
     2013.31143        -4.17229         5.77960
     2013.31416        -1.44575         5.84092
     2013.31690         1.00079         5.87210
     2013.31964        -2.65367         5.88249
     2013.32238        -1.02813         5.88041
     2013.32512         6.98541         5.94381
     2013.32785         3.50896         5.79415
     2013.33059        -2.05050         5.78687
     2013.33333        -7.51096         5.82013
     2013.33607        -0.54242         5.85131
     2013.33880        -0.45788         5.84819
     2013.34154         1.63466         5.81805
     2013.34428        -4.82880         6.09555
     2013.34702         5.51574         5.86170
     2013.34976         2.05528         5.90951
     2013.35249        -4.22118         5.87625
     2013.35523        -9.10964         6.25976
     2013.35797        -2.55610         5.77648
     2013.36071         1.67844         5.78479
     2013.36344         4.59598         6.02072
     2013.36624         9.63556         5.97914
     2013.36892         1.83307         5.76713
     2013.37166        -0.15339         5.76089
     2013.37440        -0.00485         5.79207
     2013.37713         1.53869         5.83988
     2013.37987        -0.51077         5.74322
     2013.38261        -4.74023         5.76609
     2013.38535         6.83431         5.85339
     2013.38809         2.64385         5.81805
     2013.39082         5.31839         5.94901
     2013.39356         4.03393         5.83364
     2013.39630         3.79747         5.78479
     2013.39904         3.41301         5.77752
     2013.40177        -3.04045         5.75777
     2013.40451         1.96309         5.76193
     2013.40725        -0.77936         5.81078
     2013.40999         0.79818         5.77336
     2013.41273         2.39672         5.74530
     2013.41546         0.55826         5.90743
     2013.41820        -6.55120         5.85131
     2013.42094         0.93734         5.83780
     2013.42368        -4.42612         5.79103
     2013.42642        -1.77358         5.80974
     2013.42915         1.27696         5.80142
     2013.43189        -2.93350         5.86274
     2013.43463        -0.35396         5.86586
     2013.43737         6.56058         5.88457
     2013.44010         0.16012         5.80038
     2013.44284        -2.70634         5.80246
     2013.44558         0.08020         5.90951
     2013.44832        -2.62625         5.79519
     2013.45106         0.09629         5.95420
     2013.45379        -0.03817         5.67878
     2013.45653         2.47837         5.75777
     2013.45927        -3.94509         5.75777
     2013.46184         6.27735         6.27223
     2013.46453        -1.43713         6.34810
     2013.46819        -0.26107         9.63855
     2013.47070        -7.60066        15.72890
     2013.47843        11.02969         5.80246
     2013.48117        17.47423         6.17454
     2013.48391        -0.65423         5.72659
     2013.48665         1.56032         5.73387
     2013.48939        -0.71914         5.64553
     2013.49212        -1.39160         5.90016
     2013.49486        -1.01006         5.77128
     2013.49686         0.96406         8.45790
     2013.50941        19.33012         8.91104
     2013.51129         4.71918         5.62266
     2013.51403        -1.34328         5.66943
     2013.51676         7.70926         5.79311
     2013.51950         4.00680         5.61643
     2013.52224         5.14134         5.67567
     2013.52492         2.66285         5.87833
     2013.52772         3.54343         5.74322
     2013.53045         2.58997         5.74114
     2013.53313         6.35347         5.84611
     2013.53587         3.71702         5.60499
     2013.53867         7.85059         5.77544
     2013.54141         5.59613         5.93030
     2013.54414         8.43767         5.80870
     2013.54688         2.87421         5.64241
     2013.54962         4.93775         5.64033
     2013.55236        10.39829         5.66216
     2013.55509         1.71483         5.78583
     2013.55686        15.34883        10.87533
     2013.57529         4.81920        12.33660
     2013.57700         7.52816         5.63409
     2013.57974         2.02870         5.65072
     2013.58247        10.29124         5.84819
     2013.58521         9.83878         5.65800
     2013.58795         3.21832         5.69333
     2013.59069         9.63686         5.70996
     2013.59342         6.79840         5.70269
     2013.59616         2.34994         5.67775
     2013.59890         6.98948         5.61643
     2013.60164        11.56702         5.64553
     2013.60438        14.36557         5.68918
     2013.60711         2.04211         5.76193
     2013.60985         6.91365         5.70996
     2013.61259         5.19019         5.73283
     2013.61533         5.84273         5.80038
     2013.61807        10.96227         5.82637
     2013.62080        12.39481         5.68398
     2013.62257         5.62180        10.40972
     2013.63529         2.76196         9.23634
     2013.63723        13.58705         5.68086
     2013.63997        16.18559         6.56739
     2013.64271        11.60613         5.79831
     2013.64544        11.92568         5.67151
     2013.64818        10.26422         5.68606
     2013.65092        11.73476         5.75154
     2013.65366         6.92330         5.63929
     2013.65639        13.61284         5.70685
     2013.65913         2.28938         6.05294
     2013.66187        10.57192         5.66631
     2013.66461         7.07646         5.64137
     2013.66735        13.57700         5.64864
     2013.67008        20.47254         5.69957
     2013.67282        23.19808         6.20779
     2013.67556        14.52862         6.06125
     2013.67830        24.62916         5.92406
     2013.68104         8.57770         5.75154
     2013.68377        12.04325         5.56966
     2013.68651         9.87279         5.59148
     2013.68925        11.46433         5.57174
     2013.69199        12.47187         5.69437
     2013.69472        17.60441         5.65072
     2013.69746        10.69795         5.59252
     2013.70020        17.15849         5.63825
     2013.70294         9.40903         5.66112
     2013.70568        18.52057         5.65592
     2013.70841        11.43111         5.90224
     2013.71115        10.47565         5.61850
     2013.71389         8.10219         5.56342
     2013.71663        10.18973         5.57278
     2013.71937         4.73127         5.86586
     2013.72210        16.05881         5.67878
     2013.72484        19.57636         5.85962
     2013.72758        14.34390         5.70477
     2013.73032        11.77644         5.55303
     2013.73305        13.41598         5.55095
     2013.73579        12.09752         5.57485
     2013.73853        11.70406         5.99577
     2013.74127        12.95660         5.57797
     2013.74401         8.98014         5.80870
     2013.74674        14.21168         5.81909
     2013.74948        13.00122         5.63306
     2013.75222         7.15076         5.63721
     2013.75496         7.08030         5.65280
     2013.75770         2.13584         5.56134
     2013.76043         3.00638         5.60395
     2013.76317         4.38693         5.60707
     2013.76591         8.87147         5.71516
     2013.76865         8.62901         5.69541
     2013.77138         8.85155         5.61019
     2013.77412        13.36709         5.64241
     2013.77686         9.84063         5.60707
     2013.77960        10.03817         5.68294
     2013.78234         2.01071         5.73803
     2013.78507         1.27525         5.66423
     2013.78781         1.78079         5.65280
     2013.79055         7.30833         5.59980
     2013.79329         5.83287         5.64553
     2013.79603         8.30441         5.66008
     2013.79876         7.55995         5.64553
     2013.80150         9.08649         5.73387
     2013.80424         8.41904         5.71620
     2013.80698         6.49058         5.58940
     2013.80971        14.57012         5.62578
     2013.81245        10.37666         5.66008
     2013.81519         4.72520         5.65280
     2013.81793         5.74874         5.56862
     2013.82067         7.87428         5.62266
     2013.82340        10.20482         5.68710
     2013.82614        10.50636         5.83052
     2013.82888        13.94190         5.67047
     2013.83162         4.39144         5.61331
     2013.83436         8.11698         5.78168
     2013.83709        11.93652         5.89080
     2013.83983        13.99406         5.78583
     2013.84257         5.26461         5.74322
     2013.84531         4.93215         5.79623
     2013.84804         3.55269         5.64241
     2013.85078         7.60323         5.70581
     2013.85352        16.58877         5.71308
     2013.85626         6.16631         5.63513
     2013.85900         8.55585         5.61643
     2013.86173         1.05839         5.66839
     2013.86447         1.53793         5.69749
     2013.86721         3.08747         5.69022
     2013.86995         6.06201         5.62994
     2013.87269        10.83155         5.61954
     2013.87542        14.73909         5.69749
     2013.87816        12.63263         5.65072
     2013.88090         9.22318         5.75673
     2013.88364        21.32672         6.00928
     2013.88626         7.65919         6.08515
     2013.88906         2.89477         5.76505
     2013.89185        -1.71666         5.64864
     2013.89459        -1.61812         5.65696
     2013.89733         8.10342         5.77232
     2013.90006         3.40696         5.71516
     2013.90246        -1.41269         6.81371
     2013.90554         5.93604         5.60188
     2013.90828         7.61658         5.61435
     2013.91102         4.32712         5.67047
     2013.91375        -3.16534         6.63599
     2013.91649         3.89820         5.75258
     2013.91923         8.84174         5.76297
     2013.92185         6.21522         6.06853
     2013.92470         5.16183         5.67775
     2013.92744         4.19637         5.87210
     2013.93018         5.06391         5.60811
     2013.93292         2.54745         5.59044
     2013.93566         0.35099         5.62994
     2013.93839        -2.52147         5.63513
     2013.94102        -2.39399         5.95004
     2013.94387         0.84561         5.61747
     2013.94649         0.79609         6.07372
     2013.94935         2.79569         5.64137
     2013.95208        -0.02877         5.61850
     2013.95482         5.11677         5.68606
     2013.95756         2.62831         5.66112
     2013.95995         3.62366         6.71498
     2013.96412         2.50801        11.74731
     2013.96577         4.81894         5.87002
     2013.96851         5.43548         5.64449
     2013.97125        -3.13698         5.72867
     2013.97399         4.55556         5.69437
     2013.97672         4.32910         5.69126
     2013.97946         1.96064         5.68606
     2013.98220        -1.15982         5.75673
     2013.98494        -2.57128         5.59564
     2013.98767         1.14026         5.64033
     2013.99041        -3.14720         5.74738
     2013.99315        -4.86966         5.70269
     2013.99589        -1.06212         5.71516
     2013.99863        -7.53058         5.69645
     2014.00416        -6.80246         5.83676
     2014.00684         5.32205         5.83780
     2014.00958        -0.49741         5.68294
     2014.01232        -5.23987         5.74842
     2014.01505        -2.91333         5.76609
     2014.01779         4.18621         5.79934
     2014.02053         2.12375         5.70373
     2014.02327         0.18829         5.96875
     2014.02600         8.33383         5.93342
     2014.02874         8.19537         5.68814
     2014.03148         6.53991         5.66216
     2014.03422         5.16245         5.65072
     2014.03696        -0.21301         5.72451
     2014.03969         0.96354         5.67567
     2014.04243         1.13708         6.05086
     2014.04517         2.96562         5.83052
     2014.04791         2.26616         5.63409
     2014.05065         4.18270         5.64241
     2014.05338        -1.40576         5.64033
     2014.05612        -5.13122         5.69126
     2014.05886        -0.21368         5.66735
     2014.06160        -1.13514         5.85859
     2014.06433        -1.33260         5.82637
     2014.06707         4.13994         5.81286
     2014.06981         5.58748         5.70996
     2014.07255         0.54902         5.63825
     2014.07529        -0.36844         5.63513
     2014.07802        -0.84290         5.73906
     2014.08076         7.08165         5.68398
     2014.08350         3.54819         5.61539
     2014.08624        -1.65927         5.70477
     2014.08898         2.87927         5.85235
     2014.09171        -4.22419         5.85651
     2014.09445        -6.35365         5.62994
     2014.09719        -3.97011         5.74738
     2014.09993         2.03643         5.59356
     2014.10266        -0.78803         5.79623
     2014.10540         2.10651         5.58005
     2014.10814        -7.71495         5.64553
     2014.11088        -2.49541         5.84507
     2014.11362         6.27713         5.73803
     2014.11635         3.66267         5.71932
     2014.11909         7.15122         5.72451
     2014.12183         4.61476         5.73387
     2014.12457         0.42330         5.83988
     2014.12731         5.94784         5.82221
     2014.13004         6.08538         5.73595
     2014.13278        11.56192         5.87833
     2014.13552         6.79046         5.82117
     2014.13826         6.92000         5.67878
     2014.14099         6.91854         5.71516
     2014.14373         0.18008         5.69437
     2014.14647        -1.13438         5.80766
     2014.14921         5.26116         5.73595
     2014.15195        -2.52730         5.75258
     2014.15468        -0.06376         5.81182
     2014.15742         3.30379         5.77232
     2014.16016        10.29833         5.93861
     2014.16290         4.84887         5.85131
     2014.16564        -1.23759         5.90224
     2014.16837         1.80895         6.07372
     2014.17111         4.20149         5.98850
     2014.17385        10.37303         6.03735
     2014.17659         6.40057         5.97083
     2014.17932        12.88611         6.06645
     2014.18206         3.75565         5.88457
     2014.18480         8.12119         6.22858
     2014.18754         2.15473         5.75881
     2014.19028         0.74327         5.74530
     2014.19301        -0.41219         5.72140
     2014.19575         2.52735         5.77128
     2014.19849         5.97890         5.86274
     2014.20123         0.09644         5.75881
     2014.20397        -3.70802         5.75465
     2014.20670        -0.22848         5.75361
     2014.20944         2.44906         5.78375
     2014.21218         2.52860         5.80662
     2014.21492         0.74314         5.88665
     2014.21765        -0.57032         5.75777
     2014.22039        -2.72578         5.73699
     2014.22313        -3.22924         5.71724
     2014.22587         2.19230         5.78895
     2014.22861         3.91284         6.00409
     2014.23134        13.01238         5.85859
     2014.23408         6.46292         5.81493
     2014.23682         2.60047         5.83156
     2014.23956        -5.71199         5.92406
     2014.24230        -2.41645         5.78375
     2014.24503        -3.27791         5.70996
     2014.24777         6.61763         5.99266
     2014.25051        -0.59283         5.72763
     2014.25325        -1.24429         5.75881
     2014.25598         4.34825         5.90639
     2014.25872         0.41379         5.77856
     2014.26146         2.22233         5.90743
     2014.26420        -5.67613         5.74738
     2014.26694        -3.82459         5.74322
     2014.26967         4.32595         5.93342
     2014.27241         0.28549         5.92198
     2014.27515        -0.85997         5.86482
     2014.27789         1.70758         5.80350
     2014.28062         0.02612         5.74634
     2014.28336        -1.45834         5.71204
     2014.28610         1.81320         5.82533
     2014.28884        -3.06026         6.28366
     2014.29158        -5.59572         5.71412
     2014.29431         3.43482         5.75673
     2014.29705         6.56236         5.74322
     2014.29979        -8.45610         5.76089
     2014.30253        -0.00656         5.71828
     2014.30527         9.46098         5.79519
     2014.30800         2.71452         5.72036
     2014.31074         0.39906         5.76920
     2014.31348         0.28560         5.74322
     2014.31622        -0.33185         5.69333
     2014.31895        -0.29031         5.78999
     2014.32169        -6.56177         5.88145
     2014.32443       -11.54723         5.86898
     2014.32717        -7.81269         5.87625
     2014.32991        -3.70515         5.75258
     2014.33264        -4.72161         5.76089
     2014.33538        -3.58207         5.74010
     2014.33812         2.20547         5.82637
     2014.34086         2.21801         5.69022
     2014.34360         0.07755         5.71620
     2014.34633        -5.85191         5.75258
     2014.34907         0.33663         5.98642
     2014.35181        -3.91983         5.91159
     2014.35455        -2.58828         5.72244
     2014.35728        -3.63474         5.72244
     2014.36002        -9.50220         5.76713
     2014.36276       -12.45366         5.76193
     2014.36550        -7.66412         5.75465
     2014.36824        -7.37058         5.82013
     2014.37097         0.64896         6.10906
     2014.37371        -8.35350         6.28886
     2014.37645         1.52604         5.76505
     2014.37919         2.26158         5.84923
     2014.38193        -5.32788         5.81805
     2014.38466        -3.25934         5.82013
     2014.38740        -6.62880         5.81182
     2014.39014        -6.28726         5.87417
     2014.39288         1.13728         5.83364
     2014.39561        -3.05217         5.88249
     2014.39835         2.21537         5.83676
     2014.40109        -4.34009         5.83780
     2014.40383        -5.29155         5.84819
     2014.40657         2.69899         5.83052
     2014.40930        -1.81547         5.81805
     2014.41204        -1.76393         5.92406
     2014.41478         1.67561         5.73803
     2014.41752        -5.07885         5.73283
     2014.42026         1.05969         5.84611
     2014.42299        -2.01777         5.76920
     2014.42573        -4.99523         5.76193
     2014.42847        -3.63469         6.01240
     2014.43121        -3.68115         5.76401
     2014.43394        -3.03360         5.81286
     2014.43668         2.45894         5.80142
     2014.43942        -4.28852         5.87106
     2014.44216        -2.06998         5.82221
     2014.44490         4.91156         5.89704
     2014.44763         4.64310         6.15583
     2014.45037        -1.84336         5.74114
     2014.45311        -0.17082         5.71932
     2014.45585         2.53972         5.75465
     2014.45859        -4.30774         5.72244
     2014.46132        -1.56720         5.69022
     2014.46406        -3.14066         5.85755
     2014.46680        -2.91812         6.16934
     2014.46954        -0.49958         5.69541
     2014.47227         3.08096         5.69437
     2014.47501         0.47451         5.72971
     2014.47781         0.88108         5.83468
     2014.48049         2.61759         5.72867
     2014.48323         5.23413         5.72140
     2014.48596         3.93167         5.75673
     2014.48870         7.02421         5.77856
     2014.49144         2.41675         5.64137
     2014.49418         3.53129         5.65592
     2014.49692        -3.39317         5.63825
     2014.49965        -1.69763         5.64864
     2014.50239        -0.44709         5.77440
     2014.50513        -6.51955         5.75258
     2014.50787         2.60299         5.68190
     2014.51060         2.02053         5.62370
     2014.51334         1.99808         5.66320
     2014.51608         2.49762         5.64137
     2014.51882         2.95416         5.89080
     2014.52156         8.64070         5.85235
     2014.52429         5.25924         5.71204
     2014.52703        10.31878         5.77336
     2014.52977         1.68832         5.69022
     2014.53251         3.59686         5.83364
     2014.53525         1.77640         5.71828
     2014.53798         9.77294         5.80662
     2014.54072         8.39348         5.88873
     2014.54346         7.75502         5.68710
     2014.54620         7.58556         5.87521
     2014.54893         4.81710         5.93549
     2014.55167        11.79264         5.93238
     2014.55441         2.34719         5.83052
     2014.55715        -0.06727         5.99577
     2014.55989         4.88627         5.82845
     2014.56262        -1.78719         5.62266
     2014.56536         0.80735         5.70996
     2014.56810         1.46689         5.71204
     2014.57084         4.36543         5.65488
     2014.57357         1.10097         5.77648
     2014.57631         4.26151         5.73387
     2014.57905         2.96305         5.90016
     2014.58179         0.80959         5.75777
     2014.58453         8.40113         5.85235
     2014.58726        -3.05933         6.09347
     2014.59000         1.78021         5.97603
     2014.59274         9.48276         5.79727
     2014.59548         7.40730         5.79311
     2014.59822         3.81584         5.91055
     2014.60095         5.09738         5.98018
     2014.60369         3.91892         5.85443
     2014.60643         0.56446         5.88249
     2014.60917         2.03000         5.80454
     2014.61191         3.41454         6.20364
     2014.61464         9.62308         6.54557
     2014.61738         6.09662         6.30133
     2014.62012         8.98216         6.08827
     2014.62286         0.38570         5.91990
     2014.62559         2.26424         5.83988
     2014.62833         3.30878         6.01864
     2014.63107         9.80533         5.96356
     2014.63381        -5.23713         6.13192
     2014.63655         7.23441         5.99058
     2014.63928         9.69295         6.13816
     2014.64202         4.02649         5.84403
     2014.64476         4.76103         5.96875
     2014.64750         3.79657         6.15583
     2014.65023         5.16911         5.83468
     2014.65252        11.64539         6.99351
     2014.65942        -9.30172        12.41766
     2014.66119         2.81827         5.99577
     2014.66392         4.74581         5.98642
     2014.66666         7.10635         5.80350
     2014.66940         7.26389         5.86794
     2014.67214         8.72144         5.95004
     2014.67488         1.86198         5.89288
     2014.67761         6.81052         5.83780
     2014.68035         6.07906         5.80558
     2014.68309         2.36860         5.80662
     2014.68583         3.70914         5.83988
     2014.68856         5.23668         5.87417
     2014.69130        -0.13678         5.86170
     2014.69404         1.19776         5.86170
     2014.69678         4.83530         5.80350
     2014.69952         3.67684         5.81701
     2014.70225         6.69938         5.83468
     2014.70500        -6.05107         6.14855
     2014.70773        10.90646         5.87417
     2014.71047         8.97801         5.84611
     2014.71321         6.98855         5.95940
     2014.71594         4.27009         5.89704
     2014.71868        -1.08437         5.90847
     2014.72142        -0.52083         5.79103
     2014.72416         9.63771         5.81182
     2014.72689         0.16025         5.96979
     2014.72963        10.46579         5.92822
     2014.73237         8.10433         5.75569
     2014.73511         5.81787         5.96252
     2014.73785         4.16241         5.78999
     2014.74058         8.13395         5.78999
     2014.74332         8.74249         5.92614
     2014.74606        13.59703         6.00513
     2014.74880         6.90757         5.84507
     2014.75154         2.62712         5.90016
     2014.75427         1.39966         5.99058
     2014.75701         1.82020         5.84092
     2014.75975         3.49974         5.87210
     2014.76249         7.28428         5.75881
     2014.76522         3.55182         5.72036
     2014.76796         8.77136         5.85962
     2014.77070         4.37090         5.81597
     2014.77344         3.14144         5.80662
     2014.77618        15.89498         6.01968
     2014.77891        12.10952         5.87625
     2014.78165         4.78306         5.82013
     2014.78439         9.87761         5.90224
     2014.78713         4.52314         5.89496
     2014.78987         3.83869         5.79934
     2014.79260         6.98823         5.96148
     2014.79534         9.91377         5.77648
     2014.79808         4.67631         5.94069
     2014.80082        10.26085         5.85235
     2014.80355         7.49439         5.98226
     2014.80629         8.09493         6.00201
     2014.80903        18.85747         6.18805
     2014.81177        10.27801         5.80766
     2014.81451         8.31655         5.91887
     2014.81724        18.18509         6.06437
     2014.81998         8.84063         5.85962
     2014.82266        11.57714         6.04982
     2014.82454        14.54220        10.51573
     2014.82820         0.26725         5.70269
     2014.83093        -0.57820         5.98434
     2014.83367        11.69534         5.86378
     2014.83641         8.18188         5.85235
     2014.83915         9.27842         5.92094
     2014.84188         8.70796         6.06333
     2014.84462        -0.73150         5.96148
     2014.84736        11.56104         6.07372
     2014.85010         6.86358         5.95836
     2014.85284         8.66112         5.84923
     2014.85557         8.98666         6.10594
     2014.85831        13.76720         5.88145
     2014.86105         4.63974         6.14024
     2014.86379        -0.86672         5.81805
     2014.86653         4.08982         5.84507
     2014.86926        -5.45263         5.74946
     2014.87200       -10.58909         5.75361
     2014.87474        -7.96255         5.92718
     2014.87748        -3.70701         5.85859
     2014.88021        -1.16547         6.18077
     2014.88295         4.94807         6.03007
     2014.88569         5.92961         5.93965
     2014.88843        10.16915         6.21923
     2014.89117        14.72769         6.36265
     2014.89390         8.93723         5.92614
     2014.89665        10.17077         6.00305
     2014.89938        12.54631         6.04358
     2014.90212         8.60285         5.99785
     2014.90485        -0.85161         6.01760
     2014.90759        17.20794         5.98018
     2014.91033         0.61248         5.97083
     2014.91307        14.28802         5.72763
     2014.91581         8.38856         5.74114
     2014.91854         7.70710         5.82845
     2014.92128         2.52864         5.78168
     2014.92402         9.13118         5.77024
     2014.92676        10.49572         5.77024
     2014.92950         2.80826         5.82429
     2014.93223        -0.05520         5.73387
     2014.93497        -0.14566         5.87210
     2014.93771         4.74888         5.91367
     2014.94045         5.65642         5.92302
     2014.94318        18.80996         6.54869
     2014.94592         5.74650         5.75569
     2014.94866        -1.22695         5.83988
     2014.95140        -3.68141         5.71932
     2014.95414         3.37413         5.70581
     2014.95687        10.45667         5.69957
     2014.95961        12.81621         5.75361
     2014.96235         5.29875         5.63721
     2014.96509         7.84529         5.90639
     2014.96783         8.59183         5.69749
     2014.97056        11.75637         5.76089
     2014.97330        -4.57009         5.88873
     2014.97604        -7.42855         5.80766
     2014.97878         7.38399         5.74114
     2014.98151         6.74353         5.91679
     2014.98425        -1.02193         5.67982
     2014.98699        -0.06438         5.67047
     2014.98973        -5.93484         5.65072
     2014.99247        -6.49330         5.86586
     2014.99520       -12.77776         5.73491
     2014.99794        -3.53722         5.71828
     2015.00068        -4.00968         5.69126
     2015.00342        -6.22614         5.70269
     2015.00616       -16.93860         5.69957
     2015.00889        -7.16606         5.81909
     2015.01163       -10.02052         5.79727
     2015.01437        -5.30698         5.88353
     2015.01711        -3.08644         5.72347
     2015.01984        -1.72690         5.68398
     2015.02258         4.39964         5.87002
     2015.02532         3.85318         5.72659
     2015.02806        -0.04327         5.74322
     2015.03080        -3.01773         5.95108
     2015.03353       -10.41319         5.88561
     2015.03628        -0.70965         5.79207
     2015.03901         2.79789         5.72971
     2015.04175         9.65643         5.83052
     2015.04449         3.01997         5.75777
     2015.04722         2.58651         5.91055
     2015.04996        -2.13695         5.98018
     2015.05270        -1.89741         5.67567
     2015.05544        -0.04087         5.69645
     2015.05817         6.06767         5.71516
     2015.06091        -2.05979         5.70685
     2015.06365         4.41975         5.81182
     2015.06639         2.19230         5.64137
     2015.06913         2.90784         5.73075
     2015.07186        -2.31562         5.78895
     2015.07460        -0.07208         5.67878
     2015.07734        -4.49154         5.70581
     2015.07922        -0.64448         9.29038
     2015.08282        -0.60946         5.80038
     2015.08555        -3.70092         5.70996
     2015.08829        -5.93538         5.89184
     2015.09103         9.00716         5.73283
     2015.09377        -8.20130         5.78168
     2015.09650         9.85924         5.92094
     2015.09924        -4.76822         6.26495
     2015.10198        -2.14968         5.99473
     2015.10472        11.79886         5.75673
     2015.10746        12.05941         5.99058
     2015.11019         0.18795         5.88249
     2015.11293        -6.01251         5.82741
     2015.11567         0.11303         5.80142
     2015.11841        -4.08643         5.65072
     2015.12115         0.79711         5.73075
     2015.12388        -3.79235         5.69853
     2015.12662        -5.40481         5.64657
     2015.12936        -2.76427         5.72036
     2015.13210         0.77327         6.11114
     2015.13483        -5.26019         5.88561
     2015.13757        -3.59865         5.81909
     2015.14031        -1.50111         5.67878
     2015.14305        -2.57857         5.67878
     2015.14579        -1.81102         5.69749
     2015.14852         1.49352         5.59772
     2015.15126         0.25706         5.73595
     2015.15400        -8.12740         5.94069
     2015.15639        -2.38705         6.49776
     2015.16598         5.42434        12.04351
     2015.16769        -0.84770         5.71516
     2015.17043        -3.10916         5.71308
     2015.17316        -2.88762         5.84923
     2015.17590        -4.22808         5.90120
     2015.17864         0.35146         5.68814
     2015.18138         0.40700         5.69022
     2015.18412         1.47655         5.64968
     2015.18685         0.02709         5.67671
     2015.18959         0.39663         5.65696
     2015.19233         1.61817         5.85755
     2015.19507        -3.80929         5.79415
     2015.19780        15.63625         5.74634
     2015.20054        -1.36521         5.82845
     2015.20328        -9.76167         5.74946
     2015.20602         0.33287         5.79623
     2015.20876        -0.54059         5.92614
     2015.21149        -3.16205         5.60188
     2015.21423        -6.01851         6.00513
     2015.21697        -4.55997         5.74634
     2015.21971        -3.85343         5.64449
     2015.22245        -0.19289         5.65488
     2015.22518         2.26566         5.61123
     2015.22792         2.81920         5.62786
     2015.23066        -0.87226         5.60603
     2015.23340         4.17528         5.77232
     2015.23613         7.75482         5.88145
     2015.23887        -2.97864         5.87625
     2015.24161         5.50890         5.87521
     2015.24435         2.39044         5.97083
     2015.24709        -1.74702         5.79831
     2015.24982        -3.68948         5.70165
     2015.25256        -2.77294         5.71932
     2015.25530         3.08960         5.69126
     2015.25804         0.76914         5.67359
     2015.26078         4.17168         5.69230
     2015.26351         5.13723         5.70061
     2015.26625         2.41377         5.67982
     2015.26899         0.95931         5.69333
     2015.27173         5.56885         5.83468
     2015.27446         9.25739         5.88353
     2015.27720         8.30993         5.67775
     2015.27994         3.44247         5.73283
     2015.28268        -2.28699         5.72347
     2015.28542         3.93555         5.87210
     2015.28815         0.40909         5.82741
     2015.29089         0.70563         5.76920
     2015.29363         6.52817         5.77336
     2015.29637         1.32171         5.67982
     2015.29911         8.46925         5.72659
     2015.30184         5.64679         5.72347
     2015.30464         3.75937         5.74634
     2015.30732         1.97388         5.60499
     2015.31006         2.54542         5.56342
     2015.31279         0.62796         5.53016
     2015.31553        -1.68050         5.58005
     2015.31827        -5.72296         5.72036
     2015.32101        -2.92042         5.55615
     2015.32375         0.77512         5.54575
     2015.32648        -1.63434         5.70165
     2015.32922         0.45720         5.75465
     2015.33196         6.59474         5.60499
     2015.33470         0.62228         5.53640
     2015.33744        -3.49118         5.73179
     2015.34017        -3.57964         5.60603
     2015.34291        -0.44609         5.60811
     2015.34565         1.87645         5.56030
     2015.34839         1.11099         5.58213
     2015.35112         0.13153         5.61643
     2015.35386        -1.16293         5.59044
     2015.35660        -3.28739         5.59460
     2015.35934         1.69715         5.73803
     2015.36208        -2.86531         5.83156
     2015.36481         1.22323         5.59564
     2015.36755         0.96777         5.56654
     2015.37029         3.54631         5.68190
     2015.37303        -6.86315         5.66320
     2015.37577        -0.98661         5.70061
     2015.37850        -0.24107         5.83572
     2015.38124        -5.33353         5.77544
     2015.38398         0.35702         5.66527
     2015.38672        -2.99844         5.61331
     2015.38945         0.08510         5.69126
     2015.39219         2.12764         5.68398
     2015.39493        -3.10182         5.69749
     2015.39767        -9.06928         5.63409
     2015.40041        -6.01674         5.64864
     2015.40314        -4.77620         5.80662
     2015.40588        -5.70766         5.74322
     2015.40862        -1.47712         5.82948
     2015.41136         4.38242         5.72036
     2015.41410        -3.37504         5.73803
     2015.41683        -5.07850         5.68606
     2015.41957        -2.34296         5.59876
     2015.42231        -4.56041         5.61123
     2015.42505        -3.95487         5.74322
     2015.42778        -2.53833         5.60603
     2015.43052        -0.18779         5.60603
     2015.43326        -2.07725         5.59980
     2015.43600        -2.03971         5.65904
     2015.43874         7.02983         5.75777
     2015.44147        -4.00863         5.79207
     2015.44421         1.29491         5.64553
     2015.44695        -1.96955         5.63617
     2015.44969        -3.35501         5.60811
     2015.45243         0.85353         5.69230
     2015.45516        -2.82993         5.63825
     2015.45790         0.09861         5.78168
     2015.46064        -1.99384         5.76609
     2015.46338        -1.32430         5.91575
     2015.46611        -0.86176         5.57693
     2015.46885         6.28278         5.61954
     2015.47159        -2.24668         5.66423
     2015.47433        -0.57414         5.74842
     2015.47707         0.20140         5.68710
     2015.47980        -0.84106         5.72763
     2015.48254         1.00148         5.81597
     2015.48528         0.68902         5.61850
     2015.48802        -4.36544         5.61019
     2015.49076        -6.17790         5.78791
     2015.49349         7.01464         5.91990
     2015.49623         3.95618         5.83260
     2015.49896       -10.07628         5.99785
     2015.50171        -3.25473         5.65592
     2015.50444         3.34881         5.61019
     2015.50718        -2.18765         5.59044
     2015.50992         4.17089         5.61747
     2015.51266        -0.02657         5.77648
     2015.51540        -1.37403         5.74946
     2015.51813         6.46251         5.93134
     2015.52087         2.79605         5.75985
     2015.52361        10.43359         5.73179
     2015.52635         5.43313         5.64241
     2015.52908        10.91367         5.74842
     2015.53182         7.21121         5.66216
     2015.53456         4.19475         5.65176
     2015.53730         2.42229         5.65696
     2015.54277         0.04238         5.75465
     2015.54551         9.49292         5.73491
     2015.54825         6.73246         5.70477
     2015.55099         8.28100         5.78895
     2015.55373         3.00854         5.75569
     2015.55646        10.31908         5.92926
     2015.55920         2.63862         5.76609
     2015.56194        15.01016         5.77128
     2015.56468         1.32070         5.73906
     2015.56741         5.71224         5.88665
     2015.57015         6.07778         5.83988
     2015.57289         5.49332         5.84092
     2015.57562         2.41286         5.69957
     2015.57837        -2.03260         5.75050
     2015.58110         2.07795         5.76505
     2015.58384         6.99349         5.80454
     2015.58658        12.80403         5.74114
     2015.58932         5.98657         5.83364
     2015.59206         7.83711         5.87314
     2015.59479         5.61265         5.73803
     2015.59753         9.27519         5.71308
     2015.60027        10.64973         5.79623
     2015.60301        13.35527         5.91887
     2015.60574         4.93681         5.87937
     2015.60848         5.98535         5.77960
     2015.61122         6.77689         5.82948
     2015.61396        15.69843         5.84611
     2015.61670         7.60097         5.69022
     2015.61943         5.81952         5.63202
     2015.62217         4.82206         5.63721
     2015.62491         9.24160         5.61435
     2015.62765        10.25314         5.57901
     2015.63039         8.57468         5.68918
     2015.63312        10.25322         5.57693
     2015.63506         1.24031        10.06467
     2015.64407         6.26638         5.63202
     2015.64681        12.07192         5.64864
     2015.64955         3.34546         5.54056
     2015.65229         2.28300         5.58629
     2015.65503         8.65054         5.59356
     2015.65776         7.60709         5.83780
     2015.66050        10.90063         5.68606
     2015.66324        12.24417         5.64553
     2015.66598         4.11071         5.78272
     2015.66872        22.62125         5.65384
     2015.67145        10.68479         5.60811
     2015.67419         8.29433         5.56758
     2015.67693        11.63187         5.54575
     2015.67967         6.71141         5.52808
     2015.68240         4.42195         5.63098
     2015.68514         1.96549         5.58317
     2015.68788         1.09603         5.65696
     2015.69062        11.49457         5.62890
     2015.69336         4.33611         5.74634
     2015.69609         5.13665         5.55822
     2015.69883         8.36520         5.57174
     2015.70157        17.40274         5.77544
     2015.70431        12.78928         5.63513
     2015.70705         9.53282         5.58733
     2015.70978         9.53136         5.55199
     2015.71252         2.30390         5.57901
     2015.71526         8.86944         5.56966
     2015.71800         7.95998         5.61227
     2015.72073        12.07452         5.60915
     2015.72307         3.79484         6.54245
     2015.72992        12.38269        10.68721
     2015.73169         2.62968         5.56342
     2015.73363         1.53278         8.57430
     2015.73716         3.06577         5.67463
     2015.73990        10.33631         5.72659
     2015.74264         2.39185         5.68398
     2015.74538         9.91339         5.84715
     2015.74811         7.36093         5.89080
     2015.75085         0.96647         5.61850
     2015.75359         7.67101         5.62266
     2015.75633         5.19655         5.56862
     2015.75906         8.90709         5.56030
     2015.76180         8.62963         5.58629
     2015.76454         8.20017         5.64345
     2015.76728         4.36171         5.64449
     2015.77002         4.66225         5.64553
     2015.77275        11.53279         5.58005
     2015.77549         5.72133         6.30549
     2015.77823        15.26288         5.61019
     2015.78097         4.66842         5.59668
     2015.78371         8.96096         5.59564
     2015.78650         9.21253         5.73387
     2015.78918         5.10504         5.55719
     2015.79192        11.58458         5.55511
     2015.79466        10.05612         5.56342
     2015.79739        12.49066         5.55822
     2015.80013         7.53320         5.76817
     2015.80287         3.63874         5.54783
     2015.80561         4.20828         5.74842
     2015.80835         5.14082         5.58005
     2015.81108         1.28536         5.59460
     2015.81382         3.66490         5.60084
     2015.81656         0.92545         5.59356
     2015.81930         5.55299         5.58109
     2015.82203         6.18453         5.62370
     2015.82477         9.35907         5.64241
     2015.82751        12.20461         5.67982
     2015.83025        18.06015         5.79519
     2015.83299         1.23069         5.75258
     2015.83572         7.14823         5.69645
     2015.83846         2.05677         5.88249
     2015.84120         7.76431         5.73803
     2015.84394         1.84885         5.73699
     2015.84668        -0.21761         5.71516
     2015.84941         8.47193         5.76089
     2015.85215        12.59347         5.80350
     2015.85489        12.77901         5.79831
     2015.85763        -1.09244         5.80246
     2015.86036         2.23410         5.67359
     2015.86310         2.55964         5.72659
     2015.86584         9.31918         5.75361
     2015.86858         0.85372         5.81493
     2015.87132         0.90426         6.00097
     2015.87405         4.86780         5.72867
     2015.87679         9.42934         5.80454
     2015.87953         6.08288         5.86586
     2015.88227         2.25842         5.85547
     2015.88501        -6.23404         5.78791
     2015.88746        -0.97966         6.61520
     2015.89303         7.80848         6.06437
     2015.91332         6.41790         9.90981
     2015.91512        -3.85009         5.83364
     2015.91786         2.50945         5.83884
     2015.92060        -4.96801         5.83052
     2015.92334         3.43453         5.75465
     2015.93245         5.21666         9.96178
     2015.93429         4.42370         6.81163
     2015.93702        15.88824         6.14751
     2015.93976        10.90178         6.15063
     2015.94250         9.94532         5.99473
     2015.94524         4.41286         5.91263
     2015.94798         8.88340         5.85235
     2015.95071        10.97894         5.55407
     2015.95345         3.24948         5.62578
     2015.95619         7.58402         5.75985
     2015.95893         5.52256         6.01760
     2015.96988        10.56172         5.80870
     2015.97262        13.38826         5.75777
     2015.97535        10.23581         5.90847
     2015.97809         4.83335         5.75361
     2015.98083         1.55089         5.64968
     2015.98357        -5.16257         5.66320
     2015.98631        -4.59903         5.78479
     2015.98904        -2.97649         5.78479
     2015.99178        -8.58795         5.75050
     2015.99458       -10.79538         6.09867
     2015.99731        -7.15284         5.74738
     2016.00000        -8.64433         5.69853
     2016.00273        -8.99179         5.69022
     2016.00547        -4.22325         5.75154
     2016.00821         4.56329         5.73906
     2016.01095        -0.06617         5.72140
     2016.01368         0.96638         5.74010
     2016.01642         4.54192         5.77440
     2016.01916         1.02246         5.95732
     2016.02190         0.61600         5.86898
     2016.02464        -0.99046         5.80454
     2016.02737        -2.78792         5.72036
     2016.03011        -2.44938         5.66112
     2016.03285        -9.04684         5.75881
     2016.03559        -1.75130         5.70477
     2016.03833         0.35224         5.86066
     2016.04106        -0.57922         5.68398
     2016.04380        -0.17268         5.73387
     2016.04660        -6.87510         5.75985
     2016.04928         3.27840         5.71204
     2016.05201         1.01594         5.71100
     2016.05475         2.70249         5.66216
     2016.05749        -4.11697         5.76713
     2016.06029         1.88460         5.93445
     2016.06297        -0.42289         5.68918
     2016.06570        -0.44535         5.83780
     2016.06844        -0.68081         5.80350
     2016.07118        -5.91327         5.71724
     2016.07392        -3.07173         5.78687
     2016.07666         1.50281         5.88457
     2016.07939         7.58935         5.85859
     2016.08213        -2.01611         5.91783
     2016.08487         0.42843         5.70685
     2016.08761        -8.61403         5.72971
     2016.09034        -7.48149         5.69957
     2016.09308        -0.67694         5.81805
     2016.09542        -8.44863         6.81059
     2016.10483        -7.29733         8.99314
     2016.10677       -13.94624         5.74530
     2016.10951        -5.49570         5.73906
     2016.11230        -9.09113         5.90431
     2016.11498        -3.50462         5.81389
     2016.11772        -9.70008         5.74218
     2016.12046        -8.83054         5.69645
     2016.12320        -0.58900         5.74426
     2016.12594        -1.87946         5.71100
     2016.12867        -0.92192         5.85235
     2016.13141         7.86162         5.96979
     2016.13415         7.28917         5.84196
     2016.13689        -0.19329         5.74114
     2016.13963        -4.26275         5.64761
     2016.14236       -10.12821         5.72763
     2016.14516       -12.84864         5.88041
     2016.14784       -12.60113         5.61227
     2016.15058        -4.53359         5.68710
     2016.15331        -4.21405         5.82013
     2016.15605        -3.38251         5.70269
     2016.15879        -4.84897         5.88041
     2016.16153        -8.71943         5.89080
     2016.16427       -10.71289         5.96044
     2016.16700        -1.07035         6.06333
     2016.16974        -9.67981         5.85547
     2016.17248        -5.82026         5.93445
     2016.17522        -3.09672         5.83780
     2016.17796         3.06182         5.92718
     2016.18069         1.47236         5.78895
     2016.18343        -6.46910         5.93238
     2016.18617        -2.02956         5.67463
     2016.18891        -0.43002         5.79519
     2016.19164        -0.87148         5.67982
     2016.19438         2.94506         5.66943
     2016.19712         3.71760         5.67463
     2016.19986        11.70014         5.79311
     2016.20260        -9.54932         5.75258
     2016.20533        -9.41978         5.86690
     2016.20807        -4.77924         5.83364
     2016.21081        -9.96569         5.77960
     2016.21355        -6.08215         5.71724
     2016.21629        -7.28461         5.56862
     2016.21902        -3.97707         5.69126
     2016.22176         2.80547         5.60915
     2016.22450        -9.49399         5.64241
     2016.22724        -7.00345         5.70165
     2016.22997        -6.96591         5.56030
     2016.23271        -6.38637         5.60915
     2016.23545        -1.93083         5.64137
     2016.23819        -2.20529         5.66112
     2016.24093         3.67025         5.69022
     2016.24366        -4.06121         5.58733
     2016.24640        -1.14067         5.55926
     2016.24914        -1.72313         5.61435
     2016.25188        -2.03058         5.67359
     2016.25462        -2.46404         5.71620
     2016.25735        -5.62250         5.72971
     2016.26009        -7.28096         5.58525
     2016.26283        -9.99242         5.63721
     2016.26557        -5.28888         5.68502
     2016.26830        -4.69334         5.65176
     2016.27104        -2.99380         5.69957
     2016.27378         4.70574         5.61539
     2016.27652        -5.36372         5.55303
     2016.27926        -3.10318         5.67775
     2016.28142        -4.94396         7.42275
     2016.28815        -9.44717         7.95695
     2016.29021        -6.79701         5.69126
     2016.29295       -10.18447         5.64033
     2016.29568        -8.28593         5.69541
     2016.29842        -4.15839         5.77856
     2016.30116        -4.47585         5.75569
     2016.30390        -3.03931         5.61123
     2016.30663         7.81923         5.78168
     2016.30937        -0.03623         5.63929
     2016.31211        -2.52769         5.71204
     2016.31485        -0.18215         5.69022
     2016.31759         1.31839         5.61643
     2016.32032        -4.63607         5.58525
     2016.32306        -6.37853         5.85859
     2016.32580        -7.22099         5.64553
     2016.32854        -5.19945         5.63306
     2016.33128        -6.48290         5.68502
     2016.33401        -6.23436         5.58109
     2016.33675        -4.37182         5.59564
     2016.33949        -6.15028         5.93030
     2016.34223        -7.82774         5.79207
     2016.34496        -5.87920         5.92926
     2016.34770         4.31934         5.68502
     2016.35044        -1.46512         5.69022
     2016.35318        -2.57658         5.52393
     2016.35592        -6.82604         5.58421
     2016.35865       -12.04650         5.67255
     2016.36139         1.05504         5.63825
     2016.36413        -0.41142         5.58836
     2016.36687        -2.72088         5.56654
     2016.36961         5.92867         5.62058
     2016.37234         3.87121         5.55303
     2016.37508         2.14775         5.62370
     2016.37782        -7.87671         5.59044
     2016.38056         4.83183         5.64864
     2016.38329         0.85437         5.55822
     2016.38603        -0.73609         5.61123
     2016.38877         8.86345         5.58421
     2016.39151        -0.14701         5.53744
     2016.39396        -1.80463         7.09952
     2016.41438       -13.06514        10.59783
     2016.41615        -7.07614         5.64033
     2016.41889         3.15140         5.66008
     2016.42162        -4.26906         5.69853
     2016.42436       -11.01452         5.52185
     2016.42710        -0.54698         5.58005
     2016.42984        -6.68644         5.60811
     2016.43258         0.90710         5.62994
     2016.43531         6.39864         5.68502
     2016.43805         3.56018         5.66423
     2016.44079        -0.48128         5.51146
     2016.44353        -1.87374         5.59148
     2016.44626        -9.12720         5.60603
     2016.44900        -2.53365         5.57901
     2016.45174         4.47989         5.62370
     2016.45448        -0.39657         5.49794
     2016.45722        -3.44403         5.57070
     2016.45995         1.08351         5.60292
     2016.46269        -7.62795         5.74530
     2016.46543        -5.53441         5.63098
     2016.46822         0.44616         5.65800
     2016.47096         2.24170         5.62994
     2016.47370        -0.78976         5.63098
     2016.47644         4.63578         5.69126
     2016.47918         5.78033         5.82845
     2016.48191        -0.49813         5.58109
     2016.48465         0.71441         5.64761
     2016.48739        -5.52105         6.63911
     2016.49013        -5.01951         5.68190
     2016.49287        -1.02197         5.74634
     2016.49560        -1.84443         5.65176
     2016.49828         0.62108         5.58525
     2016.50102         4.38762         5.59772
     2016.50376         1.00416         5.74010
     2016.50650        10.15370         5.75777
     2016.50924         6.12524         5.55719
     2016.51197        -5.47722         5.60188
     2016.51477        -1.23165         5.62786
     2016.51751         1.72489         5.77024
     2016.52024        -5.69256         6.40734
     2016.52298         3.45498         5.71828
     2016.52572         0.97452         5.60395
     2016.52846         1.41006         5.72036
     2016.53120        -4.11040         5.72347
     2016.53393        -4.18886         5.69333
     2016.53667         6.43568         5.72036
     2016.53941        -1.75578         5.65800
     2016.54215        -1.58524         5.71412
     2016.54488         3.60830         5.78583
     2016.54762         0.99684         5.74010
     2016.55036        -1.76362         5.88041
     2016.55310         5.23992         5.69022
     2016.55589         5.90650         5.90224
     2016.55852        -4.61403         6.03007
     2016.56131         3.35555         5.70581
     2016.56405         2.12109         5.72763
     2016.56679         8.14963         5.84507
     2016.56953        -9.95183         5.92198
     2016.57226         5.43371         5.77440
     2016.57500         8.15525         5.84923
     2016.57774         5.58179         5.82845
     2016.58048         2.29033         5.73699
     2016.58321         2.95587         5.62266
     2016.58595         5.79141         5.60811
     2016.58869         5.24195         5.70581
     2016.59137        -1.91354         5.54887
     2016.59411         7.36300         5.65592
     2016.59685         8.00054         5.72140
     2016.59958         4.53108         5.67671
     2016.60232         1.05762         5.61331
     2016.60506         7.20716         5.61019
     2016.60780         1.46371         5.64449
     2016.61054         2.55425         5.60707
     2016.61327         4.72679         5.56446
     2016.61601        -0.35467         5.52081
     2016.61875         5.39787         5.63098
     2016.62149         2.20641         5.67775
     2016.62423         2.84595         5.67359
     2016.62691         5.57546         5.65384
     2016.62970         3.22603         5.56342
     2016.63244         5.00857         5.61539
     2016.63518         9.08111         5.54575
     2016.63757        13.02646         6.34290
     2016.64969        -3.75572         9.47746
     2016.65160         9.48136         5.64864
     2016.65434         2.01190         5.60603
     2016.65708        17.03944         5.61747
     2016.65982         0.38398         5.65384
     2016.66256         4.04452         5.61539
     2016.66529         3.95106         5.64241
     2016.66803         3.33360         5.63098
     2016.67077        10.44014         5.68814
     2016.67351         5.14168         5.55615
     2016.67624         7.88722         5.59044
     2016.67898         1.84676         5.74842
     2016.68172        11.69230         5.67359
     2016.68446         9.08884         5.81182
     2016.68720         4.21439         5.97083
     2016.68993         4.80093         5.76401
     2016.69267         1.22747         5.57589
     2016.69541        -1.13599         5.67463
     2016.69815         7.51955         5.59044
     2016.70089         9.99809         5.53640
     2016.70362         8.59563         5.69022
     2016.70636         4.83217         5.88976
     2016.70910         3.87471         5.91783
     2016.71184        14.60625         5.58317
     2016.71457        12.54779         5.60499
     2016.71731        10.74933         5.62890
     2016.72005         8.10287         5.59044
     2016.72279        10.29241         5.58836
     2016.72553        11.97996         5.74738
     2016.72724         6.88592        10.73918
     2016.73648         4.96812         5.50314
     2016.73921         3.19866         5.51769
     2016.74195         4.77220         5.54471
     2016.74469         8.42074         5.50834
     2016.74743        11.29528         5.53640
     2016.75017         8.45782         5.59252
     2016.75290         9.43736         5.54264
     2016.75564        10.22990         5.62474
     2016.75838         7.89744         5.46884
     2016.76112         8.81398         5.55822
     2016.76386         5.26253         5.52081
     2016.76659         6.34407         5.59772
     2016.76933         9.86961         5.54991
     2016.77207         4.65915         5.59148
     2016.77481        12.32669         5.66320
     2016.77754         5.42623         5.53224
     2016.78028         1.99877         5.54679
     2016.78302         6.96531         5.60499
     2016.78576         7.18785         5.88145
     2016.78850        18.54439         5.64449
     2016.79123        19.39193         5.61123
     2016.79397        17.30247         5.63929
     2016.79677         7.05605         5.66527
     2016.79945         1.78055         5.52393
     2016.80219         6.07409         5.58629
     2016.80492        13.21264         5.60603
     2016.80766         6.51418         5.60603
     2016.81040         1.21672         5.63306
     2016.81314         0.58326         5.75258
     2016.81587         1.39480         5.73906
     2016.81861        -0.88266         5.61019
     2016.82135        -0.32112         5.89912
     2016.82409         3.66842         6.26703
     2016.82683         2.69296         5.56654
     2016.82956         5.54650         5.70581
     2016.83230        17.28104         5.57589
     2016.83504         2.46058         5.48028
     2016.83778         5.16812         5.57381
     2016.84052        -2.56734         5.57174
     2016.84325        -1.09879         5.57174
     2016.84599         4.27875         5.51353
     2016.84873         9.41729         5.66943
     2016.85147         0.00983         5.53848
     2016.85420        -3.93363         5.59148
     2016.85694         2.57091         5.61747
     2016.85968        -1.91255         5.71308
     2016.86242         4.21799         5.55615
     2016.86516         8.01353         5.69749
     2016.86789         1.47707         5.59772
     2016.87063         4.56761         5.66735
     2016.87337         2.18515         5.81909
     2016.87611         1.49169         5.59980
     2016.87885         2.37123         5.56550
     2016.88158        -3.81923         5.61435
     2016.88432         6.08732         5.71620
     2016.88706        -3.72714         5.79311
     2016.88980         6.83340         5.64553
     2016.89253         4.09594         5.63929
     2016.89527        14.10348         5.99681
     2016.89801         7.54402         5.65176
     2016.90075        11.25456         5.74114
     2016.90349         5.51910         5.82845
     2016.90622        15.64764         5.71204
     2016.90896         3.57218         5.63306
     2016.91170         6.18772         5.54367
     2016.91444         4.23826         5.58005
     2016.91718        -0.48520         5.81389
     2016.91991        -4.31966         5.69957
     2016.92265        -0.63411         5.59044
     2016.92539         3.11443         5.57381
     2016.92813        -8.17903         5.65800
     2016.93086        -4.26049         5.60395
     2016.93360        -5.85595         5.75465
     2016.93634        -7.31141         5.62266
     2016.93908       -10.11287         5.81805
     2016.94182       -20.83733         5.63617
     2016.94455        -8.38979         5.57901
     2016.94729         0.78375         5.73387
     2016.94998       -11.99374         5.88145
     2016.95383        -4.78757        11.65169
     2016.95551       -20.68763         5.63929
     2016.95824       -18.82609         5.55719
     2016.96098       -20.14755         5.56550
     2016.96646       -15.49046         5.51146
     2016.96919       -22.34392         6.24729
     2016.97193       -19.02738         5.58629
     2016.97467        -7.28684         5.58940
     2016.97741        -5.35830         5.59980
     2016.98015       -12.44576         5.51769
     2016.98288       -17.57922         5.53328
     2016.98562       -13.77768         5.56758
     2016.98836        -1.46514         5.59252
     2016.99110        -8.57060         5.61019
     2016.99384        -9.74106         5.56654
     2016.99657       -12.77052         5.58733
     2016.99931       -12.70798         5.52081
     2017.00088        -4.29809        14.95774
     2017.00479       -10.56689         5.56134
     2017.00695       -17.33467         7.65763
     2017.01026       -15.84881         5.56030
     2017.01300       -10.85527         5.53536
     2017.01574       -14.99173         5.58836
     2017.01848       -13.06819         6.37824
     2017.02121       -12.71765         5.60603
     2017.02395        -9.66111         5.67775
     2017.02669       -18.03157         5.61435
     2017.04312       -23.61032         5.59044
     2017.04585       -18.61578         5.82948
     2017.04859       -17.87824         6.09347
     2017.05133       -12.94270         5.80974
     2017.05281         0.88013        21.79223
     2017.06616        -7.57136        14.92344
     2017.06776       -17.64246         5.66943
     2017.07049       -13.97692         5.59772
     2017.07238       -20.17486         9.32572
     2017.08260       -21.46811        15.66551
     2017.08418       -15.52821         5.58213
     2017.08966       -20.54613         5.63929
     2017.09240       -21.97459         5.65072
     2017.09514       -11.81005         5.63409
     2017.09787        -2.67151         5.79934
     2017.10061        -4.20297         5.79727
     2017.10335        -4.01543         5.73075
     2017.10609        -9.78989         5.66943
     2017.10882        -2.60035         5.83156
     2017.11156        -8.83481         5.65696
     2017.11430       -11.42327         5.68086
     2017.11704       -15.99173         5.78791
     2017.11978       -11.16018         5.58525
     2017.12251       -11.59764         5.57070
     2017.12531        -3.68307         5.88145
     2017.12805       -11.02753         5.93030
     2017.13078         2.00501         5.67047
     2017.13347         9.20252         5.54575
     2017.13620        -0.09794         5.64657
     2017.13894        -7.61440         5.58629
     2017.14168        -6.68686         5.64657
     2017.14442        -9.27232         5.55511
     2017.14715       -13.02578         5.59876
     2017.14989        -6.00624         5.57797
     2017.15263        -4.75370         6.21299
     2017.15537        -1.47116         5.54264
     2017.15811        -1.99962         5.72244
     2017.16084        -5.26807         5.55926
     2017.16358       -13.64653         5.56342
     2017.16632        -5.16899         5.68086
     2017.16911        -1.81342         5.74010
     2017.17185        -4.41588         5.81701
     2017.17459        -9.41534         5.78895
     2017.17733        -1.73580         5.87937
     2017.18001        -7.32629         5.60084
     2017.18275        -3.97675         5.68294
     2017.18548        -6.40021         5.52912
     2017.18822       -12.72967         5.80454
     2017.19096       -11.40513         5.69853
     2017.19370        -7.61259         5.68814
     2017.19644        -5.53605         5.60707
     2017.19917         5.31750         5.58005
     2017.20191        -0.78996         5.68606
     2017.20465        -8.46642         5.78375
     2017.20739        -6.25088         5.60292
     2017.21013        -5.84434         5.71828
     2017.21286        -2.11880         5.60395
     2017.21560        -9.72626         5.56238
     2017.21834       -11.75172         5.59772
     2017.22108        11.47082         5.71204
     2017.22381       -10.73664         5.69645
     2017.22655         0.10990         5.68294
     2017.22929        -5.01056         5.58109
     2017.23203        -4.22202         5.56550
     2017.23477        -3.63748         5.60188
     2017.23750       -16.93693         5.60499
     2017.24024        -4.43239         5.53224
     2017.24298        -6.00485         5.52808
     2017.24469        -2.69589        12.34491
     2017.25475       -13.65323         8.74682
     2017.25667        -9.03515         5.55926
     2017.25941        -8.33861         5.57693
     2017.26186       -10.75923         6.45203
     2017.26579         2.33399        10.28500
     2017.26762        -1.99099         5.62162
     2017.27036        -2.20645         5.57901
     2017.27310        -6.33191         5.63617
     2017.27566        -6.40946         5.93653
     2017.29317        -9.53661         9.90462
     2017.29500       -12.34458         5.59044
     2017.29871       -16.53449        10.36919
     2017.30047       -15.84350         5.55719
     2017.30219       -18.25154        13.15142
     2017.30595        -7.51342         5.59980
     2017.30869       -13.42588         5.55511
     2017.31143        -8.75234         5.59044
     2017.31416        -8.00080         5.53640
     2017.31690        -8.00825         5.57485
     2017.31964        -7.57671         5.71932
     2017.32238       -18.74317         5.69022
     2017.32512       -15.19163         5.55303
     2017.32785       -15.52609         5.63202
     2017.33059       -13.90155         5.55615
     2017.33333       -15.38301         5.52497
     2017.33607       -18.45547         5.57070
     2017.33880       -17.06393         5.53952
     2017.34154       -24.39039         6.22546
     2017.34428       -12.01585         5.60292
     2017.34702        -8.39531         5.50522
     2017.34976       -11.74477         5.50210
     2017.35249       -12.64323         5.50314
     2017.35523       -16.07769         5.54887
     2017.35797       -13.60714         5.58940
     2017.36071       -14.17760         5.53016
     2017.36344       -13.52006         5.57485
     2017.36618       -14.20852         5.51977
     2017.36892        -8.71198         5.53328
     2017.37166        -8.05344         5.56550
     2017.37440        -3.97590         5.55615
     2017.37713        -8.52136         5.63098
     2017.37885       -14.62540        12.48730
     2017.39082       -11.91366         5.61435
     2017.39356        -5.97312         5.66839
     2017.39630        -8.68157         5.56758
     2017.39904        -7.84103         5.48443
     2017.40177       -12.39949         5.52081
     2017.40451        -9.49695         5.68502
     2017.40725        -8.47841         5.56862
     2017.40999       -12.29687         5.64657
     2017.41273       -11.11133         5.65592
     2017.41546       -11.88679         5.60395
     2017.41820        -7.44625         5.68398
     2017.42094        -8.78771         5.65696
     2017.42368       -15.26317         5.76401
     2017.42642       -13.45463         5.63617
     2017.42915       -12.96409         5.52497
     2017.43189       -10.81055         5.73179
     2017.43463        -2.62201         5.62058
     2017.43737        -1.48146         5.71412
     2017.44010        -6.48792         5.62578
     2017.44284        -1.26738         5.50210
     2017.44558        -4.60484         5.58733
     2017.44832        -8.27230         5.50522
     2017.45191        -3.75128         9.48993
     2017.45379        -5.59722         5.74218
     2017.45556        -4.51223        11.66417
     2017.46475       -10.43606         5.59356
     2017.46748       -12.49652         5.80142
     2017.47022       -15.52798         5.77024
     2017.47296        -6.53644         5.67567
     2017.47473       -14.12844        10.49598
     2017.48391        -0.51827         5.77440
     2017.48665        -6.40073         5.79311
     2017.48939       -11.11419         5.78375
     2017.49212        -7.25365         5.65384
     2017.49486       -10.96211         5.68710
     2017.49760        -8.08457         5.67878
     2017.50034        -3.32203         5.70373
     2017.50308        -0.35349         5.70581
     2017.50581        -7.95795         5.66423
     2017.50855        -7.42841         5.61123
     2017.51129        -8.11487         5.76297
     2017.51403        -2.57632         5.71724
     2017.51676        -6.98978         5.63929
     2017.51950       -10.32524         5.66112
     2017.52224        -0.01970         5.71308
     2017.52498        -3.99716         5.73906
     2017.52772        -1.35562         5.76297
     2017.53045        -7.95008         5.67775
     2017.53319        -6.48854         5.83572
     2017.53593         6.43300         5.95628
     2017.53867        -0.94046         5.73491
     2017.54141         0.32508         5.65800
     2017.54414        -3.17138         5.66112
     2017.54688         0.58616         5.82741
     2017.54962        -0.74930         5.75258
     2017.55133         1.54167        10.79219
     2017.56057         1.05387         5.73595
     2017.56331         0.58641         5.68190
     2017.56605        -5.58805         5.72867
     2017.56878        -4.71751         5.72555
     2017.57152         2.59903         5.66943
     2017.57426        -2.62843         5.70685
     2017.57700        -5.25689         5.68606
     2017.57974        -8.17835         5.66112
     2017.58247        -7.04481         5.65592
     2017.58521        -8.98327         5.61227
     2017.58795        -3.51173         5.77336
     2017.59069        -5.19219         5.75465
     2017.59342        -3.18564         5.69230
     2017.59616        -2.45910         5.67151
     2017.59890        -4.19956         5.65176
     2017.60164         3.19198         5.65904
     2017.60438        -8.43548         5.72555
     2017.60711        -6.79594         5.74738
     2017.60985        -5.22440         5.81597
     2017.61259        -0.79686         5.67151
     2017.61533        -1.15032         5.77856
     2017.61807        -1.77278         5.82221
     2017.62080        -1.71924         5.72347
     2017.62354        -3.88070         5.79415
     2017.62628        -3.83016         5.80454
     2017.62902        -0.16662         5.94901
     2017.63175        -6.65308         5.79415
     2017.63449        -4.90753         5.78583
     2017.63723        -0.72799         5.66527
     2017.63997         3.01455         5.74842
     2017.64271         2.15809         5.61954
     2017.64544         5.66963         5.84715
     2017.64818        -2.69283         5.83676
     2017.65092         3.39371         5.64968
     2017.65366         1.52725         5.67047
     2017.65639         0.17879         5.66216
     2017.65913         6.13833         5.77960
     2017.66187         4.05787         5.84403
     2017.66461         8.11641         5.85131
     2017.66735         3.80095         5.78272
     2017.67008        -1.16151         5.67047
     2017.67282         1.85504         5.78479
     2017.67556         2.88558         5.65176
     2017.67830         2.11612         5.60188
     2017.68104        -0.05434         5.61331
     2017.68349         5.56404         6.54037
     2017.68736        19.60321        10.00023
     2017.68925         6.51728         5.75258
     2017.69199         0.57382         5.79831
     2017.69472         5.24236         5.66943
     2017.69746         0.17290         5.77232
     2017.70020         4.58144         5.89600
     2017.70294         9.41998         5.97291
     2017.70568         6.03452         5.77648
     2017.70841         6.49706         5.59668
     2017.71115         3.29160         5.67463
     2017.71389         8.67815         5.72036
     2017.71663         8.71969         5.62786
     2017.71937        12.98623         5.69645
     2017.72210         2.63577         5.70789
     2017.72484         1.24831         5.62162
     2017.72758         1.77085         5.62890
     2017.73032         3.51239         5.66839
     2017.73305         3.53493         5.51873
     2017.73579         3.24147         5.66112
     2017.73853        -0.89799         5.65280
     2017.74127        -3.25945         5.66320
     2017.74401         4.22509         5.64241
     2017.74674        -0.53837         5.64553
     2017.74948         2.50817         5.57381
     2017.75222         2.39572         5.66008
     2017.75496        -0.83874         5.68086
     2017.75770        -2.39020         5.72451
     2017.76043         0.82234         5.64033
     2017.76317         8.91188         5.55822
     2017.76591        10.13842         5.77336
     2017.76865         3.91096         5.72244
     2017.77138         2.41250         5.60292
     2017.77412         4.90104         5.54887
     2017.77635         1.35129         7.07042
     2017.79329         5.02283         5.54056
     2017.79603        10.21137         5.70996
     2017.79876        20.08291         5.72659
     2017.80150         8.56945         5.76401
     2017.80424         9.61699         5.48132
     2017.80698         9.78853         5.62474
     2017.80971        -1.47993         5.66423
     2017.81245        -0.54139         5.54160
     2017.81519         5.50615         5.57174
     2017.81793         1.42269         5.52393
     2017.82067        -4.40977         5.57381
     2017.82340         1.98677         5.49794
     2017.82614         0.96331         5.56550
     2017.82888         2.70085         5.61019
     2017.83162         5.27340         5.59460
     2017.83436         8.03794         5.63098
     2017.83709         6.66148         5.66008
     2017.83983        -6.47398         5.62266
     2017.84257         2.03556         5.60603
     2017.84531         4.11210         5.59044
     2017.84804        -1.59636         5.57797
     2017.85078         1.50718         5.51977
     2017.85352         4.68172         5.57070
     2017.85626         4.07126         5.79623
     2017.85900         3.91780         5.70581
     2017.86173         4.86134         5.72659
     2017.86447         3.43388         5.59876
     2017.86721        -2.31658         5.79831
     2017.86995         4.86897         5.54575
     2017.87269        11.14051         5.58421
     2017.87542         8.72505         5.62994
     2017.87816        12.27459         5.51873
     2017.88090         4.70513         5.51146
     2017.88364         5.04067         5.49898
     2017.88637         7.66321         5.62162
     2017.88911        10.10875         5.55407
     2017.89185        10.85029         5.61331
     2017.89459         8.73283         5.80246
     2017.89733         6.18337         5.55615
     2017.90006         1.64591         5.53744
     2017.90280        -4.90855         5.85443
     2017.90554         8.64299         5.52393
     2017.90828         6.81353         5.53744
     2017.91102         5.34508         5.58005
     2017.91375         1.53662         5.61954
     2017.91649         7.88116         5.52808
     2017.91923        10.25970         5.49691
     2017.92197         4.98224         5.53848
     2017.92470         2.01478         5.49379
     2017.92744        -2.75068         5.48443
     2017.93018        -5.28614         5.49379
     2017.93280        -3.94666         5.83780
     2017.93839        -2.04152         5.46053
     2017.94113        -3.08598         5.46573
     2017.94387         0.15856         5.49483
     2017.94609        -5.74718         7.23983
     2017.94935        -3.91235         5.54367
     2017.95208        -7.34881         5.60707
     2017.95482        -6.02027         5.50106
     2017.95756       -11.72073         5.52912
     2017.96030        -7.32019         5.50522
     2017.96303        -3.74865         5.53952
     2017.96577        15.66389         5.72036
     2017.96851         8.24943         5.51042
     2017.97125         5.51097         5.47612
     2017.97399         5.27251         5.52081
     2017.97672         0.24705         5.53432
     2017.97946         0.44459         5.51977
     2017.98220         1.02313         5.53952
     2017.98494        -7.33733         5.50626
     2017.98767        -1.46079         5.57485
     2017.99041        -1.33224         5.53952
     2017.99315         9.23630         5.48651
     2017.99589         6.92184         5.70581
     2017.99863         0.71738         5.49898
     2018.00136        -4.33408         5.53120
     2018.00410        -7.97954         5.52081
     2018.00684        -2.97100         5.51250
     2018.00958        -3.85546         5.49794
     2018.01232         0.40108         5.60707
     2018.01505         0.58062         5.57174
     2018.01779         2.45016         5.50834
     2018.02053         5.84170         5.54783
     2018.02327        11.87024         5.48859
     2018.02600         4.52278         5.51561
     2018.02874         3.94333         5.50626
     2018.03148        -1.28813         5.50210
     2018.03422        -5.73959         5.50210
     2018.03696        -9.00105         5.51042
     2018.03969        -9.24451         5.51042
     2018.04243        -2.25997         5.55511
     2018.04517        -5.58143         5.55615
     2018.04791       -10.78689         5.58109
     2018.05065        -4.79135         5.61643
     2018.05338        -5.09181         5.58629
     2018.05612         0.29273         5.54991
     2018.05886         1.08527         5.52081
     2018.06160        -1.95819         5.53328
     2018.06433         8.31835         5.65280
     2018.06707         7.54190         5.70165
     2018.06981        -7.64756         5.63409
     2018.07255        -2.66302         5.64449
     2018.07529       -11.98648         5.63409
     2018.07802        -6.18494         5.65696
     2018.08076       -11.19940         5.73803
     2018.08350        -4.74886         5.62994
     2018.08624        -6.73732         5.60603
     2018.08898        -4.83978         5.67359
     2018.09171        -4.85224         5.72140
     2018.09445        -5.23070         5.74842
     2018.09719         2.26984         5.82221
     2018.09993        -4.54562         5.61019
     2018.10266        -4.74308         5.62786
     2018.10540        -1.60754         5.83468
     2018.10814         3.21201         5.64864
     2018.11088        -4.43545         5.63202
     2018.11362         0.16809         5.63513
     2018.11635        -0.79237         5.58317
     2018.11909        -2.62183         5.72451
     2018.12183        -0.14929         5.71516
     2018.12457         0.03525         5.60395
     2018.12731        -4.40721         5.62578
     2018.13004         3.79033         5.59876
     2018.13278         4.71287         5.69126
     2018.13552         3.98841         5.61331
     2018.13826         1.08595         5.58836
     2018.14099        -2.85851         5.61954
     2018.14373        -7.30997         5.63098
     2018.14647        -1.73642         5.87521
     2018.14921         0.56512         5.75050
     2018.15195         6.24866         5.61227
     2018.15468         3.31720         5.59252
     2018.15742        -1.29226         5.58940
     2018.16016        -4.18472         5.63929
     2018.16290         1.75982         5.78895
     2018.16564        -7.25164         5.82533
     2018.16837        -4.91710         5.64137
     2018.17111        -3.80756         5.59044
     2018.17385        -4.32902         5.61643
     2018.17659        -2.17648         5.65696
     2018.17932        -3.33094         5.61123
     2018.18206         4.37060         5.77128
     2018.18480         6.48814         5.79207
     2018.18754        -1.21831         5.63098
     2018.19028        -3.73077         5.61123
     2018.19301        -2.56423         5.59356
     2018.19575         3.25931         5.56030
     2018.19849        -0.45115         5.56550
     2018.20123         0.48239         5.71308
     2018.20397         5.41493         5.57589
     2018.20670         2.15147         5.58940
     2018.20944         0.19901         5.57070
     2018.21218        -0.47045         5.54887
     2018.21492       -13.66191         5.56654
     2018.21765         1.13863         5.53432
     2018.22039         1.04217         5.62682
     2018.22313        -3.09129         5.56862
     2018.22587        -6.41574         5.50730
     2018.22861        -3.32820         5.47820
     2018.23134        -3.55666         5.48339
     2018.23408        -5.27112         5.47508
     2018.23682        -5.13958         5.51250
     2018.23944        -6.94311         5.78687
     2018.24230        -2.69550         5.50314
     2018.24503        -2.01096         5.52705
     2018.24777        -0.40342         5.50418
     2018.25051        -0.43288         5.51665
     2018.25325        -4.50334         5.46677
     2018.25598        -3.13580         5.56030
     2018.25872        -4.40826         5.59980
     2018.26146        -0.77472         5.60707
     2018.26420        -0.71018         5.61019
     2018.26694        -0.45763         5.43559
     2018.26967        -7.52609         5.45845
     2018.27241         0.67045         5.56966
     2018.27515         4.02799         5.48755
     2018.27789         6.68553         5.64761
     2018.28062        -2.36893         5.64553
     2018.28336        -4.81239         5.49794
     2018.28610        -7.50085         5.47508
     2018.28884        -0.09331         5.66839
     2018.29158         0.50223         5.61643
     2018.29431        -4.32023         5.54575
     2018.29705        -2.88869         5.42935
     2018.29979        -3.44915         5.40960
     2018.30253        -3.33961         5.46780
     2018.30527        -6.95406         5.46573
     2018.30800        -4.92752         5.43351
     2018.31017        -6.99230         7.16188
     2018.31438        -3.37893         9.44004
     2018.31622        -7.17690         5.43559
     2018.31895        -2.19636         5.71724
     2018.32169        -3.11782         5.51665
     2018.32443        -2.56628         5.45637
     2018.32717        -5.97974         5.47196
     2018.32991         0.47280         5.57174
     2018.33264        -3.43166         5.40960
     2018.33538        -7.35412         5.67151
     2018.33812        -1.84758         5.66320
     2018.34086        -3.95004         5.48443
     2018.34360        -6.47649         5.53328
     2018.34633        -6.37695         5.48443
     2018.34907        -7.35141         5.45637
     2018.35181        -1.98287         5.72140
     2018.35455        -6.96633         5.48651
     2018.35728         0.68221         5.40129
     2018.36002        -0.36825         5.39505
     2018.36276         0.89629         5.50314
     2018.36550        -2.65217         5.47716
     2018.36824        -5.98363         5.48755
     2018.37097        -2.71509         5.47924
     2018.37371        -4.55855         5.40441
     2018.37645        -7.13401         5.59772
     2018.37919        -2.70047         5.46469
     2018.38193        -7.92393         5.51561
     2018.38466        -1.35238         5.52912
     2018.38740        -1.67084         5.44702
     2018.39014         4.64970         5.48963
     2018.39288        -2.30176         5.55926
     2018.39561        -3.93522         5.53120
     2018.39835         7.35132         5.56550
     2018.40109        -2.21714         5.42000
     2018.40383        -1.87960         5.46261
     2018.40657        -0.86906         5.42208
     2018.40930         3.58748         5.52705
     2018.41204         2.00902         5.48132
     2018.41478         2.40556         5.39713
     2018.42299         0.72919         5.44702
     2018.42573         1.67873         5.39817
     2018.42847         0.15927         5.45533
     2018.43121         2.21181         5.52705
     2018.43394        -0.48965         5.51977
     2018.43668        -6.00611         5.51042
     2018.43942         2.58843         5.44494
     2018.44216         1.53997         5.47404
     2018.44490        -4.46349         5.38154
     2018.44763         0.10205         5.42415
     2018.45049         1.83166         5.66631
     2018.45311         0.65013         5.40441
     2018.45585         5.31067         5.43455
     2018.45859         3.01721         5.46988
     2018.46132        -6.28025         5.38258
     2018.46406        -3.55170         5.79831
     2018.46680        -3.07516         5.43247
     2018.46954         0.22438         5.51873
     2018.47227        -2.37308         5.68294
     2018.47501        -1.07854         5.49379
     2018.47775        -2.35500         5.40129
     2018.48049         0.80654         5.49483
     2018.48323        -3.84192         5.40960
     2018.48596        -7.33738         5.41792
     2018.48870        -1.09584         5.45845
     2018.49144        -2.40330         5.41584
     2018.49418        -2.12776         5.50834
     2018.49692         1.87078         5.57278
     2018.49965        -2.73468         5.44806
     2018.50239        -2.33213         5.45741
     2018.50513        -4.79359         5.40856
     2018.50787        -2.87005         5.41168
     2018.51060        -7.01951         5.50106
     2018.51334        -5.60897         5.86066
     2018.51608        -3.03843         5.41792
     2018.51882        -3.27089         5.44598
     2018.52156         6.63265         5.42519
     2018.52429        -0.66681         5.41480
     2018.52703        -1.16027         5.42208
     2018.52977        -1.92773         5.38778
     2018.53251        -2.86119         5.49483
     2018.53525         3.01235         5.55926
     2018.53798         2.18989         5.48443
     2018.54072         4.31444         5.44182
     2018.54346        -0.16502         5.41272
     2018.54620         8.28552         5.45637
     2018.54893        -1.41194         5.43039
     2018.55167         2.88360         5.37842
     2018.55441        -0.29986         5.43143
     2018.55715        -1.75932         5.42519
     2018.55989        -3.30678         5.54991
     2018.56262        -0.53624         5.45741
     2018.56536        -3.32270         5.44806
     2018.56810         1.36384         5.44078
     2018.57084        -1.07062         5.50522
     2018.57357        -0.74408         5.53224
     2018.57631        -0.89454         5.69230
     2018.57905         2.75500         5.70373
     2018.58179         5.60255         5.62474
     2018.58453         5.69309         5.60084
     2018.58726         1.47463         5.46573
     2018.59000         3.87717         5.41480
     2018.59274         1.82771         5.52497
     2018.59548         1.89725         5.44078
     2018.59822         4.77679         5.53120
     2018.60095         1.91933         5.39817
     2018.60369         5.25787         5.38986
     2018.60643         2.46041         5.40441
     2018.60917         6.63495         5.48963
     2018.61190         2.64949         5.42311
     2018.61464         4.54403         5.41376
     2018.61738         4.10457         5.42208
     2018.62012         8.32912         5.39817
     2018.62286        12.22666         5.51042
     2018.62559         3.92720         5.72555
     2018.62833         1.01174         5.47508
     2018.63107         3.08828         5.39297
     2018.63381         7.05082         5.61954
     2018.63655         1.61936         5.49587
     2018.63928         2.18990         5.66735
     2018.64202         4.80044         5.69230
     2018.64465        14.34192         5.75465
     2018.64750         2.70552         5.38778
     2018.65023        10.00106         5.58005
     2018.65297         8.13160         5.48443
     2018.65571         6.05914         5.40649
     2018.65845         2.44868         5.43974
     2018.66119         5.52623         5.43247
     2018.66392         6.70077         5.45014
     2018.66666         2.96231         5.44806
     2018.66940         7.72385         5.43559
     2018.67214         1.85739         5.38778
     2018.67488         5.38093         5.41792
     2018.67761         3.47747         5.37219
     2018.68035         2.92901         5.61643
     2018.68309        -0.45945         5.56966
     2018.68583         5.35009         5.49067
     2018.68856         4.57863         5.40441
     2018.69130         7.82217         5.39505
     2018.69404         6.17571         5.70165
     2018.69678         7.13925         5.48132
     2018.69952         9.66480         5.50210
     2018.70225         0.65034         5.64968
     2018.70499         0.78788         5.49483
     2018.70773         2.56242         5.51561
     2018.71047         1.41396         5.57693
     2018.71321         4.23850         5.57589
     2018.71594         4.13204         5.52289
     2018.71868        -2.80142         5.54056
     2018.72142         0.08012         5.45222
     2018.72416         4.46866         5.53640
     2018.72689         1.17520         5.62162
     2018.72963         3.50774         5.56758
     2018.73237        -0.76772         5.49483
     2018.73511         0.80082         5.44494
     2018.73785         0.85436         5.45741
     2018.74058        -2.49509         5.48547
     2018.74332         4.70445         5.55303
     2018.74606         2.61799         5.49898
     2018.74880         6.40453         5.45429
     2018.75154         9.25607         5.45222
     2018.75427         2.44161         6.13712
     2018.75703         2.58416         5.72867
     2018.75975         2.97469         5.53952
     2018.76249         3.57423         5.45637
     2018.76522        -0.24023         5.54783
     2018.76796         1.37331         5.45014
     2018.77070         5.76185         5.54783
     2018.77344         6.33939         5.53120
     2018.77618         7.69893         5.46884
     2018.77891         3.75548         5.52705
     2018.78165        -2.71298         5.58836
     2018.78439         2.25256         5.52497
     2018.78713         1.17610         5.59876
     2018.78987        -5.85936         5.61435
     2018.79260        -2.23082         5.46365
     2018.79534         7.29072         5.44286
     2018.79808         1.88726         5.49794
     2018.80082         3.63280         5.48755
     2018.80355         5.70434         5.50834
     2018.80629         2.71288         5.58733
     2018.80903         2.58242         5.48132
     2018.81177         5.90796         5.87002
     2018.81451         2.49250         5.56654
     2018.81724         9.99905         5.62786
     2018.81998         4.46359         5.55719
     2018.82272         3.76313         5.61435
     2018.82546         3.97967         5.48651
     2018.82820         1.05121         5.51457
     2018.83093         2.39675         5.54887
     2018.83367         2.60729         5.61850
     2018.83641         5.05983         5.64033
     2018.83915         4.76637         5.45533
     2018.84188         3.65391         5.60811
     2018.84462         1.86545         5.52912
     2018.84736        -2.82001         5.51353
     2018.85010         2.40253         5.50626
     2018.85284        -1.70193         5.43559
     2018.85557        -3.51939         5.50314
     2018.85831         0.05016         5.53016
     2018.86105        -0.81530         5.50418
     2018.86379        -0.94376         5.66423
     2018.86653         2.34778         5.52808
     2018.86926        -7.27668         5.57589
     2018.87200        -1.12614         5.54991
     2018.87474         1.65240         5.48963
     2018.87748         0.21494         5.61850
     2018.88022         2.44548         5.65488
     2018.88295         2.00102         5.64968
     2018.88569         2.75756         5.62474
     2018.88843         7.14310         5.63098
     2018.89117         4.25464         5.71828
     2018.89390        13.31818         5.75361
     2018.89664         2.71973         5.79311
     2018.89938        -0.46373         5.61954
     2018.90212         2.45581         5.61850
     2018.90485        11.18335         5.63409
     2018.90759         2.79189         5.67151
     2018.91033         9.14443         5.62474
     2018.91307         7.24397         5.71204
     2018.91581         6.14651         5.68710
     2018.91855         5.22605         5.63721
     2018.92128        -4.86641         5.61123
     2018.92402        -0.25987         5.67982
     2018.92676         1.61567         5.68502
     2018.92950         2.67821         5.61435
     2018.93223        -0.94425         5.85131
     2018.93497         0.03729         5.70789
     2018.93771        -2.09316         5.67463
     2018.94045        -2.63462         5.70165
     2018.94318         3.32192         5.51665
     2018.94592         5.58746         5.63098
     2018.94866         2.17300         5.50626
     2018.95140         7.01454         5.70996
     2018.95414         7.12408         5.61747
     2018.95687         1.55062         5.62474
     2018.95961        10.13916         5.60084
     2018.96235         9.44770         5.64864
     2018.96509         6.88324         5.62474
     2018.96783         3.97178         5.67671
     2018.97056         9.37432         5.64241
     2018.97330         0.85786         5.55926
     2018.97604         1.23541         5.61747
     2018.97878         1.14995         5.57693
     2018.98151        -4.23551         5.56238
     2018.98425         1.03703         5.71308
     2018.98699        -8.17443         5.70165
     2018.98973        -9.53589         5.65800
     2018.99247        -5.60035         5.68086
     2018.99520         2.34919         5.69333
     2018.99794        -9.62927         5.71100
     2019.00068        -5.81773         5.69126
     2019.00342        -6.86119         5.68814
     2019.00616        -2.29265         5.64761
     2019.00889         5.18389         5.61331
     2019.01163         1.32243         5.61123
     2019.01437         6.34797         5.72451
     2019.01711        13.48452         5.67982
     2019.01984        -2.31194         5.60499
     2019.02258        -7.34140         5.75361
     2019.02532         1.13814         5.72347
     2019.02806        -3.97132         5.58421
     2019.03080        -3.11278         5.59460
     2019.03353        -7.03624         5.57174
     2019.03627       -11.74870         5.52808
     2019.03901        -3.58016         5.53952
     2019.04175        -0.65762         5.54783
     2019.04449         7.61392         5.59772
     2019.04722        -3.67254         5.62786
     2019.04996       -11.40700         5.67567
     2019.05270       -16.80846         5.76193
     2019.05544        -0.79191         5.60915
     2019.05817        -3.60037         5.75258
     2019.06091        -0.48283         5.71412
     2019.06365        -3.03529         5.65072
     2019.06639        -0.08975         5.65176
     2019.06913        -1.00121         5.68814
     2019.07186         1.26133         5.69022
     2019.07460        -1.40913         5.52081
     2019.07734         1.09041         5.50522
     2019.08008         3.37395         5.53328
     2019.08282         0.57849         5.70685
     2019.08555         0.79403         5.60292
     2019.08829         3.13657         5.51561
     2019.09103         2.37511         5.51769
     2019.09377         0.57766         5.49691
     2019.09650         7.62020         5.57589
     2019.09924        -2.15826         5.57693
     2019.10198        -3.67172         5.54056
     2019.10472         2.19782         5.54471
     2019.10746         1.02536         5.53432
     2019.11019         3.49990         5.53640
     2019.11293         7.33944         5.66839
     2019.11567        12.40498         5.99370
     2019.11841        17.56652         5.57589
     2019.12115        19.14206         5.76089
     2019.12388        13.00460         5.71100
     2019.12662         5.21814         5.57797
     2019.12936        -9.91732         5.59668
     2019.13210         0.56322         5.55407
     2019.13483         0.33077         5.58109
     2019.13757         1.73131         5.60499
     2019.14031         0.52385         5.59356
     2019.14305         2.57939         5.51665
     2019.14579         0.69993         5.52497
     2019.14852        -3.03653         5.54887
     2019.15126        -9.78399         5.62890
     2019.15400       -24.32545         5.51769
     2019.15674        -4.46191         5.52081
     2019.15948        -5.80237         5.57381
     2019.16221        -8.01183         5.60292
     2019.16495        -3.14129         5.54264
     2019.16769        -9.63875         5.48132
     2019.17043        -4.76921         5.48547
     2019.17316        -2.64466         5.49898
     2019.17590        -2.40912         5.54264
     2019.17864        -3.02458         5.56758
     2019.18138        -0.40504         5.53328
     2019.18412        -7.17850         5.49691
     2019.18685        -4.24396         5.51561
     2019.18959        -2.03742         5.51042
     2019.19233         4.23512         5.61331
     2019.19507        -5.22734         5.52289
     2019.19780        -6.83380         5.51977
     2019.20054        -7.80326         5.62266
     2019.20328       -11.06972         5.50626
     2019.20602        -8.78418         5.55719
     2019.20876       -11.33364         5.55511
     2019.21149        -9.87410         5.51042
     2019.21423        -7.53255         5.49587
     2019.21697        -2.94101         5.46988
     2019.21971        -5.09247         5.66216
     2019.22245        -5.64993         5.54367
     2019.22518        -5.46839         5.49275
     2019.22792        -6.08885         5.52081
     2019.23066        -8.58031         5.48547
     2019.23340        -5.91477         5.50002
     2019.23613        -7.95023         5.57070
     2019.23887        -7.83269         5.55095
     2019.24161        -8.44515         5.68502
     2019.24435        -9.42661         5.66320
     2019.24709        -7.94707         5.60915
     2019.24982        -3.08353         5.51250
     2019.25256        -1.14898         5.67359
     2019.25530        -3.70644         5.60395
     2019.25804         0.14610         5.52808
     2019.26078        -0.90336         5.62786
     2019.26351         0.59518         5.65280
     2019.26625        -3.29728         5.50002
     2019.26899        -7.52574         5.58836
     2019.27173        -6.52320         5.74946
     2019.27446        -8.50466         5.46365
     2019.27720        -6.27912         5.59564
     2019.27994        -0.73958         5.55822
     2019.28268        -3.26104         5.52081
     2019.28542         1.28650         5.47404
     2019.28815        -2.51596         5.41376
     2019.29089        -4.91542         5.54991
     2019.29363        -7.39887         5.52497
     2019.29637        -6.83133         5.69541
     2019.29911        -2.79279         5.58836
     2019.30184        -3.24425         5.47612
     2019.30458       -14.53071         5.45637
     2019.30732       -13.18217         5.60499
     2019.31006        -9.05563         5.69853
     2019.31279       -12.24109         5.67359
     2019.31553        -1.62955         5.46261
     2019.31827         0.39299         5.43143
     2019.32101        -8.07447         5.43870
     2019.32375       -15.44293         5.56966
     2019.32648        -9.45139         5.52497
     2019.32922        -8.03385         5.48339
     2019.33196        -3.69630         5.57693
     2019.33470        -4.12276         5.59772
     2019.33744        -4.54322         5.54575
     2019.34017       -10.58468         5.55822
     2019.34291        -4.38414         5.51457
     2019.34565        -3.90660         5.57278
     2019.34839        -8.79506         5.59356
     2019.35112       -10.45852         5.46261
     2019.35386        -9.84398         5.54264
     2019.35660        -4.93044         5.45949
     2019.35934        -1.35790         5.45118
     2019.36208        -5.44736         5.48651
     2019.36481        -0.71782         5.50210
     2019.36755        -4.53928         5.56758
     2019.37029         2.86927         5.53640
     2019.37303        -1.95719         5.44806
     2019.37577         2.87435         5.55511
     2019.37850        -3.46111         5.48547
     2019.38124         1.55743         5.51457
     2019.38398         0.33697         5.44806
     2019.38672        -2.30349         5.43039
     2019.38945        -8.45895         5.45014
     2019.39219        -2.12341         5.42727
     2019.39493        -6.52487         5.49483
     2019.39767        -3.78233         5.54160
     2019.40041        -4.45079         5.59772
     2019.40314        -2.31025         5.47404
     2019.40588         1.24529         5.51250
     2019.40862        -5.52817         5.51042
     2019.41136        -0.90462         5.54783
     2019.41410        -3.86608         5.57589
     2019.41683        -7.35954         5.52393
     2019.41957        -2.15800         5.45533
     2019.42231        -1.91546         5.46884
     2019.42505        -3.45392         5.48651
     2019.42778         2.00062         5.68502
     2019.43052        -1.95384         5.52185
     2019.43326        -4.63330         5.46157
     2019.43600        -8.95776         5.46677
     2019.43874        -6.98422         5.61747
     2019.44147        -9.28468         5.60395
     2019.44421        -3.92514         5.62162
     2019.44695        -0.48360         5.75154
     2019.44969        -3.30005         5.61954
     2019.45243        -3.63551         5.56030
     2019.45516        -2.95097         5.57174
     2019.45790        -4.89643         5.65280
     2019.46064        -1.77089         5.64761
     2019.46338        -3.13335         5.89808
     2019.46611         2.47319         5.89184
     2019.46885        -0.70127         5.82221
     2019.47159        -1.82473         5.56550
     2019.47433         1.11481         5.66839
     2019.47707        -0.34065         5.57901
     2019.47980         1.16889         5.62786
     2019.48254        -1.01857         5.73283
     2019.48528        -2.12803         5.61123
     2019.48802        -6.38449         5.59044
     2019.49076       -11.33594         5.58213
     2019.49349        -2.59140         5.45325
     2019.49623         0.19414         5.51665
     2019.49897        -4.00132         5.52081
     2019.50171        -0.87978         5.44598
     2019.50444        -4.56924         5.42727
     2019.50718        -4.77870         5.46261
     2019.50992        -9.79716         5.56030
     2019.51266        -5.23862         5.50002
     2019.51495        -1.77433         6.38032
     2019.51835        -7.41441         5.93445
     2019.52087         1.30000         5.52497
     2019.52361        -6.33146         5.45845
     2019.52635        -8.16292         5.44390
     2019.52908        -8.40437         5.88665
     2019.53182        -4.85983         5.75361
     2019.53456        -7.04729         5.59044
     2019.53730        -3.35375         5.65800
     2019.54004        -3.74021         5.72347
     2019.54277        -0.97867         5.72867
     2019.54551        -3.86013         5.97395
     2019.54825        -2.07959         5.45014
     2019.55099        -3.10405         5.48547
     2019.55373         4.19049         5.62058
     2019.55646         2.85903         5.70685
     2019.55920       -10.48043         5.88457
     2019.56091         1.49554        10.33801
     2019.64955        -0.12258         5.44390
     2019.65223         5.31192         5.75985
     2019.65497        -2.35953         6.40838
     2019.65776         3.81304         5.89912
     2019.66050         4.77158         6.19324
     2019.66193       -25.37862        74.20147
     2019.67140        -1.41129         5.84507
     2019.67419        -1.40972         5.65800
     2019.67676         4.95073         6.18493
     2019.67915         5.10307         6.85736
     2019.69142         2.89098         9.06797
     2019.69336         4.43607         6.12257
     2019.69609         7.70761         6.25352
     2020.89253         5.09489         7.13797
     2020.89527         6.41243         6.87399
     2020.89801         7.99097         7.08913
     2020.90075         8.16551         6.34706
     2020.90349         7.10705         6.83242
     2020.90622         7.53259         8.25004
     2020.90896         6.20913        12.46132
     2020.91170         6.41068         8.06608
     2020.91444        18.33222         7.54123
     2020.91718        -2.44024         8.13571
     2020.91991         2.93230         7.32713
     2020.92265         0.40084         6.62663
     2020.92539        -0.70962         6.77526
     2020.92813        -1.55408         6.78565
     2020.93086         2.77246         7.35623
     2020.93360         3.22200         7.00806
     2020.93634         5.86154         7.49654
     2020.93908         3.98608         6.53310
     2020.94182         4.21462         7.39572
     2020.94455        -0.84284         7.18474
     2020.94729        -6.76830         6.82930
     2020.95003        -5.44675         6.65054
     2020.95277       -13.53921         6.88958
     2020.95551        -8.30767         7.18786
     2020.95824        -5.38313         6.67132
     2020.96098         3.67841         6.82099
     2020.96372         1.21095         7.34999
     2020.96646         1.06749         6.96025
     2020.96919         9.64703         6.60377
     2020.97193         4.48757         6.65470
     2020.97467        -6.51489         7.32505
     2020.97741        -9.80535         7.29283
     2020.98015        -4.90981         8.38618
     2020.98288        -4.47027         7.31881
     2020.98562        -2.67073         6.93843
     2020.98836         0.77881         7.17539
     2020.99110         0.75836         6.86671
     2020.99384        -0.02510         6.52894
     2020.99657         2.12344         6.88958
     2020.99931        -2.25202         6.26495
     2021.00154        -2.75677         8.04945
     2021.01009         9.99704         7.89147
     2021.01574         7.81522         6.55388
     2021.01773         6.05335        10.54171
     2021.02943         1.41393         7.24710
     2021.03216         7.19747         6.82618
     2021.03410        13.88656        35.16294
     2021.04032        -1.38494         6.48113
     2021.05133        -4.68075         6.70146
     2021.05407         0.76179         7.15252
     2021.05624        -0.42899         8.86323
     2021.05954        -2.64813         6.30653
     2021.06776         5.64449         7.26789
     2021.07049         2.56104         7.05171
     2021.07323         7.01758         6.46866
     2021.07597         3.89812         6.67756
     2021.08966       -13.56018         6.39071
     2021.09206        -3.54183         7.64931
     2021.09742        -2.89181         7.97981
     2021.10061        -0.92302         7.24398
     2021.10609        -3.04894         6.36057
     2021.10825        -5.05672         8.77489
     2021.12525       -16.27215         6.84073
     2021.12788        -6.80267         6.97688
     2021.13073        -7.37207         6.31276
     2021.13290        -9.92185        10.72047
     2021.13620        -4.45899         6.41565
     2021.13894        -8.20545         6.43748
     2021.14065        -0.60248        14.90681
     2021.14442        -3.27337         6.42501
     2021.14715         2.36317         7.33856
     2021.14989        -9.30728         7.37286
     2021.15263         0.36026         8.07543
     2021.15537        -8.32620         6.40422
     2021.15702        -6.84327        15.67902
     2021.16358        -8.85158         7.55993
     2021.16632         0.21596         7.00286
     2021.16906         4.37650         6.75031
     2021.17180        -6.45096         6.73888
     2021.17453        -4.32742         8.60236
     2021.17727        -5.02288         6.93531
     2021.18001        -8.27634         5.73491
     2021.18275        -7.38680         6.87191
     2021.18548       -11.65626         7.33440
     2021.18822        -3.39071         6.46450
     2021.19005         6.93731        17.50612
     2021.20739        -9.07293         5.95108
     2021.20961        -1.61768         7.30011
     2021.21292       -13.78382         5.83780
     2021.21560        -5.50731         5.77752
     2021.21834        -9.80477         5.75881
     2021.22108        -6.05123         5.56238
     2021.22381       -11.15169         5.78583
     2021.22655        -6.93714         5.59564
     2021.22929        -4.82260         5.60084
     2021.23203        -1.03906         5.56862
     2021.23477       -11.12252         5.51977
     2021.23750        -9.34998         5.61331
     2021.24024        -9.63844         5.63409
     2021.24298       -10.30690         5.55511
     2021.24572       -12.81236         5.55615
     2021.25119        -4.82528         5.56758
     2021.25393        -5.79974         5.75361
     2021.25667        -7.01920         5.55719
     2021.25941        -2.87166         5.72659
     2021.26214        -3.89212         5.55407
     2021.26488        -4.29258         5.52705
     2021.26762         0.34197         5.70269
     2021.27036        -4.27449         5.64137
     2021.27310        -0.35595         5.57797
     2021.27578        -7.62844         5.64968
     2021.27857        -7.66787         5.61227
     2021.28085        -5.80359         6.99247
     2021.28405        -6.18379         5.64553
     2021.28679        -4.08425         5.64033
     2021.28947        -1.31574         5.77544
     2021.29774        -5.32509         5.84611
     2021.30042        -1.91058         5.89600
     2021.30321         1.18899         5.58940
     2021.30538         3.17821         7.92785
     2021.31399         3.18906         5.84819
     2021.31690         1.95870         5.52912
     2021.31935        -3.93592         6.56116
     2021.32198        -2.93145         6.75031
     2021.32494       -12.38378         5.83572
     2021.32785        -4.15014         5.58421
     2021.33059        -2.70560         5.67982
     2021.33333        -3.51306         5.87833
     2021.33607        -7.98952         5.54264
     2021.33880        -6.14798         5.57174
     2021.34120        -7.11463         6.32523
     2021.34428        -5.38290         5.81909
     2021.34702        -8.57835         5.77752
     2021.34850        -6.59652        20.74565
     2021.35523        -7.39973         5.58836
     2021.35763       -10.14338         6.33875
     2021.36071       -13.41265         5.62162
     2021.36344       -10.15311         5.60707
     2021.36578       -13.72179         6.55700
     2021.37428        -8.92001         5.77752
     2021.37987        -5.63687         5.78895
     2021.38272        -6.50326         7.39676
     2021.38535        -6.05978         8.01307
     2021.38763        -7.89550         8.47245
     2021.39356        -6.04816         6.52062
     2021.39630        -9.36862         6.48009
     2021.39852        -5.78037         8.18456
     2021.40177        -0.64054         6.62456
     2021.40451        -7.24200         6.93843
     2021.40617        -1.80507        12.90718
     2021.41524        -8.00997         7.17019
     2021.41797       -15.37742         7.34480
     2021.42094         1.99324         6.35537
     2021.42362         0.53975         7.38637
     2021.43737        -9.61451         6.67340
     2021.44010        -9.06897         6.78981
     2021.44284       -15.58043         7.36766
     2021.44558        -7.63889         7.14213
     2021.44763       -22.29273        10.47000
     2021.45106         3.98319         8.48700
     2021.45379       -14.44727         8.38930
     2021.45619       -13.07392         8.08271
     2021.45927        -4.80819         6.91037
     2021.46195        -1.27168         8.58054
     2021.47022         1.22598         6.52998
     2021.47296        13.00452         7.77091
     2021.47570        -4.14094         6.99351
     2021.47843        -5.94240         7.60566
     2021.48117        -4.66486         6.73160
     2021.48391        -3.87232         7.03716
     2021.48665        -0.42278         6.43436
     2021.48939        -2.90224         7.01326
     2021.49212        -7.81170         6.18701
     2021.49486         2.69684         6.63079
     2021.49760         4.22338         6.69939
     2021.50034        -1.33508         6.94258
     2021.50308        -2.32553         6.72329
     2021.50581        -5.74499         6.63807
     2021.50855         1.87755         6.62767
     2021.51129         0.12709         6.66613
     2021.51403         0.56063         6.70666
     2021.51637         1.66294         7.97046
     2021.51950         5.55971         7.85406
     2021.52224       -10.71875         6.57155
     2021.52498         4.22079         6.86360
     2021.52772        -0.30767         6.41462
     2021.53045         2.28087         6.78253
     2021.53319        -4.32959         6.68588
     2021.53559         0.13576         7.83743
     2021.53867        14.35449         7.19825
     2021.54141         1.48203         7.38533
     2021.54414        -2.80942         7.19618
     2021.54688        -5.40088         7.07458
     2021.54962         3.20966         7.85302
     2021.55509        -0.72426         7.06834
     2021.55783        -5.11272         6.82826
     2021.56057        -2.70618         7.51317
     2021.56331         1.52836         6.48113
     2021.56605         1.45190         6.81267
     2021.56878        -3.14256         7.40612
     2021.57152        -2.88802         6.65885
     2021.57426         1.83152         6.52478
     2021.57700         1.00006         6.44995
     2021.57951        -0.57252         7.07873
     2021.58521       -13.48531         6.77422
     2021.58795       -16.37577         6.65574
     2021.59069        -3.73423         6.42605
     2021.59342         2.94831         6.73992
     2021.59616         2.07785         7.20033
     2021.59890        -6.19261         7.16811
     2021.60164         8.25493         6.27639
     2021.60438        -3.62253         6.94051
     2021.60711        -5.06399         7.79378
     2021.60985         0.19355         6.52062
     2021.61259         4.52709         5.84715
     2021.61533        -8.91637         6.83969
     2021.61681       -10.59453        29.66500
     2021.62354        -1.56174         5.79831
     2021.62599         4.61164         6.84385
     2021.62902         2.36434         6.44579
     2021.63124        -7.55641         7.30634
     2021.63495        -0.96632         8.05776
     2021.63723         4.07896         6.19116
     2021.63997        -2.95550         5.86794
     2021.64271         1.38104         5.83572
     2021.64544        -3.11042         5.70061
     2021.64818        -0.87288         5.72867
     2021.65092        -0.69134         5.79103
     2021.65366        -1.44780         5.85027
     2021.65537        10.10617        12.68373
     2021.66187         0.31283         5.73491
     2021.66461        -2.27063         5.75361
     2021.66735         2.77491         5.75361
     2021.67008        -1.14755         5.83052
     2021.67282         2.55299         5.95108
     2021.67556        -0.41247         5.98850
     2021.67721        -9.65254        12.64319
     2021.68377         4.85315         5.76297
     2021.68651        -1.10031         5.74426
     2021.68925        14.66123         5.98538
     2021.69199         4.96077         5.86066
     2021.69421         4.86802         7.75221
     2021.70020         0.27240         5.76713
     2021.70294         0.37694         5.72971
     2021.70568         0.45048         5.83988
     2021.70841         4.19502         5.69437
     2021.71115         6.00656         5.81597
     2021.71389        12.82110         5.95004
     2021.71663         1.43664         5.82741
     2021.71937         2.86018         6.39279
     2021.72210        -6.18528         5.65488
     2021.72484        -6.67374         5.75258
     2021.72707        -7.09049         7.24502
     2021.73032        -6.95066         7.93409
     2021.73305         0.97888         5.75361
     2021.73579         7.72842         5.70373
     2021.73853        11.58496         5.80246
     2021.74127         3.38251         5.78583
     2021.74401        -0.88195         5.74634
     2021.74674         3.63759         5.75154
     2021.74948        -0.63487         5.80246
     2021.75222         3.27367         5.78479
     2021.75496         3.66821         5.76713
     2021.75770         4.71175         6.41046
     2021.76043         5.15129         5.73595
     2021.76317         2.28083         5.81286
     2021.76591         0.37737         6.96337
     2021.76865         5.10591         6.88646
     2021.77138         6.81845         6.91244
     2021.77412         7.36999         7.01222
     2021.77686         5.10353         6.64534
     2021.77960         8.82908         7.50069
     2021.78234         6.82762         6.33251
     2021.78507        10.51316         6.36265
     2021.78781         7.19670         6.60585
     2021.79055         4.44424         6.47282
     2021.79329        12.80678         6.91868
     2021.79603         6.87132         6.46658
     2021.79876         4.05186         6.43540
     2021.80150        -0.82560         8.32487
     2021.80384         9.12172         8.34253
     2021.80698        -1.97152         6.95194
     2021.80971         4.79902         6.47593
     2021.81245        16.50256         6.81475
     2021.81519         6.23610         6.62975
     2021.81793        10.68364         6.50919
     2021.82340         9.15973         6.66717
     2021.82614        15.08927         6.72017
     2021.82888         5.59681         6.67340
     2021.83162         7.03635         6.51439
     2021.83436         4.99589         7.54850
     2021.83709         2.32443         6.35537
     2021.83983        -9.73903         6.73680
     2021.84257         7.35951         6.82930
     2021.84531         7.03405         6.18909
     2021.84702       -15.53699        29.06220
     2021.85352         6.12067         6.77630
     2021.85626         2.62421         7.63061
     2021.85900         9.12376         7.12135
     2021.86173        -1.12770         7.10991
     2021.86447        -2.93816         7.83639
     2021.86721         2.96838         7.08393
     2021.86995        19.02292         6.52374
     2021.87269         4.02746         6.31484
     2021.87502        -1.59223         7.64100
     2021.87816         0.20554         7.26581
     2021.88090         1.91608         6.52270
     2021.88364         2.83462         6.28470
     2021.88637        -1.48284         6.85009
     2021.88826        -8.07478        10.50222
     2021.89185        -3.47976         6.89582
     2021.89459         1.15378         6.58090
     2021.89733        -5.42868         6.66613
     2021.90006         0.99987         6.38551
     2021.90235         1.49515         8.62523
     2021.91102         3.54803         6.32523
     2021.91375        -1.25943         6.99663
     2021.91649        -1.91689         6.25144
     2021.91923         2.23065         6.64118
     2021.92197        -5.74981         7.68777
     2021.92470        -1.88127         6.81995
     2021.92744         3.59927         8.59405
     2021.93018        -5.71919         7.43418
     2021.93292         5.71935         7.31985
     2021.93566         3.87189         7.19825
     2021.93839         5.94844         7.11927
     2021.94113         8.34998         7.22528
     2021.94387        12.67152         6.96441
     2021.94569         2.25754        11.96660
     2021.95208         7.41314         6.86879
     2021.95482         1.93368         7.77923
     2021.95756         7.95522         7.36870
     2021.96030        -3.44924         6.88958
     2021.96303         6.55130         6.70458
     2021.96577         2.54084         6.78253
     2021.96851        -3.95562         7.18059
     2021.97125        -8.16008         7.46224
     2021.97399        10.13146         6.75759
     2021.97644        -0.77416         7.43833
     2021.98767         7.44017         7.45496
     2021.99041         8.17071         6.98416
     2021.99315         1.61925         7.16396
     2021.99589         3.30379         6.56428
     2021.99863        -4.56067         6.67236
     2022.00136        -4.30813         7.35935
     2022.00410        -6.97959         7.86757
     2022.00684       -16.11705         7.37598
     2022.00958        -1.11751         6.41669
     2022.01197       -12.95416         8.43088
     2022.01505       -11.93143         7.82912
     2022.01756         8.75099         7.92057
     2022.02874        -4.30072         6.92388
     2022.03148        -6.12118         6.93843
     2022.03422        -9.39164         6.77214
     2022.03696       -10.02310         6.75031
     2022.03969       -13.59256         6.72433
     2022.04243        -6.71402         6.77422
     2022.04517        -5.34548         6.25248
     2022.04791        -6.05594         8.28018
     2022.05065        -7.72840         6.87087
     2022.05338        -4.22086         6.70043
     2022.05612       -10.46731         6.68691
     2022.05886       -17.36477         7.41131
     2022.06160       -16.72923         7.56721
     2022.06433        -6.89469         6.37824
     2022.06707       -13.79215         7.26477
     2022.06981        -5.87961         6.99455
     2022.07255       -12.45807         7.34584
     2022.07529        -8.59753         6.59961
     2022.07802        -8.91699         6.52998
     2022.08076        -2.96345         6.78045
     2022.08350        -1.85691         6.69107
     2022.08624        -2.21837         6.98312
     2022.08898        -4.79383         6.93323
     2022.09171       -10.42129         6.67340
     2022.09434        -8.97081         7.21177
     2022.10266       -11.43812         6.98831
     2022.10540        -2.70358         6.92076
     2022.10814        -0.55004         6.79812
     2022.11088        -5.47950         7.85614
     2022.11362        -4.13496         6.02903
     2022.11635        -4.97942         7.25853
     2022.11909        -3.18788         7.59007
     2022.12177         4.81563         6.97688
     2022.13164       -22.06282        20.77371
     2022.14373       -10.69601         6.41565
     2022.14647        -4.64047         7.16604
     2022.14921        -4.20993         7.80105
     2022.15183        -7.14145         7.71791
     2022.15468        -9.03485         7.36974
     2022.15742        -4.73831         6.78773
     2022.16016         0.12823         5.72659
     2022.16278        -6.39229         5.92614
     2022.16564        -5.42469         5.67567
     2022.16837        -2.87215         5.65072
     2022.17111        -2.71761         5.65280
     2022.17385        -2.34307         5.64864
     2022.17659        -8.23452         5.67047
     2022.17932        -7.80598         5.63098
     2022.18206        -5.55444         5.63825
     2022.18480       -14.41490         6.32835
     2022.18754        -2.27336         5.71620
     2022.19028        -7.19182         5.70477
     2022.19187         1.32008        15.68941
     2022.19849        -6.06120         5.64345
     2022.20123         2.84234         5.73075
     2022.20397        -0.75912         5.70581
     2022.20625        -3.59883         7.01222
     2022.20927         1.09787         6.12153
     2022.21765        -5.03341         5.67255
     2022.22039       -10.88687         5.69437
     2022.22313        -8.27433         5.67775
     2022.22587        -7.86279         5.76609
     2022.22861        -6.42425         5.78687
     2022.23682         1.29237         5.85859
     2022.23956        -3.15909         5.65072
     2022.24230        -4.70855         5.65800
     2022.24503         1.71499         5.65384
     2022.24749         4.48237         6.34394
     2022.25598         3.96616         5.64657
     2022.25872        -3.84330         5.69022
     2022.26146        -4.28376         5.61747
     2022.26420        -6.51922         5.69126
     2022.26694        -3.49068         5.76713
     2022.27515         4.29094         5.75465
     2022.27789         1.37048         5.66423
     2022.28062        -2.92598         6.73057
     2022.28336        -1.60144         5.62578
     2022.28604        -0.46493         5.78895
     2022.29431        -3.93227         5.67775
     2022.29705        -3.12873         5.73387
     2022.29979        -1.71919         5.63098
     2022.30253        -6.44665         5.76609
     2022.30527        -2.14911         5.77232
     2022.30800        -3.96257         5.64864
     2022.30989        -6.91051         9.28519
     2022.31348        -3.44449         6.79085
     2022.31622       -10.18995         5.69437
     2022.31895       -23.14841         5.84611
     2022.32169        -2.21087         5.83156
     2022.32426        -3.57642         6.71809
     2022.33264        -9.47770         5.86066
     2022.33538        -7.18116         6.91244
     2022.33789        -9.45875         6.35745
     2022.34086        -2.74508         5.81182
     2022.34342         0.46736         8.94325
     2022.35181         0.28408         6.49360
     2022.35455        -4.24538         6.52790
     2022.35728        -7.79784         9.84122
     2022.36002        -6.92830         6.65677
     2022.36276        -5.06076         6.50296
     2022.36550        -5.83422         6.49880
     2022.36824        -7.17868         6.81579
     2022.37097        -5.51014         6.50192
     2022.37371       -12.32259         7.29283
     2022.37645        -8.03805         6.84801
     2022.37919         1.85249         6.93947
     2022.38198       -10.69994         7.55682
     2022.38341        -0.11614        21.78288
     2022.39014       -15.44835         6.15375
     2022.39288        -5.33281         6.58298
     2022.39561       -10.42927         6.56324
     2022.39835        -9.09273         7.32609
     2022.40092        -5.51528         6.66613
     2022.40657        -0.78511         6.89374
     2022.40839       -24.14508        24.86339
     2022.41204        -8.53502         7.26581
     2022.41478        -8.38748         7.53291
     2022.41752        -5.45694         7.23255
     2022.42026        -2.17940         7.16292
     2022.42299        -2.31386         7.54331
     2022.42573         0.29068         7.14317
     2022.42847        -8.56578         6.96857
     2022.43052        -6.08063         9.92748
