# ================= DQRFIT RESULTS ================
# INPUT FILE: series/ESM1.rad
# OUTPUT: LDETRENDED
# FILTER FUNCTION: f(t)
# f(t)=+line(t)+annual(t)
# line(t)=+P 1+P 2*t
# annual(t)=+P 3*sin(2*pi*t+P 4)
# heav(t)=(t<0?0:1)
# TOTAL OBSERVATIONS MTOT= 1827
# INITIAL TIME INTERVAL= 2012.5556 - 2006.6010 =  5.9546
# TOTAL OBSERVATIONS AFTER PREFILTER M= 1825
# TIME-SPAN= 2012.5556 - 2006.6010 =  5.9546
# OBSERVATIONS: USED M=  1825 REJECTED MTOT-M=     2 %USED=   99.8905
# N=  4 PARAMETERS
# MAXSIG= 175.00000
# MAXRES=  29.45353
# SCALE FACTOR FOR LENGTHS: SCL=  10.00000
# SCALE FACTOR FOR SIGMAS: SCLSIG=   1.00000
# CHI^2=   1656.430 DOF=  1821 CHI^2/DOF=   0.90963
# RMS=      5.613 SDEV=      5.614 MEAN=    0.03100
#  P #       PARAMETER +-    SIGMA %error PARAMETER NAME
# P 1 =      3414.31112 +-  163.233   4.78 YZERO                              
# P 2 =        -1.69519 +-    0.081   4.79 SLOPE                              
# P 3 =         6.21033 +-    0.180   2.90 ANNUAL AMPLITUDE                   
# P 4 =        -3.05050 +-    0.041   1.34 ANNUAL PHASE                       
#       T            LDETRENDED       SIG_OBS
     2006.60095        -1.77618         5.50978
     2006.60369         6.43746         5.55269
     2006.60643        11.28810         5.50119
     2006.60917         7.85074         5.46876
     2006.61190         2.85238         5.48212
     2006.61464         9.17002         5.47258
     2006.61738         9.78367         5.47449
     2006.62012        10.09731         5.50691
     2006.62286         8.02495         5.41345
     2006.62559         8.76459         5.48212
     2006.75975        11.80801         5.53934
     2006.76249         8.93465         5.54411
     2006.76522         8.34829         5.61755
     2006.76796         5.45993         5.65856
     2006.77070         9.11257         5.54220
     2006.77344         0.25921         5.65761
     2006.77618         5.68085         5.51454
     2006.77891        11.96249         5.50501
     2006.78165        13.83214         5.41059
     2006.78439         9.43078         5.45923
     2006.78713        24.08542         5.74344
     2006.78987        27.47406         5.59561
     2006.79260         7.85870         5.49356
     2006.79534         4.71834         5.63185
     2006.79808        15.71698         5.68336
     2006.80082         6.82162         5.72055
     2006.80355         5.80127         5.49547
     2006.80629        11.49591         5.44969
     2006.80903         4.70755         5.50215
     2006.81177         8.97719         5.59275
     2006.81451         7.70583         5.65570
     2006.81724         6.45947         5.73772
     2006.81998         7.24511         5.45923
     2006.82272         3.97075         5.48116
     2006.82535        19.04222         5.72055
     2006.82836        12.68231         5.67000
     2006.83093         7.43768         5.46209
     2006.83367         8.30032         5.45541
     2006.83641         8.19996         5.57558
     2006.83915        21.17260         5.70815
     2006.84188         4.21524         5.75870
     2006.84462        17.20488         5.66810
     2006.84736        13.50852         5.66142
     2006.85010         7.48817         5.78064
     2006.85284        17.85581         5.76919
     2006.85557        23.40645         5.74630
     2006.85831        11.63909         5.58703
     2006.86006         1.03105        11.27992
     2006.88079        -6.35181         7.45350
     2006.88295         9.37686         5.59275
     2006.88569         8.85850         5.56891
     2006.88843         8.45314         5.50215
     2006.89117        15.25478         5.52885
     2006.89390         1.29942         5.70815
     2006.89664         4.12407         5.51931
     2006.89938        -4.15629         5.40868
     2006.90212        -0.00565         5.53076
     2006.90759         6.49363         5.49261
     2006.91033        -3.52873         5.43634
     2006.91295         0.95672         5.97711
     2006.91581        -1.51245         5.49547
     2006.91854        -5.78980         5.44301
     2006.92128        -8.39616         5.43538
     2006.92402        -5.27652         5.52885
     2006.92676        -4.56288         5.44587
     2006.92950        -6.88524         5.60515
     2006.93223        -0.58160         5.53934
     2006.93497         0.19004         5.81688
     2006.93771         3.50268         5.57463
     2006.94045         3.22132         5.56223
     2006.94318         9.25497         5.63758
     2006.94592        -2.26339         5.67573
     2006.94866         5.13025         5.67477
     2006.95140         5.13489         5.57654
     2006.95414         7.95453         6.06581
     2006.95687         3.30117         5.54792
     2006.95961         1.94881         5.52027
     2006.96235        -3.37855         5.49165
     2006.96509        -1.04590         5.61183
     2006.96783        -0.11926         5.77205
     2006.97056         0.48538         5.70052
     2006.97330         5.18702         5.58989
     2006.97604        -1.17934         5.71388
     2006.97878        -2.55870         5.63662
     2006.98151        -5.26206         5.60706
     2006.98425        -0.84942         5.58226
     2006.98699         0.86222         5.74344
     2006.98973        -7.53613         5.67954
     2006.99794        -8.83321         5.70148
     2007.00342         9.84907         5.95517
     2007.00616        10.58171         5.76252
     2007.00889        -0.46565         5.69862
     2007.01163         1.05300         5.67191
     2007.01437         5.67064         5.65188
     2007.01711        -4.48172         5.62136
     2007.01984        -9.89008         5.58226
     2007.02258        -8.84244         5.47449
     2007.02504        10.95672         6.30234
     2007.05544       -12.77675         5.28469
     2007.05817       -15.46610         5.49261
     2007.06091       -16.31346         5.30854
     2007.06365       -15.29682         5.30854
     2007.06639       -11.84918         5.48116
     2007.06913       -12.71454         5.27897
     2007.07186        -7.18390         5.25703
     2007.07460       -12.14626         5.27134
     2007.07734       -13.43762         5.33619
     2007.08008       -11.88797         5.34287
     2007.08282        -9.21233         5.32761
     2007.08555       -12.54969         5.44397
     2007.08829        -9.77505         5.30854
     2007.09114        -8.69622         5.63853
     2007.09377        -4.87777         5.34669
     2007.09650        -8.52313         5.41535
     2007.09924       -15.09449         5.44111
     2007.10198        -3.70485         5.30949
     2007.10472        -5.16920         5.51168
     2007.10746       -10.53756         5.44397
     2007.11019        -0.54092         5.36957
     2007.11293        -0.74328         5.41440
     2007.11567        -3.99064         5.33715
     2007.11841        -9.77300         5.17120
     2007.12115       -14.24536         5.31807
     2007.12388       -11.38372         5.43634
     2007.12662       -11.11707         5.28088
     2007.12936        -1.82643         5.50310
     2007.13210        -3.46379         5.31044
     2007.13466        -0.05944         5.67477
     2007.13757         6.69049         5.41345
     2007.14031        -6.05087         5.33524
     2007.14305        -2.19223         5.35813
     2007.14579        -7.15259         5.40582
     2007.14852        -7.06195         5.39056
     2007.15400        -0.09666         5.39056
     2007.15674         1.19798         5.34764
     2007.15948        -1.39938         5.29423
     2007.16221         1.95226         5.83023
     2007.16495        -3.82010         5.47639
     2007.16769        -0.65946         5.37148
     2007.17043        -7.91782         5.40772
     2007.17316        -2.21517         5.49738
     2007.17590        -6.63853         5.35431
     2007.17864        -2.01489         5.58321
     2007.18138        -0.82825         5.48021
     2007.18412        -3.99761         5.44397
     2007.18685        -4.16997         5.59084
     2007.18959         2.83467         5.56795
     2007.19233         1.89931         5.50691
     2007.19507        -8.05405         5.53553
     2007.19780       -13.85040         5.32761
     2007.20054       -17.19476         5.40105
     2007.20328       -17.80912         5.34764
     2007.20602        -5.44848         5.33810
     2007.20876        -1.32784         5.31998
     2007.21149       -15.21820         5.30281
     2007.21423        -2.30656         5.41440
     2007.21697        -4.07492         5.31235
     2007.21971        -7.56327         5.36004
     2007.22245        -8.93263         5.35908
     2007.22518        -0.81599         5.42394
     2007.22792         0.90165         5.26657
     2007.23066        -6.07471         5.28088
     2007.23340        -9.61007         5.33715
     2007.23613        -9.42143         5.40105
     2007.23887       -13.15479         5.35718
     2007.24161        -9.44015         5.38007
     2007.24435        -5.55450         5.37625
     2007.24709         0.36514         5.37148
     2007.24982        -1.92622         5.32380
     2007.25256       -11.41758         5.25226
     2007.25530        -8.63194         5.29041
     2007.25804       -10.11930         5.35145
     2007.26078        -6.50566         5.42108
     2007.26351        -5.96202         5.33143
     2007.26625        -0.13137         5.42871
     2007.26899         4.57827         5.44969
     2007.27173        -2.88409         5.36004
     2007.27446        -3.93545         5.28851
     2007.27720         0.70619         5.37720
     2007.27994        -6.09117         5.43348
     2007.28268        -0.87853         5.53553
     2007.28542        -1.46289         5.39819
     2007.31553        -4.43483         5.33619
     2007.31827       -10.13619         5.41631
     2007.32101       -12.10855         5.35431
     2007.32375         0.55109         5.37816
     2007.32648        -2.48427         5.30186
     2007.32922        -2.04563         5.42298
     2007.33196        -1.36899         5.46018
     2007.33470        -6.40234         5.46018
     2007.33744         0.13130         5.42012
     2007.34017       -10.75706         5.32475
     2007.34308       -12.87613         5.80639
     2007.34565       -14.82178         5.28660
     2007.34839        -8.53114         5.37720
     2007.35112        -2.99050         5.38388
     2007.35386        -7.70086         5.63853
     2007.35660       -12.72622         5.67191
     2007.35934        -2.57357         5.39246
     2007.36208        -5.06393         5.41917
     2007.36481       -10.24329         5.45255
     2007.36755        -6.32565         5.38102
     2007.37029       -10.44401         5.39628
     2007.37303        -3.89037         5.52217
     2007.37577        -9.36873         5.46304
     2007.37850        -8.31409         5.65379
     2007.38124       -10.31144         5.45255
     2007.38398         4.78120         5.54029
     2007.38672        -4.40716         5.34096
     2007.38945        -8.23752         5.34001
     2007.39219        -6.60288         5.55937
     2007.39493        -2.18624         5.47353
     2007.39767       -11.21160         5.52027
     2007.40041         1.45504         5.40009
     2007.40314         1.04868         5.38293
     2007.40588        -4.53567         5.35718
     2007.40856        -8.34413         5.58417
     2007.41136        -5.58239         5.48879
     2007.41410        -5.96475         5.52313
     2007.41683        -8.41111         5.41440
     2007.41957        -7.17647         5.61183
     2007.42231        -0.21483         5.51931
     2007.42505         3.21181         5.52599
     2007.42778         1.11846         5.50787
     2007.43052        -1.15390         5.40868
     2007.43326        -2.29526         5.39533
     2007.43600         1.41338         5.54602
     2007.43868         0.46392         5.59561
     2007.44147        -8.18734         5.46495
     2007.44381        -0.12137         6.88603
     2007.44695       -12.36906         5.56986
     2007.59869        -7.87683        13.99904
     2007.60027        10.28685         5.37148
     2007.60301         1.41749         5.37911
     2007.60574         4.74413         5.40963
     2007.60848        -1.30323         5.44015
     2007.61122         2.19341         5.39246
     2007.61396        -2.24094         5.37339
     2007.61670        -5.54430         5.74153
     2007.61943         0.52534         5.87983
     2007.62217         8.19398         5.68526
     2007.62491        -3.40238         5.66047
     2007.62765         1.45926         5.79208
     2007.63039        14.40990         5.75107
     2007.63312         7.26554         5.54697
     2007.63586        -3.50681         5.54983
     2007.63860        -2.88417         5.54506
     2007.64134         2.81647         5.40677
     2007.64407        12.18211         5.72532
     2007.64681         0.57675         5.63567
     2007.64955        10.97839         5.80639
     2007.65229        -1.30197         5.73104
     2007.65503        -1.67433         5.57940
     2007.65776         2.87031         5.58035
     2007.66050         2.58596         5.65474
     2007.66324         2.28860         5.62995
     2007.66598        11.71824         5.67191
     2007.66872         0.78188         5.75870
     2007.67145         2.67152         5.65093
     2007.67419        12.93016         5.92847
     2007.67693        10.24880         5.58989
     2007.67967         2.89444         5.70052
     2007.68240        10.32509         5.59943
     2007.68514         0.97573         5.68050
     2007.68788         3.54637         5.67954
     2007.69062         7.32901         5.57177
     2007.69336         5.54365         5.61087
     2007.69609         7.98729         5.60992
     2007.69883         2.30393         5.57081
     2007.70157         6.48657         5.55365
     2007.70431         1.29721         5.76729
     2007.70705        12.37986         5.84454
     2007.70978        18.32850         5.69385
     2007.71252         7.98514         5.56032
     2007.71526        15.07778         5.45732
     2007.71800         6.89242         5.46876
     2007.72073         5.15806         5.47067
     2007.72347        15.75670         5.49070
     2007.72621         5.81934         5.43729
     2007.72895         6.67899         5.45160
     2007.73169         3.19063         5.46400
     2007.73442         1.77927         5.60896
     2007.73716         4.03591         5.59084
     2007.73990        23.60155         5.53553
     2007.74264         4.36819         5.43252
     2007.74538        16.45283         5.59370
     2007.74811        10.64247         5.60610
     2007.75085         7.98911         5.98569
     2007.75359        17.93076         5.59084
     2007.75633         6.31240         5.44206
     2007.75906         6.81504         5.40200
     2007.76140         3.23500         6.42728
     2007.76454         3.15232         5.57558
     2007.76728        20.82596         5.97520
     2007.77002         7.09560         5.87124
     2007.77275         4.52024         5.62899
     2007.77549         2.24689         5.48212
     2007.77823         7.10553         5.49356
     2007.78097         6.84217         5.36099
     2007.78371         5.25681         5.39056
     2007.78644        16.29545         5.43729
     2007.78918         7.41909         5.62327
     2007.79192        12.26473         5.50501
     2007.79466         9.34937         5.67763
     2007.79739        15.00001         5.67573
     2007.80013        22.86466         5.50024
     2007.80264        -0.74609         5.74249
     2007.80561        12.00994         5.46686
     2007.80835         4.54258         5.50310
     2007.81108         1.17322         5.84740
     2007.81382        11.02086         5.55555
     2007.81656        -2.60250         5.58989
     2007.81930         1.47614         5.48975
     2007.82203         0.67279         5.44587
     2007.82477        -2.27257         5.54029
     2007.82751        -1.11493         5.48498
     2007.83025         2.57371         5.46400
     2007.83299         0.30335         5.42203
     2007.83572         0.76999         5.34669
     2007.83846         3.72963         5.43443
     2007.84120         4.53327         5.42394
     2007.84394        -2.42908         5.33238
     2007.84668        -0.74344         5.45160
     2007.84941         2.86120         5.48116
     2007.85215         9.74184         5.62327
     2007.85489         7.66748         5.85598
     2007.85763         9.86812         5.64044
     2007.86036         0.87076         5.48879
     2007.86310         4.98840         5.61087
     2007.86584        10.35904         5.47067
     2007.86835         4.63630         5.78731
     2007.87132        12.66333         5.45350
     2007.87405         5.96597         5.52217
     2007.87679         7.69261         5.42680
     2007.87953        -0.90175         5.45350
     2007.88227         3.02489         5.42298
     2007.88501         5.78553         5.38674
     2007.88774        -7.67083         5.40009
     2007.89048        -7.42118         5.34859
     2007.89305        -2.69583         7.81497
     2007.89596         5.02910         5.60324
     2007.90948         2.35301         5.90558
     2007.91238        -0.70106         5.41059
     2007.91512         1.94959         5.49452
     2007.91786        20.52523         6.67620
     2007.92060         2.45887         6.05436
     2007.92334       -10.33749         5.64998
     2007.92607         1.86815         5.47353
     2007.92881        -3.58521         5.46590
     2007.93155        -4.25857         5.47258
     2007.93429        -3.76693         5.44587
     2007.93697        -4.37438         5.61469
     2007.93976        -1.62264         5.45827
     2007.94136         4.93206        12.13734
     2007.95448       -12.84670        11.54316
     2007.95613        -2.41989         6.24130
     2007.95916         8.22523         6.28898
     2007.96167        11.32749         5.59084
     2007.96440        -0.67487         5.62899
     2007.96714         1.07877         6.74297
     2007.96988        -8.43759         5.52504
     2007.97262       -14.59495         5.67191
     2007.97535        -2.17531         5.60229
     2007.97809        -0.29567         5.58894
     2007.98083        -5.34303         5.55746
     2007.98357         6.49662         5.39342
     2007.98631         2.57726         5.76538
     2007.98904        -0.35510         5.70815
     2007.99178         2.19354         5.59847
     2007.99452         0.00718         5.63090
     2007.99726        -0.38518         5.41154
     2008.00000       -12.53354         5.49165
     2008.00273       -12.57190         5.55269
     2008.00547         0.12174         5.55746
     2008.00821        -2.58161         5.71960
     2008.01095         7.64503         5.31330
     2008.01368         4.38367         5.27706
     2008.01642         0.47831         5.40582
     2008.01916        -2.92905         5.59847
     2008.02190         2.97559         5.49452
     2008.02455         1.87808         6.19838
     2008.02823       -17.25468         8.63710
     2008.03011        -3.31248         5.51264
     2008.03285        -9.71284         5.32189
     2008.03559        -6.52520         5.51550
     2008.03833        -5.20856         5.43061
     2008.04095       -12.88511         5.71102
     2008.04380       -13.68928         5.58131
     2008.04654       -11.48064         5.40105
     2008.04928        -9.36100         5.49642
     2008.05201        -9.77536         5.43252
     2008.05475        -7.27171         5.39723
     2008.05749       -11.09407         5.31426
     2008.06023        -9.76143         5.34859
     2008.06297        -2.59179         5.30281
     2008.06570        -3.63615         5.41249
     2008.06844         0.21549         5.42012
     2008.07118         6.12813         5.39819
     2008.07392         2.09077         5.42680
     2008.07666         6.21142         5.60133
     2008.07939        -2.04394         5.58226
     2008.08213        -0.98130         5.40200
     2008.08487        -1.61966         5.36671
     2008.08761        -3.59902         5.32952
     2008.09034        -1.86038         5.29995
     2008.09308        -6.55774         5.53362
     2008.09582        -3.81810         5.66047
     2008.09856        -4.26745         5.63853
     2008.10130         2.77819         5.60515
     2008.10403        -2.33817         5.30281
     2008.10677        -3.46253         5.35527
     2008.10951         2.75011         5.42680
     2008.11225        -4.74525         5.34764
     2008.11498       -10.37761         5.57368
     2008.11772        -1.96497         5.46209
     2008.12046        -7.91633         5.31617
     2008.12320        -8.93968         5.50405
     2008.12594        -2.27604         5.33906
     2008.12867        -9.93340         5.36671
     2008.13141        -5.55676         5.29995
     2008.13415        -0.11712         5.32284
     2008.13689        -2.90348         5.33333
     2008.13963        -0.43584         5.34859
     2008.14236        -1.90120         5.51073
     2008.14510        -3.97455         5.33143
     2008.14784        -1.59491         5.41726
     2008.15058        -7.34327         5.30281
     2008.15331       -13.63763         5.30377
     2008.15605        -5.57499         5.28851
     2008.15873        -8.63945         5.40582
     2008.16350         2.38364         8.33667
     2008.16593        -1.26124        15.03386
     2008.19532        -4.31042         8.86504
     2008.19712        -1.12537         5.30091
     2008.19986        -0.55173         5.35241
     2008.20260        -4.75809         5.33333
     2008.20533        -2.84945         5.29614
     2008.20807        -6.37581         5.52122
     2008.21081        -4.55117         5.42012
     2008.21355        -7.40553         5.40868
     2008.21629        -2.95588         5.41345
     2008.21902        -2.56924         5.46876
     2008.22176       -10.43160         5.37911
     2008.22450        -4.36296         5.55842
     2008.22724        -9.13332         5.41631
     2008.22997        -8.18768         5.45541
     2008.23271        -5.63904         5.47163
     2008.23545        -2.52040         5.49070
     2008.23819         1.48225         5.38388
     2008.24093        -0.16611         5.27229
     2008.24366        -7.96947         5.35336
     2008.24640        -8.67483         5.32666
     2008.24914        -8.98619         5.29804
     2008.25188        -7.13355         5.38293
     2008.25462        -4.76091         5.24177
     2008.25735        -3.51327         5.30758
     2008.26009         1.38137         5.38674
     2008.26283        -0.45398         5.29900
     2008.26557        -2.00634         5.29041
     2008.26836        -0.38960         5.50119
     2008.27104        -3.44406         5.27229
     2008.27378        -6.39342         5.28946
     2008.27652       -10.06578         5.30091
     2008.27926        -8.71314         5.40009
     2008.28199        -5.11250         5.29041
     2008.28473         2.27115         5.45160
     2008.28747         5.31279         5.58607
     2008.29021        -1.92757         5.61183
     2008.29295         0.39707         5.28755
     2008.29568         0.92371         5.47067
     2008.29842         6.69635         5.68622
     2008.30116         1.28399         5.36481
     2008.30390        -5.06637         5.44301
     2008.30663        -0.65173         5.48879
     2008.30937        -1.10408         5.52408
     2008.31211        -8.15444         5.41440
     2008.31485        -7.99680         5.34955
     2008.31759        -9.63116         5.34096
     2008.32032        -9.30952         5.45350
     2008.32306         4.65212         5.70815
     2008.32580        -3.28224         5.65570
     2008.32854        -3.82160         5.35622
     2008.33128        -5.20095         5.67763
     2008.33401        -5.89131         5.35431
     2008.33675        -0.38667         5.41059
     2008.33949         2.37497         5.58989
     2008.34223        -1.21939         5.22842
     2008.34496        -5.37775         5.33810
     2008.34770        -0.39011         5.29137
     2008.35044       -11.00847         5.54220
     2008.35318        -3.98882         5.22365
     2008.35592        -2.55118         5.29232
     2008.35865        -3.72654         5.27515
     2008.36139        -2.09990         5.14831
     2008.36413        -1.25126         5.22365
     2008.36687        -8.73462         5.29995
     2008.36961       -13.03198         5.30949
     2008.37234       -12.57934         5.23414
     2008.37508        -7.21170         5.33715
     2008.37782        -7.36605         5.38293
     2008.38056        -1.00441         5.21030
     2008.38329        -1.38577         5.42775
     2008.38603        -2.99313         5.25608
     2008.38877         1.20051         5.38007
     2008.39151        -2.67785         5.30854
     2008.39425       -13.32021         5.24654
     2008.39698         1.45243         5.38579
     2008.39972         4.87308         5.31521
     2008.40246        -3.45228         5.27802
     2008.40520        -6.26464         5.29614
     2008.40794        -1.74800         5.27039
     2008.41067        -1.53836         5.30472
     2008.41341        -3.33972         5.36767
     2008.41615        -4.98408         5.43061
     2008.41889         1.53356         5.46113
     2008.42162         1.15420         5.48116
     2008.42436         3.86885         5.36385
     2008.42710        -0.88051         5.44397
     2008.42984        -2.52787         5.35527
     2008.43258        -2.79823         5.43729
     2008.43531        -5.63059         5.34955
     2008.43805        -4.43395         5.34955
     2008.44079        -5.86731         5.33810
     2008.44351        -9.80670         5.29614
     2008.45012       -17.96050        11.54220
     2008.45174        -6.53774         5.46495
     2008.45448        -6.57610         5.33333
     2008.45722        -8.69846         5.45923
     2008.46001        -3.50172         5.66333
     2008.46269        -7.65418         5.27706
     2008.46543        -0.47454         5.30758
     2008.46817        -7.08090         5.27229
     2008.47091        -9.93825         5.46304
     2008.47364        -8.64361         5.70911
     2008.47638        -1.66897         5.55842
     2008.47912        -5.52233         5.48021
     2008.48186        -2.08069         5.37625
     2008.48459        -4.77705         5.55746
     2008.48733        -3.23541         5.36576
     2008.49007        -8.90777         5.36767
     2008.49281        -4.45012         5.40677
     2008.49555        -2.21148         5.58131
     2008.49828        -3.45284         5.53457
     2008.50102        -0.64320         5.70911
     2008.50376         4.94244         5.66428
     2008.50650        -2.98592         5.49928
     2008.50924        -8.26928         6.06390
     2008.51197        -2.12364         5.42489
     2008.51471        -0.23600         5.37530
     2008.51745        -4.15535         5.50215
     2008.52019         1.64229         5.75489
     2008.52292         3.13593         5.59180
     2008.52566         2.19857         5.72914
     2008.52840         4.16821         5.38388
     2008.53108        -2.02924         5.58226
     2008.53388         1.05649         5.49070
     2008.53661        -3.42087         5.52027
     2008.53935         5.28678         5.45446
     2008.54209        -2.63458         5.42394
     2008.54483        -1.90094         5.50119
     2008.54757         1.45370         5.52408
     2008.55030         5.27034         5.38579
     2008.55304         0.85498         5.49165
     2008.55578         6.80162         5.38865
     2008.55852         2.88626         5.39056
     2008.56125        -0.93910         5.36862
     2008.56399        -1.56945         5.50691
     2008.56673        -3.06981         5.44111
     2008.56947         5.21283         5.37339
     2008.57221         6.84947         5.46304
     2008.57494         5.43011         5.61659
     2008.57768         5.63575         5.48402
     2008.58042         7.51739         5.43824
     2008.58316        15.66403         5.53934
     2008.58590         5.31068         5.40200
     2008.58863         4.10732         5.47830
     2008.59137         0.49296         5.31998
     2008.59411         2.80160         5.37720
     2008.59685         3.41424         5.57749
     2008.59958         5.32988         5.59561
     2008.60232         2.40352         5.63662
     2008.60506        14.59516         5.54888
     2008.60780         0.83981         5.52790
     2008.61054         2.75045         5.52313
     2008.61327         9.29909         5.57463
     2008.61601         7.31573         5.45827
     2008.61875         0.86537         5.38102
     2008.62149         4.11201         5.44015
     2008.62423         2.06765         5.43538
     2008.62696         4.29829         5.57272
     2008.62970        11.31093         5.66047
     2008.63244        11.38058         5.55174
     2008.63518         8.61922         5.78827
     2008.63791         4.81486         5.50119
     2008.64065         9.04850         5.52217
     2008.64339         8.36614         5.50882
     2008.64613         8.78878         5.72437
     2008.64887        13.40642         5.80353
     2008.65166        20.83516         5.54029
     2008.65434        10.93171         5.67287
     2008.65708        12.11135         5.61564
     2008.65982         8.03599         5.52408
     2008.66256        19.30563         5.76919
     2008.66529         2.52227         5.48116
     2008.66803         2.01691         5.50978
     2008.67077         0.18155         5.46113
     2008.67351         3.72019         5.42012
     2008.67624         3.03983         5.96185
     2008.67898         4.84548         5.51168
     2008.68172        -0.73388         5.57940
     2008.68446         5.19276         5.50215
     2008.68720         6.77540         5.44587
     2008.68993         7.92704         5.54602
     2008.69267         4.45068         5.46686
     2008.69541         7.25632         5.74440
     2008.69815        14.80796         5.58607
     2008.70089         9.02361         5.55269
     2008.70362         6.49325         5.42585
     2008.70636         4.38989         5.37911
     2008.70910         3.47253         5.49070
     2008.71184         3.25717         5.64521
     2008.71457         7.66081         5.39914
     2008.71731         1.38045         5.55460
     2008.72005         6.83609         5.62041
     2008.72279        17.05073         5.46590
     2008.72553        14.21138         5.64902
     2008.72826         3.78102         5.37911
     2008.73100         2.69066         5.52790
     2008.73374        14.00830         5.50310
     2008.73648         8.06594         5.33429
     2008.73921         6.87158         5.53648
     2008.74469         6.09886         5.40486
     2008.74743         6.93951         5.47067
     2008.75017         5.05515         5.52980
     2008.75290        11.75779         5.42108
     2008.75564        19.75643         5.51264
     2008.75838        13.28707         5.56032
     2008.76112         7.86871         5.45827
     2008.76386         5.69335         5.43348
     2008.76659        15.66899         5.61564
     2008.76933         4.99563         5.49928
     2008.77207         7.69628         5.36481
     2008.77481         7.64792         5.30186
     2008.77754         3.90356         5.31330
     2008.78028        -7.82080         5.58321
     2008.78302         2.87184         5.36862
     2008.78576        14.43748         5.34287
     2008.78850         3.77012         5.33810
     2008.79123        11.82976         5.56128
     2008.79397        -0.20159         5.44778
     2008.79671         0.66005         5.43729
     2008.79945         1.15469         5.47926
     2008.80219        14.48233         5.88269
     2008.80492        14.69597         5.35431
     2008.80766         7.87261         5.30758
     2008.81040        10.69025         5.45923
     2008.81314         7.72189         5.43443
     2008.81587         5.13553         5.27802
     2008.81861         0.16218         5.29041
     2008.82135        -0.60018         5.28088
     2008.82409         0.98446         5.30567
     2008.82683         1.18210         5.57177
     2008.82956         0.49974         5.34573
     2008.83230        -4.31562         5.39914
     2008.83504        19.87302         5.28374
     2008.83778        11.91066         5.54029
     2008.84052        11.62731         5.45541
     2008.84325        15.36495         5.38483
     2008.84599         9.10259         5.24845
     2008.84873         2.19523         5.45255
     2008.85147        10.07987         5.58607
     2008.85420         6.67851         5.58226
     2008.85694        12.94615         5.49452
     2008.85968        -1.76921         5.47544
     2008.86242         7.87444         5.48212
     2008.86516        20.80808         5.52122
     2008.86789        19.21072         5.52980
     2008.87063         0.91336         5.54888
     2008.87337        -8.31300         5.35145
     2008.87611        -4.38836         5.37339
     2008.87885         2.36228         5.39723
     2008.88158         4.33192         5.50501
     2008.88432        -0.85544         5.47163
     2008.88706        -3.26179         5.46495
     2008.88980        -5.05515         5.50119
     2008.89253         7.98149         5.43634
     2008.89527         4.35113         5.43348
     2008.89801         4.40477         5.44492
     2008.90075        -1.89659         5.40582
     2008.90349         1.56105         5.37625
     2008.90622        -8.28531         5.42489
     2008.90896         3.01134         5.39246
     2008.91170         1.46398         5.48593
     2008.91444         5.66562         5.44492
     2008.91718         6.67026         5.40677
     2008.91991         1.34190         5.50024
     2008.92265         0.67954         5.34382
     2008.92539         3.68418         5.45160
     2008.92813        -0.07818         5.41249
     2008.93086        -3.23754         5.70815
     2008.93360         4.16911         5.56509
     2008.93634         3.77475         5.47544
     2008.93908        -3.01761         5.62995
     2008.94182        -5.45497         5.59657
     2008.94455        -6.78333         5.43538
     2008.94729        -1.35769         5.48116
     2008.95003         7.40295         5.29518
     2008.95277         0.18959         5.33524
     2008.95551        -1.53276         5.36099
     2008.95824        -0.41112         5.26752
     2008.96098        -1.93448         5.38674
     2008.96372         6.41916         5.40105
     2008.96646        -2.83120         5.37816
     2008.96919        -7.13556         5.33143
     2008.97193         8.10108         5.54029
     2008.97467        29.87372        10.04387
     2008.97741        -1.00764         5.36767
     2008.98893        -4.72310         7.82833
     2008.99110         4.77557         5.59847
     2008.99384        -8.67079         5.43061
     2008.99657        -3.75415         5.27897
     2008.99931         4.03049         5.36576
     2009.00479        -2.00122         5.34669
     2009.00752        -3.24458         5.29041
     2009.01026        -5.65394         5.28565
     2009.01300         6.41570         5.84549
     2009.01545         4.15586         6.18026
     2009.02395       -11.01274         5.41154
     2009.02669       -11.35109         6.28326
     2009.02860        -8.72186        13.18169
     2009.03211       -16.09691         5.47353
     2009.03421       -14.75734         7.44111
     2009.03833       -12.10836         7.87506
     2009.04038        -9.26989         5.31712
     2009.04312       -17.66025         5.22747
     2009.04585       -13.87761         5.25131
     2009.04859       -13.92796         5.33810
     2009.05133       -10.88132         5.25703
     2009.05407       -14.84368         5.25989
     2009.05681       -14.35304         5.36957
     2009.05954        -5.78040         5.25036
     2009.06228       -14.06376         5.31426
     2009.06502       -12.80112         5.32475
     2009.06776        -9.88248         5.23891
     2009.07049        -9.81084         5.53076
     2009.07323        -5.28719         5.50882
     2009.07597        -4.37255         5.27039
     2009.07871       -14.39591         5.33524
     2009.08145        -6.03327         5.24368
     2009.08418        -2.84063         5.32380
     2009.08692        -8.29099         5.37053
     2009.08966        -7.65435         5.34669
     2009.09240       -12.50071         5.26276
     2009.09514        -6.62006         5.28183
     2009.09787        -1.37442         5.25513
     2009.10061         1.92222         5.30472
     2009.10335        -6.47714         5.31617
     2009.10609        -2.75050         5.27325
     2009.10882        10.29014         5.91321
     2009.11156         1.98278         5.62136
     2009.11430        -4.44958         5.52980
     2009.11704        -1.89593         5.40963
     2009.11978        -3.66329         5.25894
     2009.12251        -8.76865         5.27992
     2009.12525        -6.61601         5.22747
     2009.12799        -0.44337         5.34478
     2009.13073        -2.71973         5.30663
     2009.13347        -8.27009         5.27515
     2009.13620        -9.55445         5.29423
     2009.13894        -9.84081         5.28851
     2009.14168        -9.97316         5.28278
     2009.14442        -8.61152         5.42966
     2009.14715        -6.56088         5.38483
     2009.14989        -6.22824         5.48116
     2009.15263        -8.51660         5.29900
     2009.15537        -9.46196         5.51454
     2009.15811        -8.42932         5.38102
     2009.16084        -7.42968         5.31617
     2009.16358        -1.81703         5.39151
     2009.16632         1.61461         5.43157
     2009.16906        -9.43575         5.50596
     2009.17180        -9.61511         5.29900
     2009.17453       -10.52447         5.33238
     2009.17727        -1.70183         5.47735
     2009.18001        -6.69919         5.34001
     2009.18275        -3.04655         5.27992
     2009.18548        -8.40491         5.31617
     2009.18822       -14.03426         5.32189
     2009.19096       -12.11862         5.31044
     2009.19370        -7.93998         5.29423
     2009.19644        -5.92734         5.24750
     2009.19923        -1.52460         5.49642
     2009.20191        -0.69206         5.54125
     2009.20465        -6.99742         5.78350
     2009.20739        -6.29878         5.30663
     2009.21013       -10.36813         5.23224
     2009.21286        -5.21249         5.41822
     2009.21560        -1.54885         5.34955
     2009.21834       -12.06221         5.35622
     2009.22108        -4.53557         5.51550
     2009.22381        -4.02193         5.45255
     2009.22655        -7.94229         5.28851
     2009.22929        -1.37565         5.31998
     2009.23203        -6.73701         5.28755
     2009.23477        -8.44936         5.43824
     2009.23750         0.22928         5.56509
     2009.24024        -4.52908         5.44015
     2009.24298        -5.23244         5.28374
     2009.24572        -3.93280         5.45350
     2009.24846        -0.50216         5.54506
     2009.25119         1.67048         5.63281
     2009.25393         3.74512         5.71388
     2009.25667        -7.78923         5.30377
     2009.25941        -9.21359         5.59370
     2009.26214        -2.99595         5.57654
     2009.26494        -0.96221         5.53362
     2009.26762         2.70733         5.37434
     2009.27036         1.13297         5.40582
     2009.27310        -9.86339         5.35050
     2009.27583        -4.52775         5.37816
     2009.27857        -6.19611         5.43061
     2009.28131        -4.88746         5.53648
     2009.28405        -6.60482         5.39151
     2009.28679        -6.53918         5.35622
     2009.28952       -10.82254         5.45350
     2009.29226       -10.99590         5.48212
     2009.29500       -11.94626         5.38388
     2009.29774       -11.41362         5.37148
     2009.30047        -7.52598         5.40391
     2009.30321        -9.54533         5.35622
     2009.30595         1.18131         5.52217
     2009.30869        -0.77205         5.42298
     2009.31143        -4.35941         5.38674
     2009.31416        -8.51277         5.44778
     2009.31690       -13.00513         5.42966
     2009.31964        -9.36949         5.44969
     2009.32238        -9.23085         5.40963
     2009.32512        -7.52220         5.55842
     2009.32785        -8.40056         5.53362
     2009.33059        -9.78492         5.38007
     2009.33333        -3.82428         5.32666
     2009.33607        -2.10264         6.24702
     2009.33880        -0.83200         5.34764
     2009.34154        -6.74836         5.41059
     2009.34428        -7.27572         5.45350
     2009.34707        -5.27698         5.52790
     2009.34976       -10.49343         5.33333
     2009.35249       -14.78179         5.43824
     2009.35523        -6.20215         5.49452
     2009.35797       -14.37551         5.82737
     2009.36071        -6.07787         5.51264
     2009.36344       -11.69623         5.41917
     2009.36613        -5.67168         5.53553
     2009.46574        -8.51481        10.89079
     2009.46748        -0.03586         5.61755
     2009.47022        -8.32422         5.39437
     2009.47296        -3.37358         5.45446
     2009.47570        -8.61094         5.43061
     2009.47843        -2.58730         5.47544
     2009.48117        -4.46066         5.47544
     2009.48391        -4.09502         5.44015
     2009.48665       -11.50038         5.44301
     2009.48939         1.76927         5.46304
     2009.49212        -3.33309         5.52217
     2009.49486        -6.34345         5.50501
     2009.49760        -4.56181         5.44969
     2009.50034        -0.25617         5.36099
     2009.50308        -2.59653         5.44492
     2009.50581        -4.69589         5.47353
     2009.50855        -4.15325         5.72723
     2009.51123        -1.48070         6.00095
     2009.51403         2.76304         5.34764
     2009.51676         4.07068         5.40677
     2009.51950         1.25532         5.46876
     2009.52224        -4.28104         5.37148
     2009.52498        -2.33740         5.44969
     2009.52772         4.60524         5.67954
     2009.53045        -0.31212         5.77301
     2009.53319        -0.98748         5.34955
     2009.53599        -2.77974         5.63472
     2009.53867        -6.60719         5.51550
     2009.54141         0.24045         5.42489
     2009.54414        -1.66091         5.51741
     2009.54688        -1.77327         5.39342
     2009.54962        -0.45263         5.40009
     2009.55236        -2.03399         5.38007
     2009.55509         4.71665         5.47353
     2009.55783         4.17330         5.44492
     2009.56057        -4.81406         5.65951
     2009.56331         4.09058         5.69862
     2009.56605         2.17722         5.73104
     2009.56878        -3.39414         5.41535
     2009.57152         1.72450         5.44397
     2009.57426        -0.04486         5.46400
     2009.57700         5.18678         5.57081
     2009.57974         3.42942         5.42394
     2009.58247         4.44507         5.52313
     2009.58521        -3.23229         5.56891
     2009.58795        -5.07765         5.56986
     2009.59069         1.23899         5.49928
     2009.59342        -1.51237         5.59943
     2009.59616         1.33427         5.47067
     2009.59890         6.72991         5.44015
     2009.60164         4.26355         5.50215
     2009.60438         2.78620         5.44206
     2009.60711         0.61584         5.44301
     2009.60985        11.24548         5.52980
     2009.61259         1.44212         5.44874
     2009.61533         4.27576         5.68240
     2009.61807         3.88140         5.36290
     2009.62080         1.25704         5.52599
     2009.62354         0.38968         5.38770
     2009.62628         5.25633         5.38102
     2009.62902        11.44297         5.91225
     2009.63175         5.58361         5.52408
     2009.63449         1.22325         5.51741
     2009.63723         2.44789         5.72151
     2009.63997        -2.04447         5.81783
     2009.64271         2.06217         5.49070
     2009.64544         6.17981         5.68717
     2009.64818        -3.22755         5.74535
     2009.65092         3.29810         5.48975
     2009.65366         0.27674         5.51454
     2009.65639        -3.80962         5.50501
     2009.65913        -3.82998         5.40582
     2009.66187         4.92466         5.38388
     2009.66461         5.03530         5.42775
     2009.66735        12.08394         5.61469
     2009.67008         2.58058         5.48879
     2009.67282        15.97023         5.76156
     2009.67556        -4.95113         5.56414
     2009.67835        15.08060         5.73581
     2009.68104        12.92115         6.20887
     2009.68377        -4.11421         5.52885
     2009.68651        10.38443         6.11540
     2009.68925        15.18807         5.55365
     2009.69199         4.08671         5.64425
     2009.69472         0.97035         5.52694
     2009.69746         7.76000         5.39914
     2009.70020         9.97964         5.45732
     2009.70294         8.69928         5.49547
     2009.70568         1.99392         5.49928
     2009.70841         1.65656         5.56795
     2009.71115         7.30420         5.67859
     2009.71389         4.75384         5.81593
     2009.71663        -3.67552         5.73772
     2009.71937         1.12213         5.59275
     2009.72210        -2.82423         5.48307
     2009.72484         3.71741         5.56414
     2009.72758         0.33105         5.55174
     2009.73032         0.38369         5.60610
     2009.73305         0.90233         5.92942
     2009.73579         2.83397         5.85694
     2009.73853         3.77961         5.89890
     2009.74127         6.96525         5.74630
     2009.74401         9.43990         6.09633
     2009.74652        13.17815         6.46638
     2009.74960         5.19037         8.15069
     2009.75222         7.35982         5.85503
     2009.75496         0.67046         5.76919
     2009.75770         3.79910         5.49642
     2009.76043         5.53974         5.94277
     2009.76317         2.49038         5.63853
     2009.76591         5.50203         5.51359
     2009.76865         3.23567         5.55937
     2009.77138         0.43431         5.50501
     2009.77412         3.39395         5.59084
     2009.77686         4.64659         5.51836
     2009.77960         9.29923         5.86552
     2009.78234        14.68087         5.62232
     2009.78507        20.59051         5.69289
     2009.78781         1.68915         5.89223
     2009.79055         6.63480         6.16404
     2009.79329        -3.16456         5.88078
     2009.79603       -10.46592         6.04292
     2009.79876         4.44372         5.98092
     2009.80139         2.98717         6.01621
     2009.80430         4.64110         6.16404
     2009.80698        15.28264         6.61230
     2009.80971        10.71728         6.35861
     2009.81165        26.15057         8.61516
     2009.81821         8.40469         7.06819
     2009.82502        10.22224        11.54888
     2009.82776        19.55788        11.91512
     2009.83059        23.48967        10.11063
     2009.83340        -0.95056         9.28469
     2009.83655         1.72878         9.38579
     2009.83923         5.30132         9.31426
     2009.84257         4.60998         6.91845
     2009.84531         5.18162         6.73343
     2009.84804         5.71326         6.17549
     2009.86173         5.19847         5.85885
     2009.86447        15.04911         5.76252
     2009.86727         6.33885         6.30710
     2009.86983         0.85120         6.03052
     2009.87286         2.92132         6.12208
     2009.87428         8.39274        13.14544
     2009.87816        10.06431         5.75203
     2009.88090        21.85896         7.08727
     2009.88364        11.30360         5.73009
     2009.88649        14.40143         6.73057
     2009.93678        -6.56931        13.16833
     2009.93839        -5.41358         5.62041
     2009.94113        -4.82594         5.48116
     2009.94387        -2.55730         5.46209
     2009.94661        -5.50066         5.74344
     2009.94935        -2.50902         5.40582
     2009.95208        -3.56237         5.38388
     2009.95482        -3.98673         5.60801
     2009.95756        -0.42009         5.53362
     2009.96030        -9.09745         5.42775
     2009.96303        -9.75581         5.50310
     2009.96577        -6.81417         5.54316
     2009.96851         1.25147         5.67668
     2009.97125         6.88911         5.67573
     2009.97399        -2.88924         5.49356
     2009.97672        -8.72160         5.35431
     2009.97946       -14.27596         5.34669
     2009.98220        -8.14932         5.34096
     2009.98494        -5.53168         5.37053
     2009.98767        -8.51504         5.35908
     2009.99041        -5.36540         5.29041
     2009.99315        -6.91576         5.34287
     2009.99589        -4.73012         5.33047
     2009.99863        -6.87447         5.36767
     2010.00410       -11.20119         5.33810
     2010.00684       -11.69855         5.31617
     2010.00958        -7.72391         5.59943
     2010.01232        -8.03727         5.41822
     2010.01505       -12.92963         5.31235
     2010.01779        -8.45899         5.38770
     2010.02053         1.06166         5.47163
     2010.02287        -9.59538         6.81163
     2010.02600        -8.60206         5.35431
     2010.02874         3.55658         5.57177
     2010.03154        -2.70668         5.67191
     2010.03422        -2.17014         5.55842
     2010.03696       -11.87950         6.37577
     2010.03969        -2.33486         5.98855
     2010.04243        -1.70522         5.32189
     2010.04523        10.37452         6.12017
     2010.04791        12.14507         5.77682
     2010.05065        -5.41229         5.75775
     2010.05344         5.99645         6.04959
     2010.05612         3.43399         6.15832
     2010.05886        -3.59937         5.33333
     2010.06160        -7.42473         5.38102
     2010.06433        -8.92709         5.33143
     2010.06707        -7.64044         5.43252
     2010.06981        -8.60680         5.79208
     2010.07261        -8.17007         5.72055
     2010.07529        -8.67752         5.70148
     2010.07808       -10.25478         5.86743
     2010.08076         1.01676         5.50787
     2010.08350         0.32940         5.36194
     2010.08624        -0.97996         5.61564
     2010.08898         6.70469         5.87029
     2010.09171         3.02433         5.55746
     2010.09445        11.50497         5.94564
     2010.09719         3.60361         5.56891
     2010.09993        -6.84275         5.54411
     2010.10266         3.10689         5.42775
     2010.10540         1.67053         5.61755
     2010.10814        -4.50883         5.40486
     2010.11094        -1.76809         5.59561
     2010.11362         1.75746         5.73963
     2010.11635         3.15010         5.74535
     2010.11909         5.85274         5.54697
     2010.12183        -0.39262         6.27563
     2010.12457        -3.58698         5.31521
     2010.12731        -1.43834         5.77205
     2010.13004        -1.01170         5.41440
     2010.13278        -6.68106         5.41345
     2010.13552        -6.98241         5.34001
     2010.13826        -7.24477         5.32284
     2010.14099        -4.89513         5.23510
     2010.14373        -5.13549         5.39723
     2010.14647        -6.32085         5.51264
     2010.14921         0.34179         5.34001
     2010.15195        -8.53957         5.39151
     2010.15468        -0.94493         5.47067
     2010.15742         0.43571         5.50691
     2010.16016        -2.68764         5.33047
     2010.16290        -5.28200         5.22747
     2010.16564        -5.53236         5.29328
     2010.16837        -6.12372         5.30854
     2010.17111        -8.17108         5.28660
     2010.17385       -10.44244         5.24750
     2010.17659        -3.23580         5.24559
     2010.17932        -4.13116         5.21602
     2010.18206        -1.60251         5.28374
     2010.18480        -0.96887         5.31235
     2010.18754         1.56277         5.29804
     2010.19028         1.61441         5.31330
     2010.19301         3.24105         5.37148
     2010.19575        -3.48531         5.33429
     2010.19849        -7.86667         5.31903
     2010.20123        -6.09903         5.33906
     2010.20374       -12.37377         5.75203
     2010.20702        -6.13621         6.17740
     2010.20944        -6.07310         5.24559
     2010.21218        -8.08446         5.29137
     2010.21492        -8.01082         5.29328
     2010.21765        -0.87318         5.52313
     2010.22039        -6.09854         5.29423
     2010.22313       -10.59890         5.26562
     2010.22587        -4.72826         5.34669
     2010.22861         0.04139         5.41631
     2010.23134        -1.21997         5.43348
     2010.23956         7.87995         5.53839
     2010.24230         3.54659         5.64807
     2010.24503        -8.84377         5.51645
     2010.24777        -3.39713         5.46686
     2010.25045         3.06942         5.77682
     2010.25325        -2.15584         5.44969
     2010.25598         6.90480         5.45446
     2010.25872         2.11744         5.42394
     2010.26146         3.33708         5.51550
     2010.26420        -0.39628         5.60038
     2010.26694         1.53536         5.49452
     2010.26967        -0.27100         5.41154
     2010.27241        -4.13936         5.44778
     2010.27515        -5.23771         5.39819
     2010.27789        -0.49007         5.44969
     2010.28062         0.56957         5.29518
     2010.28336        -6.94279         5.39628
     2010.28610        -2.89915         5.49928
     2010.28884        -4.14351         5.35908
     2010.29158         7.55213         5.52599
     2010.29431         5.56677         5.48498
     2010.29705        -1.77359         5.41154
     2010.29979        -4.41694         5.58131
     2010.30253         6.67270         5.46400
     2010.30527         6.77834         5.57654
     2010.30800         8.48398         5.38293
     2010.31074         0.62762         5.43252
     2010.31348        -1.18674         5.35145
     2010.31622         5.10390         5.59370
     2010.31895        11.42154         5.84359
     2010.32169         7.80419         5.45827
     2010.32443         3.17983         5.40296
     2010.32717         1.12047         5.45255
     2010.32991         3.20011         5.52408
     2010.33264         5.06775         5.32856
     2010.33538         4.47339         5.54220
     2010.33812         1.14503         5.39628
     2010.34086        -2.17233         5.40105
     2010.34360        -3.85568         5.29995
     2010.34633        -0.90504         5.37911
     2010.34907        -2.47740         5.29995
     2010.35181        -2.75976         5.36862
     2010.35455        -2.03112         5.51645
     2010.35728        -3.71748         5.42680
     2010.36002        -1.29584         5.40391
     2010.36276        -0.60020         5.21125
     2010.36550        -0.68956         5.58321
     2010.36824        -2.68191         5.61850
     2010.37097        -0.17627         5.47830
     2010.37371         6.73837         5.35050
     2010.37645         6.97601         5.46972
     2010.37919         3.19065         5.62804
     2010.38193         0.58929         5.70625
     2010.38466        -0.98607         5.77110
     2010.38740         4.99657         5.56414
     2010.39014        -5.77478         5.42489
     2010.39288        -3.85414         5.54125
     2010.39561        -5.92650         5.55651
     2010.39835         4.47114         5.40677
     2010.40109         2.82878         5.36099
     2010.40383         1.51642         5.29518
     2010.40657         8.10206         5.33524
     2010.40930         7.38270         5.40582
     2010.41204         4.26934         5.29328
     2010.41478         2.67799         5.29709
     2010.41752        10.95663         5.32570
     2010.42026        -0.35073         5.28278
     2010.42299         7.24691         5.37530
     2010.42573        -5.06145         5.36957
     2010.42847        -5.21481         5.31426
     2010.43121        -2.79217         5.39533
     2010.43394        -0.14553         5.29995
     2010.43668        -5.05088         5.39151
     2010.43942         3.38976         5.27706
     2010.44216         0.38340         5.29137
     2010.44490        -5.77496         5.26180
     2010.44763        -6.87132         5.39628
     2010.45037        -4.14568         5.42203
     2010.45311         1.90196         5.40868
     2010.45585         2.50660         5.39819
     2010.45859         2.30524         5.38674
     2010.46132         0.99889         5.31521
     2010.46406         0.17653         5.26085
     2010.46680         0.33317         5.34764
     2010.46954         6.10581         5.35336
     2010.47227        -4.50255         5.29995
     2010.47501        -5.80991         5.26276
     2010.47775        -3.14127         5.43252
     2010.48049         2.80037         5.51550
     2010.48323         1.50502         5.28374
     2010.48596         5.25866         5.30091
     2010.48870         5.01830         5.26752
     2010.49144         2.83094         5.22842
     2010.49418         4.98358         5.20935
     2010.49692         3.86822         5.28374
     2010.49965         5.09986         5.29328
     2010.50239         4.30550         5.28088
     2010.50513         3.73814         5.28183
     2010.50787         0.84179         5.26466
     2010.51060         0.68343         5.24177
     2010.51334         1.67407         5.24654
     2010.51608         2.18771         5.23224
     2010.51882         5.07835         5.20362
     2010.52156        11.88999         5.43348
     2010.52429         7.01163         5.34573
     2010.52703        11.10627         5.32093
     2010.52977         4.22792         5.23605
     2010.53251         4.82356         5.23033
     2010.53525         2.59420         5.20458
     2010.53798         0.94784         5.25989
     2010.54072        -1.37452         5.29995
     2010.54346        -0.42088         5.28755
     2010.54620         3.01576         5.32666
     2010.54893         1.17640         5.27039
     2010.55167         3.92004         5.25131
     2010.55441         4.75469         5.35718
     2010.55715         4.56033         5.23700
     2010.55989         5.57597         5.22174
     2010.56262         7.42361         5.33810
     2010.56536         2.63525         5.25608
     2010.56810        -3.29511         5.35050
     2010.57084         9.37053         5.26276
     2010.57357         1.98817         5.40200
     2010.57631         4.14082         5.32761
     2010.57905        -0.96854         5.44301
     2010.58179        10.70610         5.31330
     2010.58453         4.82674         5.28755
     2010.58726        -0.99362         5.43252
     2010.59000         6.03902         5.42108
     2010.59274         8.06166         5.34859
     2010.59548        13.66430         5.27897
     2010.59822         9.50895         5.29328
     2010.60095        16.68459         5.39342
     2010.60369         8.60723         5.33047
     2010.60643         7.28787         5.27802
     2010.60917         2.95251         5.32475
     2010.61190         5.75815         5.30186
     2010.61464        10.41179         5.34001
     2010.61738         7.89743         5.24940
     2010.62012         5.80107         5.26180
     2010.62286         7.09472         5.27039
     2010.62559         5.75336         5.26371
     2010.62833         4.93100         5.36099
     2010.63107         9.21964         5.40009
     2010.63381         9.79528         5.29328
     2010.63655         8.74192         5.29995
     2010.63928        10.25456         5.36194
     2010.64202         1.73620         5.41249
     2010.64476        -1.39515         5.38865
     2010.64750         8.24149         5.28755
     2010.65023         7.04413         5.52217
     2010.65297         9.27077         5.52599
     2010.65571         5.83241         5.28660
     2010.65845         6.48205         5.31521
     2010.66119         8.77669         5.32952
     2010.66392        13.80033         5.33429
     2010.66666        12.22997         5.30186
     2010.66940         6.12062         5.34478
     2010.67214         1.32726         5.37911
     2010.67488        13.87890         5.33619
     2010.67761        14.34854         5.26562
     2010.68035         6.68418         5.42489
     2010.68309        10.05082         5.35718
     2010.68583        10.36446         5.35527
     2010.68856         4.15910         5.34192
     2010.69130         3.29275         5.33047
     2010.69404         7.30839         5.44301
     2010.69678        -0.85797         5.30854
     2010.69952         1.26467         5.27706
     2010.70225         3.66231         5.32475
     2010.70499         7.60495         5.34096
     2010.70773        11.24759         5.42585
     2010.71047         9.92723         5.38674
     2010.71321        11.28787         5.44301
     2010.71594         4.18852         5.50596
     2010.71868        12.19716         5.36481
     2010.72142         5.75480         5.44969
     2010.72416         5.45144         5.40200
     2010.72689        10.33908         5.48593
     2010.72963        -0.40728         5.30186
     2010.73237         3.18636         5.34478
     2010.73511         1.10900         5.41535
     2010.73785         5.90965         5.79304
     2010.74058         4.26229         5.62136
     2010.74332         3.97393         5.37911
     2010.74606         7.11157         5.34287
     2010.74880         6.44121         5.35908
     2010.75154         7.62885         5.25226
     2010.75416         6.08730         5.66714
     2010.75701         9.08713         5.32284
     2010.75975         8.49377         5.33143
     2010.76249         5.59142         5.34287
     2010.76522         4.84806         5.25799
     2010.76796         5.88970         5.34764
     2010.77070        -3.05366         5.61087
     2010.77344        13.45698         5.52885
     2010.77618         7.96662         5.46590
     2010.77891        -1.04674         5.35336
     2010.78165         7.26590         5.37911
     2010.78439         3.36555         5.45923
     2010.78713         9.03819         5.42966
     2010.78987         6.99383         5.29804
     2010.79260         5.54447         5.26562
     2010.79534        -1.10789         5.25989
     2010.79808         5.67075         5.31426
     2010.80082         3.29839         5.25894
     2010.80355         9.52503         5.30949
     2010.80629         2.97467         5.41917
     2010.80903         7.39632         5.31807
     2010.81177        12.59096         5.63376
     2010.81451        13.59460         5.34192
     2010.81724         6.76324         5.33715
     2010.81998         4.74288         5.29423
     2010.82272        10.25052         5.32093
     2010.82546        12.14316         5.31235
     2010.82820         8.57980         5.37720
     2010.83093         9.02445         5.67954
     2010.83367        10.64109         5.78636
     2010.83641        -0.46827         5.37339
     2010.83915        -1.29363         5.32475
     2010.84188         8.38701         5.36576
     2010.84462        11.80065         5.40677
     2010.84736        10.48829         5.35718
     2010.85010         6.47393         5.43920
     2010.85284         5.92958         5.34669
     2010.85557        13.42022         5.32666
     2010.85831         9.10586         5.31712
     2010.86105        -0.13250         5.35145
     2010.86379        -7.42886         5.33906
     2010.86653        -3.62722         5.34096
     2010.86926         3.40042         5.42966
     2010.87200         4.02106         5.29041
     2010.87474         6.52570         5.46972
     2010.87748         2.52235         5.44111
     2010.88021         9.80099         5.39533
     2010.88295        -0.10737         5.34955
     2010.88569         4.31927         5.27134
     2010.88843         0.79791         5.45541
     2010.89117         2.99855         5.49833
     2010.89390         6.03519         5.21125
     2010.89664         2.62783         5.15212
     2010.89938         3.22148         5.22079
     2010.90212         2.40712         5.33143
     2010.90485         4.10976         5.21411
     2010.90759         4.56640         5.14545
     2010.91033         4.31204         5.12637
     2010.91307         5.67568         5.25894
     2010.91581         1.98032         5.16071
     2010.91854        -1.98204         5.16071
     2010.92128        -6.47540         5.12828
     2010.92402        -3.60275         5.15117
     2010.92676        -0.91711         5.18932
     2010.92950        -1.01747         5.20839
     2010.93223        -0.72483         5.25608
     2010.93497         7.19781         5.31617
     2010.93771         1.82945         5.28946
     2010.94045         4.67209         5.30472
     2010.94318         7.95873         5.16452
     2010.94592        11.07638         5.22842
     2010.94866         4.71802         5.21316
     2010.95140        11.65266         5.44397
     2010.95414        -2.98770         5.22937
     2010.95687         2.46494         5.18741
     2010.95961        -2.85142         5.21698
     2010.96235         1.82222         5.20076
     2010.96509         4.02386         5.25799
     2010.96783         4.25450         5.26466
     2010.97056         1.13615         5.20839
     2010.97330        -0.21521         5.23796
     2010.97604        -3.57757         5.17978
     2010.97872         3.50297         5.38865
     2010.98151         6.84271         5.25989
     2010.98425         0.60035         5.29709
     2010.98699         2.89899         5.24177
     2010.98973         4.48663         5.35145
     2010.99247         4.95328         5.36957
     2010.99520         5.93692         5.21698
     2010.99794        -4.66844         5.16547
     2011.00342        -2.09316         5.16357
     2011.00616         2.52548         5.11302
     2011.00889         1.95512         5.23891
     2011.01163        -2.78924         5.18264
     2011.01437        -2.81460         5.21698
     2011.01711         5.60505         5.43157
     2011.01984         2.86269         5.21125
     2011.02258        -5.10167         5.19695
     2011.02532        -3.70803         5.36194
     2011.02806        -2.26339         5.43824
     2011.03080         6.28325         5.68336
     2011.03353        -1.88711         5.25894
     2011.03627        -4.31047         5.40296
     2011.03901       -10.21682         5.30281
     2011.04175         2.34682         5.34573
     2011.04449        -6.82754         5.28755
     2011.04722         3.98310         5.25417
     2011.04996        -2.42626         5.24368
     2011.05270        -6.64362         5.20362
     2011.05544         1.88202         5.30091
     2011.05817        -6.11034         5.21316
     2011.06091        -2.47470         5.22747
     2011.06365        -2.74105         5.26180
     2011.06639        -6.79141         5.15880
     2011.06913        -9.90377         5.57654
     2011.07186       -12.58113         5.27802
     2011.07460        -8.19549         5.26848
     2011.07734        -4.70485         5.21507
     2011.08008        -2.98321         5.24940
     2011.08282       -10.70957         5.17024
     2011.08555       -11.24292         5.18932
     2011.08829        -4.86928         5.22365
     2011.09103       -13.02564         5.22174
     2011.09377        -5.61700         5.29709
     2011.09650        -1.63936         5.21030
     2011.09924         2.73628         5.27802
     2011.10198        -2.95408         5.39533
     2011.10472        -5.80944         5.21507
     2011.10746       -10.14779         5.11779
     2011.11019        -3.94515         5.09680
     2011.11293        -8.40851         5.28183
     2011.11567        -3.63787         5.28851
     2011.11841        -1.31923         5.35431
     2011.12115        -1.15959         5.30281
     2011.12388         2.59105         5.41059
     2011.12662         2.38469         5.40963
     2011.12936        -2.04567         5.20744
     2011.13210        -4.35302         5.12637
     2011.13444        -9.01106         6.10586
     2011.13757        -5.18274         5.12256
     2011.14031        -4.64210         5.12446
     2011.14305         3.04554         5.29804
     2011.14579        -1.53282         5.26752
     2011.14852         5.01682         5.14068
     2011.15086         0.00979         6.11540
     2011.15400        -0.24289         5.15212
     2011.15674         0.61875         5.23891
     2011.15948         2.55039         5.27515
     2011.16221         3.51903         5.11493
     2011.16495        -1.17533         5.34859
     2011.16769        -6.53669         5.22079
     2011.17043        -6.24705         5.16643
     2011.17316       -12.73641         5.22079
     2011.17590       -13.59377         5.18455
     2011.17864        -0.93712         5.15784
     2011.18138        -2.31548         5.18550
     2011.18412        -8.62084         5.29804
     2011.18685         2.74480         5.30663
     2011.18959        -6.09556         5.25131
     2011.19233        -6.43792         5.25608
     2011.19507        -0.25028         5.21698
     2011.19780        -3.48264         5.53076
     2011.20054        -1.53299         5.24082
     2011.20328         5.01665         5.37434
     2011.20602         0.16629         5.32093
     2011.20876        -0.80507         5.23128
     2011.21149        -3.16643         5.15689
     2011.21423        -7.00779         5.13591
     2011.21697         1.33785         5.31235
     2011.21971        -0.65051         5.28660
     2011.22245        -4.23787         5.17978
     2011.22518        -2.94122         5.18932
     2011.22792         2.66842         5.21221
     2011.23066        -2.03594         5.21411
     2011.23340        -2.98030         5.24368
     2011.23613        -7.55566         5.16261
     2011.23887       -10.74202         5.23700
     2011.24161        -1.79738         5.17501
     2011.24435        -2.79674         5.26848
     2011.24709         1.22291         5.23891
     2011.24982         1.97555         5.23987
     2011.25256         4.50219         5.23510
     2011.25530        -4.84817         5.20839
     2011.25804        -1.82753         5.42775
     2011.26078        -0.45389         5.37816
     2011.26351         0.02675         5.15021
     2011.26625        -8.03161         5.24940
     2011.26899        -5.23597         5.17501
     2011.27173        -5.76032         5.32284
     2011.27446         5.68632         5.42203
     2011.27720        -6.68904         5.39533
     2011.27994        -6.76540         5.15975
     2011.28268        -5.14576         5.25608
     2011.28542        -8.68412         5.16738
     2011.28815        -5.22148         5.16452
     2011.29089         0.82516         5.18359
     2011.29363       -10.01619         5.17501
     2011.29637        -5.18755         5.19599
     2011.29911        -9.35591         5.07391
     2011.30184         1.34073         5.33238
     2011.30458         0.00537         5.15784
     2011.30732        -1.63899         5.17501
     2011.31006        -2.74835         5.16166
     2011.31279         3.93329         5.17692
     2011.31553         4.01493         5.13305
     2011.31827         0.67858         5.23033
     2011.32101        -3.30378         5.21221
     2011.32375       -12.04714         5.12828
     2011.32648       -10.28350         5.17120
     2011.32922       -10.89086         5.19027
     2011.33196       -13.20522         5.17883
     2011.33470       -10.19358         5.23700
     2011.33744        -8.18994         5.20839
     2011.34017        -5.60629         5.30281
     2011.34291        -2.51765         5.26848
     2011.34565         2.81299         5.25799
     2011.34839        -0.67237         5.31617
     2011.35112        -8.35473         5.29041
     2011.35386       -10.52709         5.24273
     2011.35660        -9.77145         5.21125
     2011.35934        -5.75981         5.21316
     2011.36208       -19.70816         5.20267
     2011.36481        -6.78252         5.36004
     2011.36755        -3.32988         5.49165
     2011.37029        -4.15924         5.22937
     2011.37303        -2.73660         5.30949
     2011.37577        -5.53396         5.25513
     2011.37850       -10.87532         5.24463
     2011.38124        -9.88968         5.32093
     2011.38398       -10.73004         5.26466
     2011.38672        -5.52639         5.30949
     2011.38945        -8.42175         5.18455
     2011.39219        -4.11811         5.22270
     2011.39493        -2.85747         5.29518
     2011.39767        -1.31983         5.31044
     2011.40041        -4.53619         5.31235
     2011.40314       -11.33455         5.25894
     2011.40588        -3.79291         5.26085
     2011.40862        -5.00726         5.26752
     2011.41136        -8.47662         5.28851
     2011.41410        -9.16998         5.29423
     2011.41683        -7.00234         5.28851
     2011.41957        -7.00870         5.28469
     2011.42231       -12.49806         5.25322
     2011.42505        -8.25142         5.30758
     2011.42778        -2.41278         5.34955
     2011.43052        -5.17914         5.35145
     2011.43326       -10.38949         5.25513
     2011.43600        -9.57985         5.24559
     2011.43874        -8.89321         5.22270
     2011.44119        -8.60105         5.98569
     2011.44421        -4.52593         5.25894
     2011.44695        -4.91929         5.31426
     2011.44969        -4.74865         5.29423
     2011.45243         1.08199         5.27992
     2011.45516        -9.03736         5.26276
     2011.45790        -7.75972         5.32666
     2011.46064        -5.48708         5.29423
     2011.46338        -7.78544         5.23796
     2011.46611        -5.52780         5.22079
     2011.46885        -1.61816         5.23796
     2011.47159        -9.66252         5.44492
     2011.47433        -2.80488         5.29804
     2011.47707         5.96476         5.27897
     2011.47980         0.34141         5.23319
     2011.48254        -4.04495         5.24654
     2011.48528        -5.00831         5.29328
     2011.48802         1.23133         5.31140
     2011.49076         1.51497         5.32856
     2011.49349        -2.92939         5.29041
     2011.49623        -3.29175         5.25417
     2011.49897         2.27389         5.34382
     2011.50171        -1.84746         5.46304
     2011.50444        -4.19082         5.28278
     2011.50718         0.24882         5.35718
     2011.50992        -2.93854         5.29614
     2011.51266         1.51510         5.34573
     2011.51540         0.92174         5.24940
     2011.51813         0.99438         5.28565
     2011.52087         4.15902         5.31617
     2011.52361        -2.26534         5.33810
     2011.52635        -1.93069         5.34478
     2011.52908        13.61995         5.41631
     2011.53182        -2.21841         5.30377
     2011.53456         0.77723         5.33906
     2011.53730         5.17287         5.34287
     2011.54004         1.33251         5.32761
     2011.54277        -1.65885         5.29995
     2011.54551         2.96179         5.40105
     2011.54825        -2.61456         5.29041
     2011.55099         2.24608         5.38770
     2011.55373         4.75272         5.39056
     2011.55646        -2.42464         5.32475
     2011.55920        -0.09700         5.31235
     2011.56194         9.39564         5.34859
     2011.56468         6.18928         5.33238
     2011.56741         0.03092         5.25036
     2011.57015        -2.00144         5.41440
     2011.57289         1.01921         5.24750
     2011.57563         5.54485         5.32952
     2011.57837         6.27749         5.43348
     2011.58110        -3.12087         5.26276
     2011.58384         3.32777         5.34001
     2011.58658        -0.38259         5.56128
     2011.58932         2.21005         5.24368
     2011.59206         0.60669         5.27420
     2011.59479         7.67034         5.24177
     2011.59753         1.46398         5.33333
     2011.60027         3.55462         5.29995
     2011.60301         2.60926         5.26276
     2011.60574         4.63390         5.34764
     2011.60848         6.64754         5.57177
     2011.61122         6.67218         5.61373
     2011.61396         6.41582         5.49070
     2011.61670         5.77247         5.37244
     2011.61943         4.52711         5.39628
     2011.62217         4.62875         5.44111
     2011.62491        -3.36361         5.45350
     2011.62765        -2.36197         5.46113
     2011.63039         4.47067         5.33047
     2011.63312         4.31631         5.27706
     2011.63586         4.25995         5.28946
     2011.63860        -2.38041         5.51550
     2011.64134         2.14524         5.59657
     2011.64407         5.93188         5.38579
     2011.64681         6.38152         5.34001
     2011.64955         7.04216         5.40486
     2011.65229         2.88680         5.41822
     2011.65503         3.77944         5.52599
     2011.65776         2.45808         5.48212
     2011.66050         7.99472         5.44587
     2011.66324         8.05037         5.35908
     2011.66598        12.77001         5.52122
     2011.66872         6.39765         5.43920
     2011.67145        10.99329         5.32475
     2011.67419         9.68793         5.34669
     2011.67693        10.00657         5.30281
     2011.67967         7.63221         5.26371
     2011.68240         0.12985         5.40868
     2011.68514         5.85149         5.40200
     2011.68788         4.24614         5.39628
     2011.69062         6.94278         5.49165
     2011.69336        10.14042         5.39723
     2011.69609         3.46506         5.41917
     2011.69883         4.66370         5.36862
     2011.70157         6.53334         5.39628
     2011.70431         9.73298         5.36004
     2011.70705        12.25362         5.47353
     2011.70978         8.05727         5.52599
     2011.71252         8.10491         5.58894
     2011.71526         7.14955         5.43729
     2011.71800         4.60719         5.48784
     2011.72073        10.60583         5.39914
     2011.72347         6.84247         5.59752
     2011.72621         4.20411         5.50978
     2011.72895        11.66775         5.40582
     2011.73157        16.11920         6.10586
     2011.73442         9.49704         5.39628
     2011.73716        12.16968         5.53362
     2011.73939         0.06445         6.50834
     2011.75359        10.72352         5.61087
     2011.75633         8.56417         5.50787
     2011.75906        17.87081         5.75203
     2011.76180        14.43245         5.36576
     2011.76454        11.97209         5.49833
     2011.76728         2.88973         5.46876
     2011.77002         2.42537         5.59466
     2011.77275        21.38701         5.62041
     2011.77549         7.94665         5.65188
     2011.77823        -0.11571         5.63948
     2011.78097         3.15694         5.41822
     2011.78371         9.06158         5.48784
     2011.78644        11.87022         5.35241
     2011.78918         1.78286         5.34001
     2011.79192         1.13350         5.42394
     2011.79466        -1.82686         5.47258
     2011.79739         9.83378         5.36194
     2011.80013        11.83242         5.38197
     2011.80287         5.44307         5.45064
     2011.80561        11.18871         5.49356
     2011.80835         2.09935         5.38579
     2011.81108        -0.43501         5.29041
     2011.81382         6.88863         5.53457
     2011.81656         1.38027         5.33906
     2011.81930         2.44391         5.32856
     2011.82203         3.26855         5.49547
     2011.82477         6.01719         5.25989
     2011.82751         2.66484         5.58989
     2011.83025         2.23048         5.35431
     2011.83299        -1.06188         5.28851
     2011.83572        -0.05424         5.35145
     2011.83846         4.38340         5.41822
     2011.84120        11.91204         5.40582
     2011.84394         5.05368         5.29709
     2011.84668         3.52432         5.23891
     2011.84941        -1.78403         5.36290
     2011.85215        -3.51539         5.36385
     2011.85489        -4.67175         5.43634
     2011.85763        -3.24811         5.47735
     2011.86036        10.24853         5.36004
     2011.86310        12.84917         5.36576
     2011.86584        13.20581         5.38197
     2011.86858        14.44445         5.36957
     2011.87132         2.10010         5.31712
     2011.87405         4.01574         5.38197
     2011.87679         5.59238         5.42012
     2011.87953         6.00602         5.44874
     2011.88227         4.29566         5.34192
     2011.88501         2.59830         5.28660
     2011.88774         6.52794         5.42012
     2011.89048        14.53758         5.40009
     2011.89322        10.56522         5.42775
     2011.89596         5.02487         5.39628
     2011.89869         6.37151         5.49547
     2011.90143        -6.28785         5.44778
     2011.90417         2.09679         5.49738
     2011.90691         2.61043         5.45350
     2011.90965         3.16707         5.33619
     2011.91238         1.55671         5.50405
     2011.91512        -3.02065         5.35718
     2011.91786         6.51600         5.54697
     2011.92060        -4.32636         5.37434
     2011.92334        -3.25872         5.48021
     2011.92607        -6.21608         5.42871
     2011.92881        -2.96044         5.43824
     2011.93155        -0.08380         5.44587
     2011.93429         1.26484         5.44206
     2011.93702        -1.18252         5.38007
     2011.93976         3.23812         5.46972
     2011.94250         3.50677         5.46590
     2011.94524         2.75141         5.40105
     2011.94798        10.89905         5.47639
     2011.95071         2.96969         5.31330
     2011.95345         3.82633         5.42012
     2011.95619         3.25997         5.51645
     2011.95893        -1.56339         5.30377
     2011.96167         6.87025         5.39246
     2011.96440         2.22190         5.36290
     2011.96714        -2.49846         5.42394
     2011.96988         7.18418         5.26752
     2011.97262         1.47882         5.20458
     2011.97535        -4.90554         5.29804
     2011.97809        -0.39990         5.33619
     2011.98083        -2.94526         5.38960
     2011.98357         5.20638         5.28088
     2011.98631        11.28202         5.33333
     2012.33128        -2.52719         5.30377
     2012.33401        -7.16155         5.30758
     2012.33675        -0.90990         5.18264
     2012.33949        -5.70726         5.36099
     2012.34223        -7.16762         5.32952
     2012.34496       -16.65998         5.25799
     2012.34770        -8.91234         5.34192
     2012.35044       -12.66470         5.31140
     2012.35318        -8.32606         5.24082
     2012.35592       -10.00442         5.21125
     2012.35865       -11.11977         5.20744
     2012.36139        -9.30813         5.21316
     2012.36413       -11.05249         5.14163
     2012.36687       -11.02885         5.16452
     2012.36961       -11.89221         5.18550
     2012.37234        -7.72357         5.23605
     2012.37508        -3.98693         5.24940
     2012.37782        -6.85829         5.33047
     2012.38329        -6.09700         5.33715
     2012.38603        -7.00136         5.38388
     2012.38877        -5.72172         5.37244
     2012.39151        -2.83708         5.31044
     2012.39425        -1.95644         5.31617
     2012.39698        -9.68080         5.28755
     2012.39972        -6.69116         5.14640
     2012.40246       -12.55852         5.27420
     2012.40520        -4.37387         5.24940
     2012.40794        -8.27323         5.18550
     2012.41067        -8.64359         5.18169
     2012.41341        -8.46795         5.23224
     2012.41615        -2.86431         5.34001
     2012.41889         4.46133         5.31712
     2012.42162        -1.44703         5.22365
     2012.42436        -1.50839         5.25322
     2012.42710        -3.28874         5.21698
     2012.42984        -2.26510         5.22747
     2012.43258        -4.63746         5.25036
     2012.43531        -2.98482         5.25417
     2012.43805        -3.81518         5.20172
     2012.44079       -13.46054         5.18169
     2012.44347       -13.82699         5.33810
     2012.44604        -4.37064         5.71102
     2012.44855        -3.48139         6.71721
     2012.45111        -7.87204         7.18550
     2012.45448        -1.66833         5.25417
     2012.45687        -8.10827         6.21841
     2012.45995        -0.27105         5.29137
     2012.46269         2.63859         5.23128
     2012.46543        -1.44877         5.29518
     2012.46817        -0.43913         5.33906
     2012.47091        -7.53849         5.30091
     2012.47364        -2.31884         5.31140
     2012.47638         0.35180         5.35908
     2012.47912        -4.97956         5.24845
     2012.48186        -3.45892         5.27802
     2012.48459         2.53472         5.23796
     2012.48733        -3.40264         5.27897
     2012.49007        -7.16600         5.23319
     2012.49281        -4.53836         5.25513
     2012.49543         2.83309         5.53648
     2012.49806        -1.50346         5.78350
     2012.50068        -0.45001         6.10682
     2012.50319         5.38024         7.17692
     2012.50576        -5.20641         7.62232
     2012.50827        -9.33015        10.95279
     2012.51197        -0.85387         5.30567
     2012.51454        -4.13352         5.61850
     2012.51705        -1.64726         6.42632
     2012.52019         3.69706         5.24750
     2012.52292        -2.84930         5.23414
     2012.52566        -1.53266         5.23987
     2012.52840         1.72398         5.20553
     2012.53114         0.63062         5.44683
     2012.53388        -1.19974         5.35145
     2012.53644        -4.24439         5.64139
     2012.53901        -2.03804         6.06772
     2012.54158         5.89131         6.63710
     2012.54409        -1.72243         7.54125
     2012.54665        -9.15008         9.07964
     2012.54928         1.72637        11.51645
     2012.55298         3.13665         5.27706
     2012.55555         0.54800         5.57368
