# ================= DQRFIT RESULTS ================
# INPUT FILE: series/FARR.rad
# OUTPUT: LDETRENDED
# FILTER FUNCTION: f(t)
# f(t)=+line(t)
# line(t)=+P 1+P 2*t
# heav(t)=(t<0?0:1)
# TOTAL OBSERVATIONS MTOT=  270
# INITIAL TIME INTERVAL= 2018.0178 - 2006.5134 = 11.5044
# TOTAL OBSERVATIONS AFTER PREFILTER M=  270
# TIME-SPAN=    0.0000 -    0.0000 =  0.0000
# OBSERVATIONS: USED M=   270 REJECTED MTOT-M=     0 %USED=  100.0000
# N=  2 PARAMETERS
# MAXSIG= 175.00000
# MAXRES=  13.60427
# SCALE FACTOR FOR LENGTHS: SCL=  10.00000
# SCALE FACTOR FOR SIGMAS: SCLSIG=   1.00000
# CHI^2=    243.750 DOF=   268 CHI^2/DOF=   0.90952
# RMS=      5.369 SDEV=      5.379 MEAN=   -0.00908
#  P #       PARAMETER +-    SIGMA %error PARAMETER NAME
# P 1 =       524.40555 +-  167.091  31.86 YZERO                              
# P 2 =        -0.25720 +-    0.083  32.29 SLOPE                              
#       T            LDETRENDED       SIG_OBS
     2006.51335        -3.34950         5.63247
     2006.51609        -2.02680         5.73451
     2006.51883        11.29991         5.70304
     2006.52157        -5.31439         5.69160
     2006.52430         6.20332         5.67348
     2006.52704        -0.23298         5.70781
     2006.52978         3.88872         5.68015
     2006.53252        -0.50257         5.64773
     2006.53525         4.50013         5.65440
     2006.53799         0.37584         5.64296
     2006.54073        -0.74946         5.88043
     2006.54347         3.01724         5.54664
     2006.54621         5.95195         5.53138
     2006.54894         3.74265         5.49991
     2006.55168         0.50436         5.50754
     2006.55442         6.43106         5.50086
     2006.55716         4.60077         5.53710
     2006.55990         7.47147         5.51421
     2006.56263         1.42317         5.55713
     2006.56537         8.45388         5.53424
     2007.05271        -2.23778         5.57048
     2007.05545        -6.08008         5.33683
     2007.05818        -6.08037         5.34064
     2007.06092        -6.42667         5.37879
     2007.06366        -7.44096         5.38833
     2007.06640        -8.49226         5.42552
     2007.06914        -3.82156         5.26721
     2007.07187         2.63015         5.27293
     2007.07461         1.91885         5.28723
     2007.07735        -3.85044         5.32824
     2007.08009        -3.98374         5.33587
     2007.08282        -3.14403         5.26911
     2007.08556         1.83567         5.38642
     2007.08830        -0.75663         5.36639
     2007.09104        -0.80392         5.38070
     2007.09378        -3.65522         5.34732
     2007.09651        -6.65951         5.28151
     2007.09925        -5.92181         5.32538
     2007.10199        -4.27611         5.35685
     2007.10473        -6.72140         5.45508
     2007.10747        -8.42570         5.49800
     2007.11020        -8.92799         5.29772
     2007.11294        -7.11029         5.38642
     2007.11568        -7.22858         5.31489
     2007.11842        -0.36888         5.27579
     2007.12115        -3.84518         5.28342
     2007.12389       -12.20447         5.33397
     2007.12663        -6.63577         5.33206
     2007.12937        -4.45106         5.46557
     2007.13211        -5.05036         5.34732
     2007.13484         4.31434         5.38070
     2007.13758        -2.55395         5.33778
     2007.14032        -8.08525         5.46081
     2007.14306         1.05546         5.37211
     2007.14580        -3.09184         5.35876
     2007.14853        -5.13513         5.36162
     2007.15127        -2.01443         5.37974
     2007.15401       -11.01873         5.38451
     2007.15675         5.64198         5.38165
     2007.15948         0.33068         5.42266
     2007.16222       -11.52061         5.62007
     2007.16496        -3.08491         5.52089
     2007.16770        -4.29121         5.45318
     2007.17044        -4.16850         5.47416
     2007.17317        -1.17780         5.48560
     2007.17591        -3.10109         5.48751
     2007.17865        -1.71339         5.48846
     2007.18139        -0.56268         5.51135
     2007.18413        -9.06198         5.66013
     2007.18686         1.05472         5.70113
     2007.18960        -4.83657         5.51230
     2007.19234        -5.06387         5.53329
     2007.19508        -5.93716         5.45985
     2007.72074        -1.17596         5.53615
     2007.72348        -1.41026         5.63628
     2007.72622       -15.01655         5.49991
     2007.72896         1.67815         5.43219
     2008.53662         0.50188         5.53901
     2008.53936         4.42158         5.49800
     2008.54210        -4.39171         5.44745
     2008.54484         2.47699         5.60100
     2008.54757        -0.57730         5.49800
     2008.55031         5.28040         5.39595
     2008.55305         8.43510         5.53710
     2008.55579        10.64881         5.49514
     2008.55853         5.79351         5.43506
     2008.56126        -4.24078         5.43506
     2008.56400        -0.86308         5.35876
     2008.56674         0.92062         5.39119
     2008.56948        -0.04867         5.36925
     2008.57222         3.44603         5.45890
     2008.57495         3.60974         5.50563
     2008.57769         5.32544         5.58478
     2008.58043         3.59215         5.37879
     2008.58317         2.39785         5.38737
     2008.58590         2.56755         5.33110
     2008.58864         1.53226         5.57525
     2008.59138         1.70596         5.33873
     2008.59412        -2.08733         5.45508
     2008.59686        -0.80863         5.45985
     2008.59959         5.45607         5.67157
     2008.60781         1.83019         5.48655
     2011.92882        -2.15466         5.45031
     2011.93156         1.53705         5.43887
     2011.93430        -1.15525         5.41503
     2011.93703        -0.81354         5.40931
     2011.93977        -1.58084         5.42743
     2011.94251         3.42286         5.41789
     2011.94525         4.69757         5.41980
     2011.94799         6.70127         5.37688
     2011.95072         5.23998         5.29963
     2011.95346         5.17568         5.48369
     2011.95620         2.36238         5.49514
     2011.95894         0.72009         5.23478
     2011.96167         3.67079         5.23192
     2011.96441         4.86050         5.29391
     2011.96715         2.06920         5.25481
     2011.96989         8.08591         5.25290
     2011.97263         0.31761         5.23478
     2011.97536        -0.51669         5.25481
     2011.97810        -1.98798         5.23001
     2011.98084         0.66172         5.21094
     2011.98358         4.29743         5.22715
     2011.98632         0.37513         5.24623
     2011.98905        -2.33617         5.33015
     2011.99179         1.25754         5.27388
     2011.99453         6.52724         5.38546
     2011.99727         4.97695         5.24050
     2012.00274        -0.64464         5.25386
     2012.00548         1.41906         5.25195
     2012.00822         3.00876         5.27198
     2012.01096         7.32747         5.22238
     2012.01369         5.49517         5.22620
     2012.01643        -1.15312         5.27007
     2012.01917         5.94258         5.20331
     2012.02164         0.99422         6.03874
     2013.61534         9.90511         5.45604
     2013.61807         8.92182         5.31012
     2013.62081         8.64052         5.29391
     2013.62355         8.25222         5.29868
     2013.62629         4.74593         5.29486
     2013.62903         5.61663         5.30535
     2013.63176         7.59534         5.30535
     2013.63450         7.10904         5.46462
     2013.63724         3.80974         5.62579
     2013.63998        12.49845         5.41121
     2013.64272         7.33215         5.25099
     2013.64545        10.11486         5.27388
     2013.64819         9.40056         5.27674
     2013.65093        13.60427         5.24432
     2013.65367        10.31397         5.27102
     2013.65640        11.92067         5.34446
     2013.65914         7.42438         5.49991
     2013.66188         8.77208         5.30822
     2013.66462         5.11479         5.28437
     2013.66736        11.80949         5.33969
     2013.67009        11.80519         5.35781
     2013.67283         3.23690         5.40454
     2013.67557         8.41660         5.54282
     2013.67831         6.03731         5.39595
     2013.68105         8.89001         5.33397
     2013.68378        11.97272         5.28056
     2013.68652         9.61742         5.29391
     2013.68926        10.26212         5.30822
     2013.69200        10.14083         5.31394
     2015.54005        -4.96186         5.49037
     2015.54278         2.91885         5.64201
     2015.54552        -4.19745         5.52375
     2015.54826        -2.44075         5.42552
     2015.55100        -4.01204         5.43601
     2015.55374        -0.70434         5.48465
     2015.55647         2.11237         5.47988
     2015.55921        -1.90793         5.42933
     2015.56195        -0.82423         5.43410
     2015.56469        -1.30852         5.44364
     2015.56742         1.74718         5.51040
     2015.57016         2.50489         5.64677
     2015.57290        -1.79141         5.58955
     2015.57564        -4.39270         5.44745
     2015.57838        -3.05600         5.39500
     2015.58111        -1.90830         5.46081
     2015.58385        -4.42359         5.48179
     2015.58659         5.02211         5.51993
     2015.58933        -3.97118         5.48274
     2015.59206       -10.25348         5.53805
     2015.59480         0.81722         5.44936
     2015.59754         2.41993         5.46176
     2015.60028         3.91363         5.55808
     2015.60302        -2.92966         5.75073
     2015.60575        -0.98196         5.53138
     2015.60849        -2.53825         5.43887
     2015.61123        -0.85155         5.40931
     2015.61397         3.55715         5.46748
     2015.61671        -6.04414         5.42743
     2015.61944        -3.75044         5.35971
     2015.62218        -3.44773         5.31203
     2015.62492         0.06597         5.32061
     2015.62766         0.34467         5.35399
     2015.63039        -1.33762         5.34541
     2015.63313        -8.16892         5.43219
     2015.63587         2.16379         5.42075
     2015.63861        -3.40051         5.35304
     2015.64135        -0.69680         5.32920
     2015.64408        -8.49010         5.42552
     2015.64682        -3.84740         5.41407
     2015.64956        -2.12469         5.30917
     2015.65230        -4.61299         5.39214
     2015.65504         2.08372         5.34827
     2015.65777         0.18042         5.51707
     2015.66051         2.16812         5.45127
     2015.66325         0.92083         5.34064
     2015.66599         1.82853         5.43029
     2015.66872         0.24724         5.47130
     2015.67146         4.29794         5.38833
     2015.67420        -6.00535         5.34732
     2015.67694        -2.73465         5.33206
     2015.67968        -1.34695         5.31394
     2015.68241        -1.38624         5.31108
     2015.68515        -2.04254         5.29677
     2015.68789         1.12417         5.31203
     2015.69063        -2.46613         5.38928
     2015.69337        -4.06543         5.45127
     2015.69610         0.68728         5.39309
     2015.69884         3.06198         5.37497
     2015.70158         2.61269         5.42838
     2015.70432        -9.67461         5.49705
     2015.70705        -8.13090         5.36448
     2015.70979         4.82080         5.32538
     2015.71253        -5.31950         5.33778
     2015.71527        -1.42579         5.37497
     2015.71801         0.93791         5.33206
     2015.72074         3.36062         5.31108
     2015.72348         2.63232         5.34064
     2015.72622        -0.03198         5.32634
     2015.72896        -8.86327         5.38833
     2015.73170         1.28343         5.33492
     2015.73443        -5.32086         5.33301
     2015.73717         2.74084         5.36734
     2015.73991         4.42155         5.49228
     2015.74265        -7.20975         5.56953
     2015.74538         0.00895         5.64773
     2015.74812        -5.96134         5.60386
     2015.75086        -9.09764         5.32729
     2015.75360        -0.89693         5.35113
     2015.75634        -1.28023         5.35209
     2017.91650        -1.11564         5.26339
     2017.91924         1.31906         5.22906
     2017.92198         4.72277         5.25862
     2017.92471        -2.46553         5.20999
     2017.92745        -3.23382         5.22429
     2017.93019        -6.28912         5.23478
     2017.93293        -5.78942         5.23287
     2017.93567        -4.63471         5.17947
     2017.93840        -0.59501         5.19091
     2017.94114        -3.00630         5.20999
     2017.94388        -0.03660         5.22143
     2017.94662        -0.90190         5.23574
     2017.94935        -1.21619         5.23001
     2017.95209        -1.34949         5.34446
     2017.95483        -5.81878         5.22620
     2017.95757        -3.42408         6.28860
     2017.96031         1.41063         5.20236
     2017.99864        -3.19152         5.27293
     2018.00137        -8.02681         5.32061
     2018.00411        -9.76711         5.21666
     2018.00685        -8.00340         5.26911
     2018.00959       -10.24770         5.28533
     2018.01233       -11.09800         5.29963
     2018.01506       -12.14029         5.31584
     2018.01780        -4.45659         5.49514
