# ================= DQRFIT RESULTS ================
# INPUT FILE: series/FITZ.rad
# OUTPUT: LDETRENDED
# FILTER FUNCTION: f(t)
# f(t)=+line(t)
# line(t)=+P 1+P 2*t
# heav(t)=(t<0?0:1)
# TOTAL OBSERVATIONS MTOT=  220
# INITIAL TIME INTERVAL= 2016.6023 - 2011.7290 =  4.8734
# TOTAL OBSERVATIONS AFTER PREFILTER M=  220
# TIME-SPAN=    0.0000 -    0.0000 =  0.0000
# OBSERVATIONS: USED M=   220 REJECTED MTOT-M=     0 %USED=  100.0000
# N=  2 PARAMETERS
# MAXSIG= 175.00000
# MAXRES=  17.40668
# SCALE FACTOR FOR LENGTHS: SCL=  10.00000
# SCALE FACTOR FOR SIGMAS: SCLSIG=   1.00000
# CHI^2=    173.509 DOF=   218 CHI^2/DOF=   0.79591
# RMS=      4.971 SDEV=      4.982 MEAN=   -0.02827
#  P #       PARAMETER +-    SIGMA %error PARAMETER NAME
# P 1 =      8151.53662 +-  356.021   4.37 YZERO                              
# P 2 =        -4.06518 +-    0.177   4.35 SLOPE                              
#       T            LDETRENDED       SIG_OBS
     2011.72895         3.47115         5.00143
     2011.73169         4.98597         4.98149
     2011.73443        -1.62750         5.07971
     2011.73717         3.58327         5.05389
     2011.73990         3.90893         5.14198
     2011.74264         5.59059         5.14128
     2011.74264        10.59487         5.12652
     2011.74538         9.10451         5.13064
     2011.75086        -0.64308         5.11568
     2011.75359         3.14215         5.11042
     2011.75633        -1.31537         5.05581
     2011.75907        -1.77793         5.03087
     2011.76181        -1.70884         5.13083
     2011.76454        -2.76475         5.09704
     2011.76728        -3.33298         5.09304
     2011.77002        -0.01203         5.05083
     2011.77276         2.18574         5.05791
     2011.77550         1.88778         5.21960
     2011.77823        -4.84370         5.04909
     2011.78097         3.92997         5.19587
     2011.78371         1.94436         5.02979
     2011.78645         5.88248         4.99747
     2011.78919        -0.19265         4.98322
     2011.79192        -0.18589         4.96650
     2011.79466        -0.37561         5.15333
     2011.79740         0.49567         5.05798
     2011.80014        -0.98401         5.08001
     2011.80287        -3.45343         5.05726
     2011.80835        -4.70823         5.04488
     2011.81109         3.58418         5.02937
     2011.81383        -3.29800         5.07953
     2011.81656        -7.11933         5.16597
     2011.81930         0.97550         4.96364
     2011.82204        -0.27867         5.01635
     2011.82478        -5.59661         5.02679
     2011.82752        -4.90656         4.98259
     2011.83025        -5.93101         5.02103
     2011.83299        -3.63302         4.92659
     2011.83573        -1.08664         4.92983
     2011.83847         3.31986         5.07403
     2011.84120         1.68473         5.00883
     2011.84394        -0.31233         4.95610
     2011.84668        -9.88436         5.07670
     2011.84942        -7.39864         5.27520
     2011.85216        -1.71488         4.97730
     2011.85489        -7.53276         5.72188
     2011.85763         0.54705         5.02555
     2011.86037        11.26318         4.91983
     2011.86311         8.24118         4.99627
     2011.86585         2.12416         5.08538
     2011.86858         5.67849         5.08730
     2011.87132         8.31266         5.00761
     2011.87406        -2.16805         4.90573
     2011.87680         0.20965         4.99896
     2011.87953         5.69439         5.10634
     2011.88227        -7.58515         5.09144
     2011.88501       -12.73766         5.14096
     2011.88775       -14.50394         5.10982
     2011.90691         1.59430         5.08257
     2011.90965         4.18372         5.05934
     2011.91239         7.33605         5.17271
     2011.91513        -2.65691         5.20655
     2011.91786        -0.19528         5.34708
     2011.92060        -6.98831         5.17707
     2011.92334        -5.28113         5.06230
     2011.92608         1.78252         5.03930
     2011.92882         0.36271         5.06649
     2011.93155         0.50575         5.04021
     2011.93429        -2.26707         5.02956
     2011.93703        -5.01027         5.05945
     2011.93977        -3.82720         5.03102
     2011.94251         3.14519         5.03454
     2011.94524         2.00685         5.04944
     2011.94798         6.92662         5.03086
     2011.95072         0.50264         5.06029
     2011.95346         0.23976         5.15006
     2011.95619        -0.46446         5.27311
     2011.95893        -3.36504         4.99084
     2011.96167         1.12444         4.89626
     2011.96441         5.15844         4.97272
     2011.96715         3.79959         4.92161
     2011.96988         3.77217         4.94119
     2011.97262        -4.09276         5.11508
     2011.97536        -7.70413         4.96577
     2011.97810        -4.04881         5.08817
     2011.98084        -1.15233         4.88369
     2011.98357         1.00059         4.97492
     2011.98631         3.88621         4.88689
     2011.98905         2.47432         4.86607
     2011.99179        -3.17520         4.89512
     2011.99452         2.09644         4.89113
     2011.99726         6.01731         4.88831
     2012.00000         3.39391         4.88614
     2012.00274        -2.98516         4.87570
     2012.00548         4.98456         4.87994
     2012.00821        -2.48988         4.98084
     2012.01095        -2.36056         4.88510
     2012.01369         4.62133         4.87938
     2012.01643        -1.92144         4.94903
     2012.01916        -1.14512         4.96928
     2012.02190        -1.33132         4.86437
     2012.02464         4.35371         4.96407
     2012.02738        -1.36697         5.22680
     2014.29706         4.04923         5.19438
     2014.29979         0.51471         5.02490
     2014.30253         4.01307         5.06237
     2014.30527         3.09680         5.04977
     2014.30801         4.85362         5.07416
     2014.31075        -0.45097         5.06074
     2014.31348         0.76461         5.05831
     2014.31622         3.14700         5.04801
     2014.31896        -1.25840         5.05271
     2014.32170        -9.27549         5.18290
     2014.32444        -1.19159         5.18325
     2014.32717        -1.34454         5.17803
     2014.32991        -3.34305         5.04921
     2014.33265        -3.46661         5.18164
     2014.33539         2.09666         5.09626
     2014.33812         0.45712         5.18016
     2014.34086        -3.63018         5.08529
     2014.34360         0.72365         5.07942
     2014.34634        -4.18177         5.05230
     2014.34908        -0.68455         5.18017
     2014.35181        -0.50270         5.17463
     2014.35455        -6.09923         5.19880
     2014.35729        -6.95859         5.03810
     2014.36003       -10.58912         5.01502
     2014.36277        -5.69189         5.05878
     2014.36550        -7.79107         5.08079
     2014.36824        -5.36321         5.13689
     2014.37098        -2.32982         5.08682
     2014.37372        -1.99572         5.05408
     2014.37645        -7.61724         5.03890
     2014.37919        -7.22128         5.11806
     2014.38193        -4.26349         5.14881
     2014.38467        -5.14301         5.16385
     2014.38741        -0.97903         5.13899
     2014.39014        -5.96176         5.13148
     2014.39288        -4.62857         5.15573
     2014.39562         4.85802         5.16318
     2014.39836        -1.14278         5.14633
     2014.40110        -5.29357         5.16862
     2014.40383         0.37138         5.61618
     2014.40657        -5.78654         5.65751
     2014.40931         1.69029         5.23729
     2014.41205         1.44225         5.06645
     2014.41478        -1.65263         5.07692
     2014.41752        -3.53668         5.18648
     2014.42026        -6.89051         5.06186
     2014.42300        -0.76757         5.23716
     2014.42574        -9.22768         5.21105
     2014.43121        -7.42224         5.33053
     2014.43395         2.02571         5.23706
     2014.43669        -5.64609         5.17146
     2014.43943        -2.81084         5.11148
     2014.44216        -8.77840         5.07974
     2014.44490         1.08439         5.28791
     2014.44764        -4.11498         5.13010
     2014.45038        -1.52661         5.59568
     2014.45311        -9.11314         5.07299
     2014.45585        -4.79033         5.05846
     2014.45859         3.59773         5.06517
     2014.46133         0.76717         5.02960
     2014.46407        -6.78750         5.03042
     2014.46680        -3.28918         5.17604
     2014.46954        -5.08597         5.00684
     2014.47228        -1.78287         5.02925
     2014.47502        -0.80517         5.17330
     2014.47775         4.17231         5.03584
     2014.48049         8.59253         5.03404
     2014.48323         1.89453         5.04431
     2014.48597        -1.06958         5.14128
     2014.48871        -2.56533         5.09416
     2014.49144         5.74344         4.99135
     2014.49418         6.80373         4.99687
     2014.49692         4.40528         4.99508
     2014.49966        -4.20310         5.10776
     2014.50240        -8.14910         5.29467
     2014.50513         0.32266         5.06214
     2014.50787        -0.37345         4.96676
     2014.51061         0.12824         5.15653
     2014.51335        -2.45333         5.00591
     2014.51608         7.77445         5.37471
     2014.51882         3.08176         4.98361
     2014.52156         3.82036         5.20467
     2014.52430         3.10485         4.98469
     2014.52704         5.45537         5.09827
     2014.52977         0.19251         5.01914
     2014.53251         5.35795         5.00311
     2014.53525        12.36831         4.98711
     2014.53799         8.86890         4.98806
     2014.54073         5.25295         5.29247
     2014.54346        17.40668         5.47044
     2014.54620        12.56359         5.00735
     2014.54894         4.39258         4.97668
     2014.55168        11.23322         5.04513
     2014.55441         8.29615         5.00655
     2014.55715         7.37916         5.01422
     2014.55989         7.44875         4.99921
     2014.56263        11.81246         4.98895
     2014.56537         4.15697         4.98590
     2014.56810         2.59104         5.12075
     2014.57084         3.11723         5.09192
     2014.57358         4.88346         5.66620
     2016.56126        -0.02480         2.79132
     2016.56400         3.27842         2.77491
     2016.56674        -0.78871         2.85810
     2016.56947        -1.74159         3.07322
     2016.57221        -6.21304         2.78374
     2016.57495        -2.85607         2.84839
     2016.57769        -2.54995         2.85568
     2016.58042         0.82502         2.81377
     2016.58316         2.32371         2.79594
     2016.58590         2.36844         2.77973
     2016.58864        -0.00467         2.78419
     2016.59138        -1.11875         2.79549
     2016.59411        -0.57630         2.79092
     2016.59685         4.56869         2.78914
     2016.59959         0.58485         2.80102
     2016.60233         0.39019         3.07353
