# ================= DQRFIT RESULTS ================
# INPUT FILE: series/FOST.rad
# OUTPUT: LDETRENDED
# FILTER FUNCTION: f(t)
# f(t)=+line(t)
# line(t)=+P 1+P 2*t
# heav(t)=(t<0?0:1)
# TOTAL OBSERVATIONS MTOT=  189
# INITIAL TIME INTERVAL= 2018.6199 - 2006.4340 = 12.1859
# TOTAL OBSERVATIONS AFTER PREFILTER M=  188
# TIME-SPAN=    0.0000 -    0.0000 =  0.0000
# OBSERVATIONS: USED M=   188 REJECTED MTOT-M=     1 %USED=   99.4709
# N=  2 PARAMETERS
# MAXSIG= 175.00000
# MAXRES=  14.52743
# SCALE FACTOR FOR LENGTHS: SCL=  10.00000
# SCALE FACTOR FOR SIGMAS: SCLSIG=   1.00000
# CHI^2=    172.242 DOF=   186 CHI^2/DOF=   0.92603
# RMS=      5.698 SDEV=      5.713 MEAN=   -0.03807
#  P #       PARAMETER +-    SIGMA %error PARAMETER NAME
# P 1 =       710.72953 +-  240.306  33.81 YZERO                              
# P 2 =        -0.35086 +-    0.119  34.00 SLOPE                              
#       T            LDETRENDED       SIG_OBS
     2006.43395       -10.20740         5.73534
     2006.43669        -2.17544         5.64681
     2006.43943        -8.96147         5.84216
     2006.44217        -4.73651         5.77191
     2006.44491         3.21145         5.74882
     2006.44764        -3.67359         5.72668
     2006.45038        -0.99663         5.71995
     2006.45312        -6.00667         5.67087
     2006.45586        -5.59071         5.89990
     2006.45859         5.42425         5.88450
     2006.46133         5.63021         5.84890
     2006.46407         1.97117         5.82580
     2006.46681        -0.08587         5.88643
     2006.46955         1.28809         5.87680
     2006.47228         5.72405         5.86044
     2006.47502        -0.98699         5.95283
     2006.47776         0.98397         5.84890
     2006.48050        -5.36707         5.86237
     2006.48324        -9.31811         5.89605
     2006.48597        -2.07114         5.98747
     2011.72896         0.35241         5.71514
     2011.73170        -8.50063         5.78057
     2011.73443        -7.48167         5.65836
     2011.73717        -5.30870         5.61987
     2011.73991        -4.23774         5.66510
     2011.74265        -1.80278         5.64585
     2011.74538        -7.23382         5.84120
     2011.74812        -7.04186         5.79982
     2011.75086        -4.58790         5.79501
     2011.75360         0.64706         5.76518
     2011.75634        -4.87098         5.63334
     2011.75907        -7.45802         5.75459
     2011.76181        -7.06706         5.75748
     2011.76455        -6.75910         5.70648
     2011.76729       -11.37314         5.63334
     2011.77003        -4.82018         5.64008
     2011.77276        -6.67622         5.73534
     2011.77550       -14.07226         5.85275
     2011.77824       -12.83830         5.74208
     2011.78098        -6.21934         5.67472
     2011.78371        -4.41837         5.69493
     2011.78645        -4.58841         5.59004
     2011.78919        -3.99745         5.66895
     2011.79467        -8.25953         5.96726
     2011.80014        -0.09061         6.36469
     2011.81657        -6.84385         6.43783
     2011.82204        -6.24793         6.36854
     2014.04792        10.24005         5.55636
     2014.05065         6.20401         5.61024
     2014.05339         2.26897         5.57945
     2014.05613         0.81393         5.61602
     2014.05887         3.73189         5.59966
     2014.06161        11.90085         5.58234
     2014.06434         6.72281         5.79693
     2014.06708         6.66777         5.77384
     2014.06982         8.58673         5.66895
     2014.07256         5.53969         5.56020
     2014.07530         3.65965         5.61409
     2014.07803         4.91361         5.65547
     2014.08077         4.49057         5.65644
     2014.08351         7.31953         5.54096
     2014.08625         4.12549         5.60351
     2014.08898         3.00145         5.74497
     2014.09172         3.13142         5.74304
     2014.09446         5.90638         5.54096
     2014.09720         7.94934         5.63142
     2014.09994         8.07430         5.53903
     2014.10267        11.82626         5.68627
     2014.10541         4.53422         5.58330
     2014.10815         5.06218         5.67376
     2014.11363         3.82910         5.64104
     2014.11636         7.80606         5.68915
     2014.11910         0.58902         5.72957
     2014.12184         4.59198         5.75363
     2014.12458        11.64894         5.66028
     2014.12731         6.23490         5.69204
     2014.13005         7.15286         5.67568
     2014.13279         5.90882         5.86622
     2014.13553        -1.06722         5.78442
     2014.13827         2.41375         5.56887
     2014.14100        10.13271         5.56117
     2014.14374         7.62067         5.67279
     2014.14648         6.73363         5.74401
     2014.14922         3.77059         5.63623
     2014.15196         0.70855         5.72380
     2014.15469         4.52251         5.72091
     2014.15743         7.24047         5.72283
     2014.16017        14.52743         5.90663
     2014.16291         4.09839         5.79212
     2014.16564        -0.11765         5.69974
     2014.16838        -4.65669         5.95475
     2014.17112       -11.33673         5.94224
     2014.17386         1.75523         5.89990
     2014.17660        -1.31681         5.98362
     2014.17933         1.70815         6.32716
     2014.18207         6.12312         5.81714
     2014.18481         5.07208         5.73823
     2014.18755        -6.00996         5.89605
     2014.19029         4.73900         5.64681
     2014.19302         3.72596         5.68723
     2014.19576         3.31792         5.67953
     2014.19850         4.78688         5.76421
     2014.20124         3.32284         5.77287
     2014.20397        -2.15620         5.68819
     2014.20671         7.10676         5.72957
     2014.20945         7.38272         5.67279
     2014.21219         6.84068         5.65836
     2014.21493         6.43164         5.85948
     2014.21766         8.65660         5.69108
     2014.22040         7.40456         5.69397
     2014.22314         1.30952         5.65932
     2014.22588         2.10548         5.69108
     2014.22862         5.95845         5.75074
     2014.23135        -1.54559         5.81233
     2014.23409         5.87537         5.72380
     2014.23683         2.34833         5.67087
     2014.23957        -1.70271         5.88065
     2014.24230        -2.77975         5.75459
     2014.24504         1.89821         5.65355
     2014.24778         7.50917         5.75748
     2014.25052         4.57913         5.64585
     2014.25326         0.58109         5.64874
     2014.25599         3.24405         5.71321
     2014.25873        -2.89299         5.71032
     2014.26147         0.84497         5.91433
     2014.26421        -1.02007         5.67183
     2014.26695        -2.20111         5.68049
     2014.26968        -1.57015         5.73534
     2014.27242        -1.87018         5.82195
     2014.27516        -0.88222         5.89412
     2014.27790         3.82274         5.78442
     2014.28063         6.36370         5.66606
     2014.28337         2.20066         5.71417
     2014.28611         3.92162         5.88161
     2014.28885        -2.28142         5.86910
     2014.29159         3.32654         5.60736
     2014.29404        -0.57360         6.63895
     2018.48324        -9.23177         5.60640
     2018.48597        -3.00581         5.65259
     2018.48871        -2.72285         5.59196
     2018.49145        -5.54289         5.61024
     2018.49419        -0.60593         5.71514
     2018.49692        -3.31997         5.65162
     2018.49966         1.09899         5.62372
     2018.50240        -4.07605         5.71610
     2018.50514       -14.80709         5.70263
     2018.50788        -8.94713         5.70840
     2018.51061        -4.31217         5.71995
     2018.51335        -9.86621         5.66221
     2018.51609         5.04875         5.68915
     2018.51883        -8.05829         5.64296
     2018.52157        -4.77333         5.64585
     2018.52430        -4.93537         5.61121
     2018.52704        -1.36941         5.60832
     2018.52978        -6.01844         5.65162
     2018.53252        -2.62748         5.77287
     2018.53525        -0.51252         5.84216
     2018.53799        -2.59356         5.61602
     2018.54073        -0.36560         5.70166
     2018.54347        -3.65164         5.61698
     2018.54621        -6.31468         5.61891
     2018.54894       -13.28772         5.66317
     2018.55168        -5.06676         5.68434
     2018.55442        -6.83180         5.61987
     2018.55716        -3.46184         5.62468
     2018.55990        -6.10488         5.77576
     2018.56263         1.67308         5.76229
     2018.56537        -4.19096         5.61602
     2018.56811        -3.65500         5.66895
     2018.57085        -4.24704         5.57849
     2018.57358         1.66992         5.70359
     2018.57632        -8.75811         5.92396
     2018.57906        -3.16815         5.94416
     2018.58180         0.34881         5.74785
     2018.58454         9.88277         5.76903
     2018.58727         2.12373         5.57079
     2018.59001        -0.34231         5.59485
     2018.59275         2.50565         5.55058
     2018.59549         0.39061         5.57368
     2018.59823        -0.21443         5.52267
     2018.60096        -4.19647         5.54000
     2018.60370        -0.36751         5.55539
     2018.60644        -1.84255         5.59292
     2018.60918         2.13941         5.54769
     2018.61191         0.84637         5.50343
     2018.61465        -4.14167         5.62660
     2018.61739         0.18029         5.55058
     2018.61988         5.72617         6.13566
