# ================= DQRFIT RESULTS ================
# INPUT FILE: series/FOXR.rad
# OUTPUT: LDETRENDED
# FILTER FUNCTION: f(t)
# f(t)=+line(t)
# line(t)=+P 1+P 2*t
# heav(t)=(t<0?0:1)
# TOTAL OBSERVATIONS MTOT=  455
# INITIAL TIME INTERVAL= 2017.2129 - 2006.5161 = 10.6968
# TOTAL OBSERVATIONS AFTER PREFILTER M=  454
# TIME-SPAN=    0.0000 -    0.0000 =  0.0000
# OBSERVATIONS: USED M=   454 REJECTED MTOT-M=     1 %USED=   99.7802
# N=  2 PARAMETERS
# MAXSIG= 175.00000
# MAXRES=  16.46567
# SCALE FACTOR FOR LENGTHS: SCL=  10.00000
# SCALE FACTOR FOR SIGMAS: SCLSIG=   1.00000
# CHI^2=    526.361 DOF=   452 CHI^2/DOF=   1.16451
# RMS=      6.120 SDEV=      6.126 MEAN=    0.04542
#  P #       PARAMETER +-    SIGMA %error PARAMETER NAME
# P 1 =      2066.89531 +-  151.676   7.34 YZERO                              
# P 2 =        -1.02593 +-    0.075   7.34 SLOPE                              
#       T            LDETRENDED       SIG_OBS
     2006.51609        -5.54572         6.63555
     2006.51883         0.57209         6.62476
     2006.52157        -6.97010         6.53843
     2006.52430         4.25171         6.52980
     2006.52704         0.51352         6.70353
     2006.52978        -2.05167         6.64526
     2006.53252        -7.83286         6.60210
     2006.53525        -4.43205         6.60641
     2006.53799        -0.70225         6.59454
     2006.54073        -1.68744         6.62908
     2006.54347         1.42937         6.34095
     2006.54621        -2.28382         6.34634
     2006.54894        -1.36501         6.22224
     2006.55168        -6.22820         6.29347
     2006.55442        -5.51839         6.34095
     2006.55716        -1.66158         6.40354
     2006.55990        -5.83977         6.34311
     2007.02807        -0.67046         6.39706
     2007.03081        -1.17865         6.22009
     2007.03354        -6.12184         6.11109
     2007.03628        -4.09803         6.11109
     2007.03902        -7.07523         6.14455
     2007.04176        -6.06042         6.15426
     2007.04449        -5.75361         6.11433
     2007.04723       -10.43380         6.22548
     2007.04997        -5.50599         6.37008
     2007.05271        -1.75118         6.39490
     2007.05545        -3.17837         6.11757
     2007.05818        -6.15256         6.11541
     2007.06092        -5.87275         6.02908
     2007.06366        -6.98095         6.03448
     2007.06640        -6.92814         6.18016
     2007.06914        -2.62633         6.03771
     2007.07187         1.90748         6.07009
     2007.07461         1.46529         6.00102
     2007.07735        -1.93590         5.96110
     2007.08009        -3.04209         5.98699
     2007.08282        -2.58628         6.04203
     2007.08556        -2.62947         6.18555
     2007.08830        -2.76867         6.12944
     2007.09104        -1.65186         6.11002
     2007.09378        -4.88605         5.96757
     2007.09651        -6.71424         6.01829
     2007.09925        -5.59543         6.06685
     2007.10199        -6.44062         6.13268
     2007.10473        -7.57881         6.23304
     2007.10747        -9.75500         6.13591
     2007.11020       -10.91220         5.96541
     2007.11294        -5.46539         6.14994
     2007.11568        -5.24758         6.05282
     2007.11842        -2.24277         6.01074
     2007.12115        -5.84796         6.00102
     2007.12389        -4.23315         5.99887
     2007.12663        -1.02234         6.08520
     2007.12937         0.49247         6.16073
     2007.13211         0.11428         6.14563
     2007.13484        -4.43092         6.08735
     2007.13758        -0.54611         6.09922
     2007.14032       -11.92130         6.23735
     2007.14306         9.65651         6.13807
     2007.14562         0.45514         6.72728
     2007.60575         0.12221         6.19419
     2007.60849        -2.63198         6.23627
     2007.61123         6.11883         6.12728
     2007.61397        -4.53137         6.11865
     2007.61671         4.26244         6.61720
     2007.61944        -0.78575         6.53303
     2007.62218         3.63406         6.55569
     2007.62492         3.53787         6.37548
     2007.62766         2.58568         6.51793
     2007.63039         8.94149         6.93447
     2007.63313        -1.26470         6.62800
     2007.63587        -8.06089         6.42188
     2007.63861       -11.89109         6.38196
     2007.64135        -0.49228         6.20822
     2007.64408         5.69053         6.50390
     2007.64682         2.73534         6.42296
     2007.64956        -1.73985         6.65282
     2007.65230        -4.85104         6.66792
     2007.65504         3.90677         6.44778
     2007.65777        -0.37242         6.55893
     2007.66051         2.99238         6.55569
     2007.66325         5.57619         6.74778
     2007.66599         0.77700         6.58699
     2007.66872         0.19581         6.49203
     2007.67146        -1.79338         6.44670
     2007.67420         1.70643         6.56972
     2007.67694         7.71024         6.46721
     2007.67968         6.87805         6.45749
     2007.68241         6.19286         6.36901
     2007.68515         4.58766         6.57080
     2007.68789         3.67747         6.55569
     2007.69063         6.28828         6.38411
     2007.69337         2.77109         6.44886
     2007.69610         0.41990         6.41433
     2007.69884         1.60871         6.49958
     2007.70158         2.93352         6.53195
     2007.70432        11.26333         6.84922
     2007.70705         6.66614         6.42296
     2007.70979         8.45894         6.44454
     2007.71253         2.09875         6.37008
     2007.71527        11.62056         6.30642
     2007.71801         7.81737         6.21685
     2007.72074         4.08718         6.27188
     2007.72348         9.92999         6.35174
     2007.72622         9.40580         6.26433
     2007.72896         6.98061         6.22872
     2007.73170         4.61841         6.32908
     2008.53936        -7.46197         6.25354
     2008.54210        -7.70116         6.22656
     2008.54484        -2.68636         6.30210
     2008.54757        -3.26255         6.33016
     2008.55031         0.97126         6.20390
     2008.55305        -9.78893         6.33339
     2008.55579        -0.36912         6.31505
     2008.55853         2.19869         6.22872
     2008.56126        -2.26750         6.16613
     2008.56400        -2.88469         6.10354
     2008.56674         4.14012         6.21469
     2008.56948        -0.02808         6.18016
     2008.57222         5.03173         6.63879
     2009.51677        -5.35821         6.18555
     2009.51951         4.72160         6.14563
     2009.52225         0.04941         6.19635
     2009.52499         4.50621         6.24383
     2009.52773        -0.33798         6.27620
     2009.53046        -5.86217         6.12944
     2009.53320        -2.43036         6.10894
     2009.53594         0.13245         6.18771
     2009.53868        -0.10574         6.20282
     2009.54141         2.00307         6.18663
     2009.54415        -0.06512         6.16073
     2009.54689        -1.22231         6.18987
     2009.54963        -4.99651         6.14023
     2009.55237        -2.87370         6.14778
     2009.55510        -4.38789         6.16073
     2010.27242         3.23403         6.35498
     2010.27516        -0.11716         6.26325
     2010.27790         3.29365         6.30102
     2010.28063        -0.97254         6.17584
     2010.28337        -0.02073         6.34419
     2010.28611        -3.49292         6.38088
     2010.28885         2.44189         6.09814
     2010.29159        -2.18631         6.32368
     2010.29432         1.68650         6.32260
     2010.29706         1.26831         6.23951
     2010.29980         0.68512         6.31397
     2010.30254         1.92993         6.26325
     2010.30528         4.50674         6.32260
     2010.30801         1.48755         6.16721
     2010.31047        -2.64293         6.84814
     2011.15127        16.46567         5.90174
     2011.15401        15.01848         5.89095
     2011.15675        16.44829         5.91469
     2011.15948        14.16710         5.91793
     2011.16222         9.99991         5.93196
     2011.16496         5.20672         5.97512
     2011.16770         0.84453         6.06361
     2011.17044         1.01334         5.99023
     2011.17317         1.43115         6.00750
     2011.17591         0.08695         5.92441
     2011.17865        10.14476         5.98592
     2011.18139         9.84757         5.98376
     2011.18413         5.14038         5.92980
     2011.18686        10.20419         5.92333
     2011.18960         2.95100         5.96541
     2011.19234         5.79681         5.92764
     2011.19508         7.83962         6.00426
     2011.19781         1.12243         6.19527
     2011.20055         2.07723         6.00750
     2011.20329         1.03704         6.26217
     2011.20603         5.39085         6.04203
     2011.20877         4.61266         6.01829
     2011.21150         6.40447         6.02261
     2011.21424         5.36428         5.93843
     2011.21698         1.52409         6.12404
     2011.21972        11.98990         6.05606
     2011.22246         1.91070         5.96217
     2011.22793         8.48032         6.42296
     2011.23064         8.89310         6.96576
     2011.23619         5.71480         7.06396
     2011.24162        10.16837         7.03267
     2011.24436         8.10518         6.00426
     2012.47092        -5.29546         6.04851
     2012.47365        -0.87065         6.15750
     2012.47639         3.31716         6.23519
     2012.47913        -7.36103         6.07117
     2012.48187       -11.19222         6.09167
     2012.48460        -9.25941         6.07117
     2012.48734        -3.81060         5.99131
     2012.49008         6.59820         6.06253
     2012.49282        -5.03699         6.05822
     2012.49556        -6.94918         6.02584
     2012.49829        -5.58537         6.17153
     2012.50103        -1.65556         6.13052
     2012.50377       -13.95275         6.29455
     2012.50651        -5.26394         6.05822
     2012.50924       -13.96013         6.31505
     2012.51198        -5.36332         6.22764
     2012.51472        -5.34552         6.07764
     2012.51746        -9.88171         6.12404
     2012.52020        -4.69990         6.11217
     2012.52293        -0.52009         6.07764
     2012.52567        -0.21628         6.11649
     2012.52841        -4.68947         6.09383
     2012.53115        -5.98066         6.18771
     2012.53389        -5.50785         6.10894
     2012.53662        -5.85104         6.01721
     2012.53936        -6.97124         6.14994
     2012.54210         3.53157         6.12836
     2012.54484        -2.02762         6.01289
     2012.54757        -2.29081         6.03340
     2012.55031        -2.85500         5.96433
     2012.55305        -3.19919         6.05066
     2012.55579        -4.51338         6.09814
     2012.55853        -4.37157         6.36037
     2012.56126        -3.74876         6.12189
     2014.28885         8.12162         6.43591
     2014.29159        -0.28857         6.19311
     2014.29432        -1.19276         6.25462
     2014.29706         2.22105         6.30102
     2014.29980         1.75286         6.21253
     2014.30254         2.41667         6.20822
     2014.30528        -2.83352         6.29239
     2014.30801         2.66528         6.16829
     2014.31075         6.89709         6.22009
     2014.31349         4.49090         6.20282
     2014.31623         4.88871         6.22872
     2014.31896         7.55652         6.22440
     2014.32170         4.69633         6.34311
     2014.32444        -2.98186         6.33663
     2014.32718        -5.62505         6.34742
     2014.32992         3.29776         6.23196
     2014.33265        -0.43744         6.26433
     2014.33539         1.38837         6.22872
     2014.33813         5.51618         6.37656
     2014.34087         7.17199         6.27081
     2014.34361         8.11180         6.22332
     2014.34634         3.60261         6.21361
     2014.34908         6.86142         6.37872
     2014.35182        -0.06977         6.45965
     2014.35456         1.38704         6.24599
     2014.35729        -5.24416         6.22980
     2014.36003         1.49965         6.18340
     2014.36277        -1.69754         6.19635
     2014.36551        -2.01173         6.15318
     2014.36825        -2.00392         6.25462
     2014.37098        -0.30611         6.27836
     2014.37372         1.12170         6.30642
     2014.37646         8.28051         6.40570
     2014.37920         6.35531         6.29886
     2014.38193        -7.02088         6.34419
     2014.38467         1.32593         6.40462
     2014.38741         2.51974         6.42944
     2014.39015         3.73955         6.38196
     2014.39289         6.64836         6.33987
     2014.39562         2.41617         6.32800
     2014.39836         4.54998         6.46829
     2014.40110        -2.81921         6.36793
     2014.40384         1.60759         6.33124
     2014.40658         0.39540         6.32476
     2014.40931         1.78321         6.31721
     2014.41205        -4.07498         6.27512
     2014.41479         3.10883         6.26541
     2014.41753        -1.67036         6.20066
     2014.42026         7.52945         6.25462
     2014.42300        -0.23374         6.25678
     2014.42574        -1.20193         6.29455
     2014.42848         4.45587         6.27512
     2014.43122         0.96168         6.25678
     2014.43395         4.01149         6.21145
     2014.43669         0.63030         6.27512
     2014.43943         2.79711         6.39490
     2014.44217        -1.11908         6.30210
     2014.44491         6.25073         6.40138
     2014.44764         9.18854         6.42188
     2014.45038         1.50334         6.24059
     2014.45312         2.77715         6.22440
     2014.45586         1.24596         6.37440
     2014.45859        -0.16123         6.24922
     2014.46133         2.63058         6.20822
     2014.46407         0.39539         6.22548
     2014.46681         0.03720         6.33447
     2014.46955         0.30501         6.26433
     2014.47228         3.10182         6.26973
     2014.47502         1.66762         6.28052
     2014.47776         7.27043         6.28375
     2014.48050         3.08324         6.21901
     2014.48324         4.92505         6.28375
     2014.48597         6.18086         6.35606
     2014.48871        13.83567         6.33232
     2014.49145         6.64448         6.17045
     2014.49419         3.24929         6.12404
     2016.37783        -3.79422         5.97836
     2016.38057         3.72259         6.24383
     2016.38330         8.52240         5.99887
     2016.38604         6.70221         5.92656
     2016.38878         9.02001         5.93520
     2016.39152         3.18882         5.92872
     2016.39426         1.31663         5.99131
     2016.39699         6.58644         5.96649
     2016.39973         7.27925         5.95246
     2016.40247         1.14806         6.04958
     2016.40521        -1.00413         5.90606
     2016.40794        -0.12332         5.98484
     2016.41068        -4.00251         6.01829
     2016.41342        -1.94871         5.95462
     2016.41616        -2.47590         6.00750
     2016.41890        -0.15609         6.06793
     2016.42163         3.60872         6.04635
     2016.42437        -6.51847         5.98699
     2016.42711         4.10034         6.11649
     2016.42985         2.01615         5.99023
     2016.43259        -4.59204         6.00642
     2016.43532         4.04476         6.02584
     2016.43806        -4.01043         5.99887
     2016.44080        -3.42862         6.08412
     2016.44354         0.61219         6.06469
     2016.44627         0.26600         5.97405
     2016.44901         8.24281         5.98376
     2016.45175         9.81162         6.11325
     2016.45449        -3.85157         6.03016
     2016.45723        -0.68376         6.00318
     2016.45996         7.93404         5.98052
     2016.46270        12.03685         6.29455
     2016.46544         2.16566         6.00210
     2016.46818         8.35847         5.93088
     2016.47092         5.12228         5.97297
     2016.47365         4.83209         6.01613
     2016.47639         5.09590         6.05498
     2016.47913         8.59771         6.22224
     2016.48187         4.40052         5.94707
     2016.48460         5.33332         5.93520
     2016.48734        -1.68087         5.96865
     2016.49008         8.36394         6.01181
     2016.49282         2.92475         6.07440
     2016.49556         2.65056         6.06253
     2016.49829        -0.84563         6.04203
     2016.50103         1.04118         5.99347
     2016.50377         5.76599         6.18987
     2016.50651        16.02779         6.23519
     2016.50924         7.04660         6.11433
     2016.51198        -0.69559         6.04419
     2016.51472         7.74122         5.99994
     2016.51746         8.57203         6.13807
     2016.52020         3.15884         6.05390
     2016.52293        13.18465         6.19203
     2016.52567         6.94446         5.99023
     2016.52841        10.05727         5.99239
     2016.53115         7.07607         6.00750
     2016.53389         6.31088         5.95462
     2016.53662         8.19169         5.99563
     2016.53936        14.74850         6.00318
     2016.54210        12.38831         6.06901
     2016.54484         7.58712         5.99023
     2016.54757        10.79893         5.97620
     2016.55031        11.98874         6.14239
     2016.92266         0.16274         5.95354
     2016.92540         2.44955         5.94167
     2016.92814        -0.17164         5.99887
     2016.93087         0.14117         5.97728
     2016.93361         2.99298         5.94923
     2016.93635         5.38479         5.94815
     2016.93909        -2.48341         6.12296
     2016.94183        -3.73760         6.02800
     2016.94456        -2.75779         6.00858
     2016.94730         2.13002         6.07548
     2016.95004         3.08783         6.09707
     2016.95278        -0.74636         6.07980
     2016.95551        -7.69555         6.10354
     2016.95825         3.33126         5.99455
     2016.96099         3.89206         5.98484
     2016.96373        -1.76213         5.96433
     2016.96647        -1.14132         5.92872
     2016.96920         4.75349         6.02800
     2016.97194        -1.05970         5.97836
     2016.97468         3.96811         5.93520
     2016.97742         5.71092         6.01181
     2016.98016         3.87073         5.93843
     2016.98289         3.99854         5.94923
     2016.98563         2.25734         5.96110
     2016.98837         4.13315         5.96433
     2016.99111         1.26996         5.94815
     2016.99384         1.74577         5.97189
     2016.99658         5.29558         5.95786
     2016.99932         3.46039         5.99023
     2017.00206         3.33520         5.98915
     2017.00480         3.13801         5.96325
     2017.00753        -4.75618         5.94923
     2017.01027       -22.01138         6.07225
     2017.01301         4.29943         5.95786
     2017.04039        -1.02548         5.98160
     2017.04313         2.20833         5.99563
     2017.04586         5.75214         6.18663
     2017.04860         9.09495         6.35498
     2017.05134         1.79776         6.01505
     2017.05408         6.37757         6.03448
     2017.05955        -5.71482         6.01289
     2017.06229         0.49799         5.95894
     2017.06503        -5.00420         5.96541
     2017.06777        -3.54539         6.03016
     2017.07050        -3.85858         5.96541
     2017.07324        -6.88277         6.00750
     2017.07598       -10.79596         5.95246
     2017.07872        -8.92115         5.94923
     2017.08146        -6.73935         5.98052
     2017.08419        -9.87854         5.99347
     2017.08693       -12.45973         6.00750
     2017.08967        -7.07892         5.99239
     2017.09241        -8.36711         6.03556
     2017.09515        -5.65930         6.06145
     2017.09788         2.11151         6.03879
     2017.10062       -11.23268         6.18340
     2017.10336        -9.60987         6.13807
     2017.10610        -4.66507         6.04311
     2017.10883       -19.08026         6.26217
     2017.11157        -6.28045         6.19095
     2017.11431        -6.41964         6.03340
     2017.11705       -11.60683         6.04203
     2017.11979       -11.97002         6.03124
     2017.12252        -8.05721         5.96757
     2017.12526        -4.98540         5.97836
     2017.12800        -3.43959         6.16613
     2017.13074        -2.96279         6.04203
     2017.13347        -0.60198         5.97620
     2017.13621        -2.81617         6.04743
     2017.13895       -13.87936         5.98376
     2017.14169       -13.69655         6.02692
     2017.14443       -10.39974         6.02153
     2017.14716        -8.49293         6.00318
     2017.14990        -6.92912         5.97944
     2017.15264         0.62768         5.96973
     2017.15538        -5.19751         5.95246
     2017.15812        -5.97070         6.12512
     2017.16085        -0.57289         6.01397
     2017.16359        -7.60908         5.96002
     2017.16633        -9.15927         5.94923
     2017.16907       -10.88746         5.96433
     2017.17180        -7.95565         6.06577
     2017.17454       -15.71784         6.16721
     2017.17728        -7.07904         6.08627
     2017.18002        -8.38023         6.00426
     2017.18276       -11.29342         6.06469
     2017.18549       -10.93761         5.98592
     2017.18823       -16.32680         5.99994
     2017.19097       -11.58499         5.98592
     2017.19371        -8.64018         5.98160
     2017.19645        -7.88737         5.94167
     2017.19918        -7.82456         5.98915
     2017.20192        -4.14776         6.05822
     2017.20466        -9.88595         6.20822
     2017.20740        -9.34314         6.00858
     2017.21013        -8.08733         6.01181
     2017.21287        -6.35852         6.03124
