# ================= DQRFIT RESULTS ================
# INPUT FILE: series/FRFX.rad
# OUTPUT: LDETRENDED
# FILTER FUNCTION: f(t)
# f(t)=+line(t)+annual(t)
# line(t)=+P 1+P 2*t
# annual(t)=+P 3*sin(2*pi*t+P 4)
# heav(t)=(t<0?0:1)
# TOTAL OBSERVATIONS MTOT= 1413
# INITIAL TIME INTERVAL= 2016.8920 - 2012.6899 =  4.2021
# TOTAL OBSERVATIONS AFTER PREFILTER M= 1412
# TIME-SPAN= 2016.8920 - 2012.6899 =  4.2021
# OBSERVATIONS: USED M=  1412 REJECTED MTOT-M=     1 %USED=   99.9292
# N=  4 PARAMETERS
# MAXSIG= 175.00000
# MAXRES=  31.03883
# SCALE FACTOR FOR LENGTHS: SCL=  10.00000
# SCALE FACTOR FOR SIGMAS: SCLSIG=   1.00000
# CHI^2=   1017.233 DOF=  1408 CHI^2/DOF=   0.72247
# RMS=      4.750 SDEV=      4.751 MEAN=    0.08512
#  P #       PARAMETER +-    SIGMA %error PARAMETER NAME
# P 1 =      3144.77652 +-  205.473   6.53 YZERO                              
# P 2 =        -1.56021 +-    0.102   6.54 SLOPE                              
# P 3 =         6.50742 +-    0.170   2.62 ANNUAL AMPLITUDE                   
# P 4 =        -2.96910 +-    0.036   1.23 ANNUAL PHASE                       
#       T            LDETRENDED       SIG_OBS
     2012.68993        14.50008         4.63834
     2012.69267         8.96335         4.73354
     2012.69541         5.59362         4.64939
     2012.69815         8.10590         4.62814
     2012.70089         5.74917         4.62814
     2012.70362         5.38244         4.62219
     2012.70636         8.50371         4.55589
     2012.70910         6.35098         4.57714
     2012.71184         9.19225         4.54569
     2012.71457        11.11052         4.55844
     2012.71731        12.09380         4.52274
     2012.72005        11.39807         4.51509
     2012.72279         9.03434         4.52954
     2012.72553         9.42761         4.54654
     2012.72826        10.62688         4.58139
     2012.73100         8.74815         4.62899
     2012.73374         8.65443         4.64684
     2012.73574         7.56654         6.56100
     2012.78939        14.93025         8.74205
     2012.79123        11.61713         4.88569
     2012.79397        10.11440         4.61624
     2012.79671         7.30967         4.60519
     2012.79945         4.96995         4.68424
     2012.80219        10.35322         4.67659
     2012.80492         7.32149         4.67574
     2012.80766         6.52476         4.65194
     2012.81040         1.03703         4.64344
     2012.81314        -0.38370         4.59754
     2012.81587        -0.79742         4.64514
     2012.81861         4.20185         4.74544
     2012.82135         8.64112         4.72334
     2012.82409         8.82139         4.80154
     2012.82683         7.59466         4.68849
     2012.82956         1.98993         4.64089
     2012.83230         2.81420         4.62814
     2012.83504         3.17848         4.67659
     2012.83778         4.34275         4.68424
     2012.84052         7.21402         4.68254
     2012.84325         0.97629         4.65959
     2012.84599         5.61856         4.83724
     2012.84873         3.00383         4.68679
     2012.85147         5.09011         4.68169
     2012.85420         2.46238         4.63494
     2012.85694         1.84165         4.65279
     2012.85968         1.56292         4.64769
     2012.86242         0.41019         4.63069
     2012.86516         6.29446         4.64429
     2012.86789         1.63774         4.82024
     2012.87063         0.66601         4.64174
     2012.87337        -3.22272         4.67319
     2012.87611         7.55755         4.62899
     2012.87885         9.35682         4.58734
     2012.88158         0.35609         4.58224
     2012.88432         5.53037         4.58139
     2012.88706         3.77264         4.73014
     2012.88980         5.55491         4.71059
     2012.89225         3.71374         5.22908
     2012.89527        -0.76155         4.59499
     2012.89801         0.86172         4.57459
     2012.90075         0.55400         4.57629
     2012.90349        -1.02873         4.62729
     2012.90622         7.58454         4.59414
     2012.90896         5.76881         4.68084
     2012.91170         4.25408         4.66894
     2012.91444         0.65035         4.58054
     2012.91718         9.22863         4.57629
     2012.91991         6.58490         4.54399
     2012.92265         0.89317         4.55504
     2012.92539         0.90144         4.58904
     2012.92813        -1.30029         4.56609
     2012.93086        -2.45902         4.67659
     2012.93360         3.54726         4.66469
     2012.93634         4.58553         4.51254
     2012.93908        -2.29420         4.56694
     2012.94182         0.37607         4.54229
     2012.94455        10.22834         4.56864
     2012.94729         3.86961         4.62389
     2012.95003         2.37288         4.62389
     2012.95277         5.14616         4.50829
     2012.95551         8.94443         4.49895
     2012.95824         9.48570         4.54484
     2012.96098        10.13097         4.61029
     2012.96372         8.97324         4.63919
     2012.96646         8.07051         4.50235
     2012.96919         4.64879         4.59244
     2012.97193         0.61206         4.62814
     2012.97467         6.63133         4.52529
     2012.97741         3.53160         4.51169
     2012.98015        -3.17313         4.50914
     2012.98288        -7.96286         4.50744
     2012.98562         2.33442         4.50999
     2012.98836         1.45969         4.50744
     2012.99110        -4.18004         4.49810
     2012.99384        -0.37177         4.51254
     2012.99657        -4.40950         4.50575
     2012.99931         1.98677         4.51679
     2013.00205         1.50805         4.53124
     2013.00473        -0.47577         4.58224
     2013.00741        -4.70259         4.68339
     2013.01026        -0.40614         4.56949
     2013.01300        -0.44287         4.54654
     2013.01574        -0.11660         4.55164
     2013.01848        -1.50132         4.59159
     2013.02121        -1.05705         4.57034
     2013.02395        -8.19678         4.64344
     2013.02669        -7.37051         4.63749
     2013.02943        -7.48624         4.56099
     2013.03216        -4.52897         4.59159
     2013.03490        -6.25469         4.58734
     2013.03764        -6.71542         4.55589
     2013.04038       -11.17415         4.52529
     2013.04312       -11.50988         4.62644
     2013.04585        -6.37361         4.65194
     2013.04854        -9.19343         4.77859
     2013.05133        -7.77506         4.57884
     2013.05407        -5.24279         4.54824
     2013.05681        -2.89752         4.55674
     2013.05954        -3.73925         4.59584
     2013.06228        -6.97598         4.71824
     2013.06502        -2.74071         4.71569
     2013.06776        -5.16144         4.66469
     2013.07049        -0.17516         4.58989
     2013.07323        -1.43189         4.55504
     2013.07557        -6.20624         5.46707
     2013.09622        -5.50503        11.31409
     2013.09787        -3.32645         4.77944
     2013.10061        -1.09618         4.81089
     2013.10335        -5.24890         4.57289
     2013.10609        -4.33463         4.56864
     2013.10882        -5.35136         4.57969
     2013.11156       -11.73009         4.66299
     2013.11430        -8.38182         4.56184
     2013.11704        -8.08655         4.60094
     2013.11978        -5.56527         4.70974
     2013.12251       -12.40300         4.58479
     2013.12525       -11.73573         4.59159
     2013.12799        -8.11446         4.63834
     2013.13073        -3.98819         4.58394
     2013.13347        -2.95792         4.57969
     2013.13620        -0.27364         4.57374
     2013.13894        -1.26237         4.57884
     2013.14168         0.30190         4.62814
     2013.14442         0.76517         4.68934
     2013.14715         3.43144         4.71059
     2013.14989        -7.49129         4.56354
     2013.15263        -5.09201         4.56864
     2013.15537       -15.08374         4.54314
     2013.15811       -11.65747         4.58139
     2013.16084       -10.69620         4.57459
     2013.16358       -12.48393         4.57629
     2013.16632        -6.10766         4.55929
     2013.16906        -6.93438         4.56184
     2013.17180        -6.77611         4.54909
     2013.17453        -6.82884         4.55164
     2013.17727        -6.31857         4.67064
     2013.18001        -9.74430         4.68679
     2013.18383        -2.79934        10.62135
     2013.18548        -8.90276         4.55334
     2013.18822        -9.05248         4.57884
     2013.19096       -10.64021         4.54484
     2013.19370        -2.98394         4.56779
     2013.19644        -9.95867         4.57034
     2013.19917        -7.13740         4.61029
     2013.20191        -4.18613         4.60434
     2013.20465        -1.23985         4.57884
     2013.20739        -1.80958         4.55674
     2013.21013        -3.06631         4.57374
     2013.21286        -7.58004         4.51849
     2013.21560        -2.32277         4.55504
     2013.21834        -4.34550         4.54654
     2013.22108        -4.40122         4.50914
     2013.22381        -6.42895         4.50999
     2013.22655        -9.72068         4.53974
     2013.22929        -7.58841         4.52784
     2013.23203        -6.84814         4.51594
     2013.23477        -8.04487         4.51934
     2013.23750        -6.67759         4.64089
     2013.24024        -9.79532         4.65194
     2013.24298        -5.05705         4.63749
     2013.24572         0.91222         4.61029
     2013.24846        -1.18151         4.59754
     2013.25119        -4.14324         4.62644
     2013.25393        -3.51796         4.63069
     2013.25667        -3.21469         4.80664
     2013.25941         0.61258         4.65109
     2013.29330        -2.98055         8.85849
     2013.29500        -9.37689         4.62134
     2013.29774       -10.91062         4.62559
     2013.30047        -7.69535         4.60859
     2013.30321       -10.24508         4.63239
     2013.30595       -11.75280         4.63239
     2013.30869       -13.09353         4.62899
     2013.31143       -13.09826         4.59414
     2013.31416        -6.81199         4.62219
     2013.31690        -8.04772         4.58989
     2013.31964        -7.04545         4.63154
     2013.32238        -2.20217         4.61029
     2013.32512        -4.85390         4.62814
     2013.32785        -5.40463         4.61539
     2013.33059       -11.74836         4.58139
     2013.33333       -13.17309         4.62219
     2013.33607       -12.04282         4.61284
     2013.33880        -6.72054         4.74459
     2013.34154         0.96473         4.64089
     2013.34388        -6.64162         5.69657
     2013.34702        -5.84573         4.63494
     2013.34976       -13.20046         4.60689
     2013.35249       -15.78219         4.57969
     2013.35523        -9.27891         4.70549
     2013.35797       -10.15664         4.64599
     2013.36071        -4.65037         4.65194
     2013.36344        -1.53810         4.69359
     2013.36618        -5.28883         4.60349
     2013.36892        -1.62956         4.62219
     2013.37166        -4.38328         4.62899
     2013.37440        -9.14501         4.62474
     2013.37713        -7.46474         4.63324
     2013.37987        -8.77847         4.61454
     2013.38261        -7.65820         4.58394
     2013.38535        -7.54893         4.67064
     2013.38809        -5.04665         4.58309
     2013.39082        -8.75638         4.57884
     2013.39356        -6.41911         4.59924
     2013.39630        -2.10984         4.60519
     2013.39904        -4.57157         4.59414
     2013.40177        -6.41930         4.60519
     2013.40451        -6.88503         4.59244
     2013.40725        -3.53275         4.61709
     2013.40999        -0.35548         4.60179
     2013.41273        -4.55621         4.62304
     2013.41546        -8.44994         4.77264
     2013.41820        -9.32367         4.56949
     2013.42094        -1.23340         4.62134
     2013.42368        -6.31512         4.62729
     2013.42642        -2.93385         4.62219
     2013.42915         1.72642         4.67064
     2013.43189        -0.59731         4.62814
     2013.43463        -4.30504         4.59329
     2013.43737        -4.70677         4.61369
     2013.44010        -1.85549         4.61624
     2013.44284        -0.15222         4.67404
     2013.44558        -4.80195         4.74289
     2013.44820       -11.24486         4.82959
     2013.45462        -2.91085         6.91714
     2013.45653        -4.54186         4.60689
     2013.45927        -4.37659         4.66894
     2013.46201        -2.03132         4.65194
     2013.46475        -3.13805         4.60179
     2013.46748        -4.95378         4.61114
     2013.47022        -6.18851         4.59584
     2013.47296        -4.12823         4.54994
     2013.47570        -6.26196         4.56269
     2013.47843        -0.23569         4.64089
     2013.48117        -3.42042         4.70039
     2013.48391        -1.81315         4.63834
     2013.48665        -4.14888         4.56524
     2013.48939        -5.26260         4.57969
     2013.49212        -4.88133         4.76074
     2013.49486         0.46094         4.60519
     2013.49760         4.12921         4.61879
     2013.50034        -2.81652         4.58139
     2013.50308        -2.33125         4.52444
     2013.50581        -0.71997         4.56099
     2013.50855        -0.74670         4.52444
     2013.51129        -0.17343         4.54144
     2013.51403        -3.45716         4.53464
     2013.51676         1.01011         4.52784
     2013.51950         1.09238         4.54654
     2013.52224         6.34965         4.56184
     2013.52498        -1.33507         4.67404
     2013.52772        -0.28080         4.58224
     2013.53045        -5.44453         4.53464
     2013.53319        -4.51426         4.54314
     2013.53593         2.64501         4.57544
     2013.53867         4.61628         4.67064
     2013.54141         2.79756         4.64939
     2013.54414        -0.67917         4.56099
     2013.54688        -5.14690         4.53124
     2013.54962         3.58537         4.54824
     2013.55236         0.33364         4.54824
     2013.55509        -2.00809         4.56779
     2013.55783         1.41719         4.55674
     2013.56057        -1.56054         4.63919
     2013.56331         3.76073         4.65874
     2013.56605         0.17500         4.61454
     2013.56878         1.79827         4.56354
     2013.57152         0.36554         4.56014
     2013.57426         6.48582         4.54824
     2013.57700         2.70409         4.56609
     2013.57974         0.93536         4.61624
     2013.58247         4.77063         4.55844
     2013.58521         2.65290         4.58819
     2013.58795         0.09117         4.56609
     2013.59069         4.23545         4.55844
     2013.59342         3.27572         4.59329
     2013.59616         5.37999         4.57969
     2013.59890         5.38926         4.60774
     2013.60164         3.99853         4.58309
     2013.60438         2.19080         4.58054
     2013.60689         4.95872         4.91034
     2013.60985        11.57135         4.62644
     2013.61218         2.19498         5.29708
     2013.61641        11.29858        12.14282
     2013.61807         6.54516         4.70294
     2013.62080         0.00943         4.58989
     2013.62354         5.29971         4.69274
     2013.62628         7.81498         4.65534
     2013.62902         5.08025         4.54144
     2013.63175         2.69352         4.57629
     2013.63449         6.08479         4.66894
     2013.63723         6.25506         4.56014
     2013.63997        12.80633         4.60264
     2013.64271         8.09461         4.62814
     2013.64544         6.71588         4.59669
     2013.64818         5.94115         4.60519
     2013.65092        12.22242         4.59159
     2013.65366        10.29169         4.63749
     2013.65639         6.69096         4.62899
     2013.65913         4.73424         4.72844
     2013.66187         1.76851         4.76329
     2013.66461         4.27178         4.60179
     2013.66735        10.33105         4.65704
     2013.67008         5.93932         4.58564
     2013.67282         5.84559         4.75989
     2013.67556         7.50587         4.76924
     2013.67830        10.47814         4.67064
     2013.68104         6.92241         4.61114
     2013.68377         5.32268         4.56694
     2013.68651         5.03795         4.55249
     2013.68925         9.99322         4.61539
     2013.69199        10.99250         4.62474
     2013.69472        13.19477         4.56949
     2013.69746         7.04504         4.57629
     2013.70020         8.75631         4.58054
     2013.70294        13.10558         4.54909
     2013.70568         9.13285         4.60264
     2013.70841         4.15513         4.68254
     2013.71115         6.31440         4.56014
     2013.71389         4.93467         4.59584
     2013.71663         7.49894         4.65279
     2013.71937         8.02621         4.58989
     2013.72210        12.79448         4.61114
     2013.72484        17.89276         4.65364
     2013.72758         6.68103         4.75564
     2013.73032         7.81330         4.55249
     2013.73305         9.24357         4.54314
     2013.73579         1.68084         4.98173
     2013.73853         6.26311         4.57204
     2013.74127         8.95339         4.59839
     2013.74401        15.47266         4.64769
     2013.74674         7.93493         4.70804
     2013.74948         2.46920         4.64939
     2013.75222         2.98347         4.56184
     2013.75496        -2.96326         4.64174
     2013.75770        -3.80699         4.53974
     2013.76043        -2.68471         4.56779
     2013.76317         3.00556         4.58309
     2013.76591        11.84083         4.81429
     2013.76865         4.49110         4.58224
     2013.77138        -1.35563         4.57119
     2013.77412         5.61764         4.66044
     2013.77686         1.90592         4.58734
     2013.77960         0.23019         4.59584
     2013.78234        -4.00254         4.58309
     2013.78507        -4.47527         4.57289
     2013.78781        -5.28700         4.56354
     2013.79055         1.00427         4.63494
     2013.79329        -1.37345         4.57034
     2013.79603         0.29082         4.55419
     2013.79876        -0.01591         4.55759
     2013.80150         5.27336         4.62729
     2013.80424         3.89563         4.63579
     2013.80698         4.14490         4.59499
     2013.80971         6.29418         4.55844
     2013.81245         7.24445         4.54824
     2013.81519         1.59572         4.54144
     2013.81793        -1.53701         4.55674
     2013.82067         0.98126         4.57289
     2013.82340         5.84053         4.58224
     2013.82614         6.66981         4.63494
     2013.82888         4.15808         4.57034
     2013.83162         3.61835         4.58224
     2013.83436         1.15762         4.68169
     2013.83709         3.72789         4.68424
     2013.83983         6.83116         4.61879
     2013.84257         2.71144         4.56524
     2013.84531         2.20071         4.65704
     2013.84804         1.23998         4.56524
     2013.85078        -0.95675         4.62559
     2013.85352         6.49652         4.54824
     2013.85626        -0.37021         4.56524
     2013.85900         1.83307         4.51339
     2013.86173         0.61234         4.57714
     2013.86447        -5.07539         4.64004
     2013.86721         0.79388         4.58054
     2013.86995        -0.25885         4.54144
     2013.87269         5.50342         4.54824
     2013.87542        10.67969         4.59499
     2013.87816         7.42597         4.59074
     2013.88090        13.09024         4.73184
     2013.88364        11.85851         4.84829
     2013.88637         1.06078         4.52614
     2013.88911        -3.57495         4.53464
     2013.89185        -8.30068         4.54909
     2013.89459        -4.91140         4.57119
     2013.89733         1.09887         4.56524
     2013.89972        -0.55239         5.46537
     2014.02159         4.33874        11.29284
     2014.02287        10.85374         8.11391
     2014.07636         8.04719        10.76925
     2014.07802         1.10080         4.58819
     2014.08076         5.35807         4.55334
     2014.08350         0.81034         4.56694
     2014.08624        -8.74139         4.61794
     2014.08898        -3.13012         4.71399
     2014.09171        -2.71385         4.75139
     2014.09445        -6.08957         4.58564
     2014.09719       -10.67930         4.63324
     2014.09993         1.12597         4.58309
     2014.10266        -3.56776         4.62899
     2014.10540         0.07451         4.54144
     2014.10814        -4.25622         4.56779
     2014.11088        -3.32895         4.69104
     2014.11362         3.28433         4.59329
     2014.11635        -1.09640         4.56269
     2014.11909        -2.42013         4.58479
     2014.12183        -3.28786         4.66639
     2014.12457         4.40041         4.56609
     2014.12605        20.39073        17.59629
     2014.13033         6.36340         5.42542
     2014.13278        -4.14477         4.74374
     2014.13552         3.50650         4.70889
     2014.13826         1.01877         4.59584
     2014.14099         2.06804         4.57034
     2014.14373        -5.00469         4.59159
     2014.14647        -5.35441         4.64939
     2014.14921        -2.61214         4.61029
     2014.15195        -2.06487         4.62219
     2014.15468         1.72340         4.65364
     2014.15742         3.93267         4.63919
     2014.16016         3.60194         4.76669
     2014.16290         0.23822         4.67574
     2014.16564        -2.74051         4.61624
     2014.16837        -2.89424         4.79049
     2014.17111        -1.38897         4.71569
     2014.17385        -5.33970         4.79814
     2014.17659        -0.52143         4.68339
     2014.17932         2.55485         4.86614
     2014.18206        -1.55688         4.75734
     2014.18480         0.19039         4.57629
     2014.18754         1.37766         4.59839
     2014.19028        -1.09207         4.62899
     2014.19301        -3.97280         4.65449
     2014.19575        -1.99152         4.61454
     2014.19849        -3.37525         4.68169
     2014.20123        -3.15598         4.64429
     2014.20397       -10.44871         4.63239
     2014.20670       -21.97044         4.64514
     2014.20944       -20.73617         4.62644
     2014.21218        -7.72690         4.63239
     2014.21492        -2.76362         4.71824
     2014.21765        -3.62935         4.58394
     2014.22039        -4.79608         4.63579
     2014.22313        -1.37581         4.62729
     2014.22587        -3.26954         4.59244
     2014.22861        -3.50827         4.65279
     2014.23134         2.93001         4.60689
     2014.23408         2.15428         4.57969
     2014.23682        -4.64645         4.63664
     2014.23956        -4.40318         4.77094
     2014.24230        -4.41991         4.61624
     2014.24503        -6.59864         4.58989
     2014.24777         0.72364         4.77774
     2014.25051        -5.70909         4.62899
     2014.25325        -6.96582         4.63409
     2014.25598        -4.07155         4.76329
     2014.25872        -4.69328         4.59499
     2014.26146        -2.76101         4.69784
     2014.26420        -8.68173         4.61539
     2014.26694        -5.97946         4.62814
     2014.26967        -4.60419         4.68764
     2014.27241        -6.08492         4.70719
     2014.27515        -7.34765         4.68764
     2014.27789        -6.64738         4.61114
     2014.28062        -2.06110         4.63494
     2014.28336        -4.85783         4.63494
     2014.28610        -0.10856         4.73099
     2014.28884        -5.01029         4.80324
     2014.29158        -8.14802         4.61114
     2014.29431         0.83525         4.65874
     2014.29705        -1.84347         4.71314
     2014.29979        -4.73520         4.63749
     2014.30253        -8.67993         4.65279
     2014.30527        -2.90966         4.57884
     2014.30800        -2.21139         4.61539
     2014.31074        -4.78612         4.74714
     2014.31348        -3.04284         4.61199
     2014.31622        -0.37857         4.56099
     2014.31895        -1.77230         4.57374
     2014.32169       -18.97303         4.67149
     2014.32443       -11.54276         4.72589
     2014.32717        -8.59849         4.70039
     2014.32991        -5.68222         4.60094
     2014.33264        -5.04194         4.60179
     2014.33538        -6.85867         4.61454
     2014.33812        -4.26940         4.73099
     2014.34086        -2.06613         4.64004
     2014.34360        -2.50486         4.59584
     2014.34633        -7.14759         4.56609
     2014.34907        -9.16831         4.71569
     2014.35181        -3.65504         4.73014
     2014.35455        -4.04777         4.61284
     2014.35728        -6.01150         4.61199
     2014.36002        -9.51523         4.62729
     2014.36276       -11.55696         4.58564
     2014.36550        -4.09468         4.61199
     2014.36824        -6.09641         4.67574
     2014.37097        -7.12314         4.66299
     2014.37371        -4.54787         4.58564
     2014.37645        -6.27760         4.61454
     2014.37919         0.44867         4.62304
     2014.38193        -6.41405         4.63664
     2014.38466        -6.36878         4.68934
     2014.38740        -3.29551         4.65959
     2014.39014        -1.95624         4.71399
     2014.39288        -5.51897         4.70889
     2014.39561        -4.49770         4.64939
     2014.39835         0.60158         4.73184
     2014.40109        -3.52115         4.66809
     2014.40383        -4.70988         4.68934
     2014.40657        -5.96461         4.64684
     2014.40930        -8.77034         4.66384
     2014.41204        -7.91407         4.57629
     2014.41478        -4.13479         4.62304
     2014.41752        -2.85652         4.57799
     2014.42026        -3.29625         4.56779
     2014.42299        -2.80398         4.57119
     2014.42573        -6.31371         4.60859
     2014.42847        -0.15744         4.61454
     2014.43121        -5.20416         4.58309
     2014.43394        -2.75389         4.59499
     2014.43668        -3.60562         4.58989
     2014.43942        -1.55435         4.61199
     2014.44216        -3.12308         4.61709
     2014.44490        -0.94781         4.71739
     2014.44763         0.94146         4.70124
     2014.45037        -3.70626         4.58054
     2014.45311        -3.78599         4.62219
     2014.45585        -0.86172         4.58904
     2014.45859        -5.78145         4.62134
     2014.46132        -3.69818         4.57799
     2014.46406        -5.65491         4.60264
     2014.46680        -6.57763         4.63324
     2014.46954        -4.97836         4.58734
     2014.47227        -1.84909         4.62134
     2014.47501         0.22518         4.60349
     2014.47775         0.28645         4.63749
     2014.48049        -2.81428         4.61369
     2014.48323         1.93800         4.66044
     2014.48596        -0.32073         4.70889
     2014.48870         1.96654         4.67234
     2014.49144         5.16281         4.54824
     2014.49418        -2.36992         4.54654
     2014.49692         0.02135         4.54484
     2014.49965        -2.79237         4.53974
     2014.50239        -1.03110         4.61794
     2014.50513        -0.25283         4.60179
     2014.50787        -5.55856         4.58989
     2014.51060        -5.57429         4.53634
     2014.51334        -2.72402         4.54654
     2014.51608         2.26926         4.56864
     2014.51882         1.61453         4.60009
     2014.52156        -1.01420         4.66554
     2014.52429         7.47907         4.56609
     2014.52703         4.13034         4.58054
     2014.52977         0.95161         4.62049
     2014.53251        -3.35311         4.64684
     2014.53525         2.26116         4.60264
     2014.53798         4.77543         4.54059
     2014.54072         9.23370         4.64769
     2014.54346         2.15997         4.55419
     2014.54528         5.19082         8.01956
     2014.54922         3.48996         6.67149
     2014.55224         2.40368         5.92521
     2014.55441        -4.24894         4.62389
     2014.55715        -1.56267         4.68594
     2014.55989        -0.92940         4.55334
     2014.56262         3.45487         4.58649
     2014.56536        -2.92986         4.56014
     2014.56810        -3.66258         4.57884
     2014.57084        -3.01531         4.57119
     2014.57357         2.37696         4.57119
     2014.57631         2.17823         4.59584
     2014.57905         5.66650         4.62729
     2014.58179         6.02677         4.70209
     2014.58453         0.38505         4.69359
     2014.58726         1.26732         4.81344
     2014.59000         8.68359         4.71994
     2014.59274         8.49186         4.65789
     2014.59548         0.37113         4.67234
     2014.59822         1.33940         4.67999
     2014.60054         1.98202         5.61497
     2014.60371         4.92598         4.66214
     2014.60643         0.81822         4.64939
     2014.60917         4.66049         4.65959
     2014.61094        15.46925         8.53635
     2014.61480         2.09028         5.06503
     2014.61738         1.30131         4.79899
     2014.62012         5.88058         4.73949
     2014.62286         8.61385         4.64854
     2014.62559         6.04012         4.63239
     2014.62833         1.59939         4.65194
     2014.63107         7.17066         4.73354
     2014.63381         7.08894         4.74629
     2014.63655        10.18221         4.66044
     2014.63928         1.97448         4.59839
     2014.64202         0.40275         4.59669
     2014.64476         3.05402         4.67404
     2014.64750         9.37829         4.65959
     2014.65023         7.11057         4.58819
     2014.65297        10.02084         4.58479
     2014.65571         7.81611         4.59839
     2014.65845        13.09738         4.65874
     2014.66119        -0.10235         4.74629
     2014.66392        14.08392         4.62219
     2014.66666         8.11720         4.57884
     2014.66940         9.34947         4.60774
     2014.67214         7.87674         4.65449
     2014.67488         4.86201         4.64939
     2014.67761         3.39628         4.63069
     2014.68035        14.03055         4.64344
     2014.68309         5.07482         4.61199
     2014.68583         2.02410         4.64514
     2014.68856         6.86337         4.61284
     2014.69130         5.51764         4.63579
     2014.69404         0.68791         4.69274
     2014.69678         2.22918         4.60774
     2014.69952         7.48045         4.57034
     2014.70225         8.97473         4.58649
     2014.70499         8.63500         4.60264
     2014.70773         9.04427         4.61114
     2014.71047        10.51254         4.69019
     2014.71321         8.09581         4.54994
     2014.71594         5.91208         4.61964
     2014.71868         7.31236         4.56864
     2014.72142        10.97163         4.60349
     2014.72416         3.84190         4.60094
     2014.72689         3.27817         4.63069
     2014.72963        12.01144         4.60434
     2014.73237         8.16171         4.62984
     2014.73511         1.38499         4.59244
     2014.73785         2.80726         4.60519
     2014.74058         1.60453         4.57459
     2014.74332        11.17680         4.63664
     2014.74606        11.69707         4.59669
     2014.74880         1.53834         4.61709
     2014.75154         4.43462         4.69699
     2014.75427         4.13089         4.60094
     2014.75701         0.85316         4.67064
     2014.75975         6.07643         4.63154
     2014.76249         7.89770         4.58904
     2014.76522         4.43197         4.59159
     2014.76796         4.90725         4.58904
     2014.77070         7.30252         4.57034
     2014.77344         2.97479         4.60179
     2014.77618        14.92006         4.87039
     2014.77891         9.88033         4.60434
     2014.78165         9.46960         4.62729
     2014.78439         9.07988         4.62984
     2014.78713        10.67015         4.58224
     2014.78987        -0.22658         4.61029
     2014.79260         0.03369         4.56439
     2014.79534         4.17496         4.62899
     2014.79808         8.74723         4.81344
     2014.80082         7.45650         4.70719
     2014.80355         2.16778         4.67744
     2014.80629         2.31205         4.66809
     2014.80903         3.10932         4.71484
     2014.81177         6.81659         4.58479
     2014.81451        14.83486         4.62389
     2014.81724         8.91113         4.60179
     2014.81998         7.94341         4.58649
     2014.82272         8.22168         4.80239
     2014.82546         4.60195         4.61964
     2014.82820         2.64522         4.56864
     2014.83093         3.37249         4.63324
     2014.83367         3.41276         4.61199
     2014.83641         5.88704         4.63834
     2014.83915         3.22231         4.66979
     2014.84188        -0.57142         4.71824
     2014.84462         0.24285         4.71484
     2014.84736         0.64612         4.78284
     2014.85010         2.61039         4.63494
     2014.85284         3.08467         4.63494
     2014.85557         6.99994         4.88484
     2014.85831         3.51221         4.68169
     2014.86105        -2.82752         4.63154
     2014.86379        -3.59625         4.59924
     2014.86653        -0.12298         4.63749
     2014.86926        -1.64370         4.62559
     2014.87200         0.39357         4.61794
     2014.87474        -4.01116         4.59584
     2014.87748        -1.00889         4.59414
     2014.88021         2.64538         4.62474
     2014.88295         1.38465         4.75054
     2014.88569         5.39393         4.79899
     2014.88843         9.96120         4.85679
     2014.89117        12.45347         4.92394
     2014.89390         2.07874         4.81514
     2014.89664         7.29101         4.76584
     2014.89938        -1.45172         4.76754
     2014.90212        -0.58844         4.81004
     2014.90485         0.25483         4.65789
     2014.90759         3.92310         4.66214
     2014.91033         1.17337         4.67064
     2014.91307         0.55964         4.65109
     2014.91581         1.89291         4.65364
     2014.91854         4.24618         4.63834
     2014.92128        -1.03354         4.60094
     2014.92402         2.80773         4.60094
     2014.92676        -1.32200         4.67234
     2014.92950        -2.70673         4.73864
     2014.93223        -4.58546         4.65789
     2014.93497        -6.10419         4.66214
     2014.93771        -1.49491         4.70039
     2014.94045        -3.82864         4.76244
     2014.94318         2.32463         4.93244
     2014.94472         5.41003        14.57376
     2014.96270         0.42708         5.41777
     2014.96509         5.61080         4.64769
     2014.96783        -4.01893         4.57544
     2014.97056        -2.23865         4.63664
     2014.97330        -4.46138         4.57204
     2014.97604        -8.26511         4.58734
     2014.97878        -6.64884         4.59839
     2014.98151         1.42343         4.68594
     2014.98425        -5.56430         4.53294
     2014.98699         0.24198         4.54909
     2014.98973        -6.82275         4.55164
     2014.99247       -12.50848         4.56099
     2014.99520        -9.61821         4.54144
     2014.99794        -1.33894         4.57799
     2015.00068        -4.61867         4.53379
     2015.00342        -5.73639         4.56524
     2015.00616        -9.28312         4.55929
     2015.00889        -4.56885         4.64599
     2015.01163        -4.71558         4.62899
     2015.01437        -1.77731         4.66639
     2015.01711        -3.70104         4.66554
     2015.01984         1.90423         4.58734
     2015.02258         2.74051         4.74204
     2015.02532         0.15178         4.64004
     2015.02806        -2.58395         4.56184
     2015.03080        -1.22568         4.56779
     2015.03353       -10.23441         4.59669
     2015.03627        -1.49514         4.58054
     2015.03901         0.48714         4.64174
     2015.04175         9.00541         4.53634
     2015.04449        -2.58132         4.52359
     2015.04722        -4.31805         4.65194
     2015.04996        -1.31678         4.57459
     2015.05270        -5.61751         4.57034
     2015.05544        -4.03723         4.55844
     2015.05817         0.33304         4.57629
     2015.06091        -4.63769         4.57884
     2015.06365         4.18858         4.66724
     2015.06639         2.11385         4.56949
     2015.06913        -0.98288         4.54314
     2015.07186        -4.75660         4.54484
     2015.07460        -1.24133         4.53804
     2015.07734       -10.48506         4.56694
     2015.08008        -8.49079         4.54059
     2015.08282        -1.97152         4.54824
     2015.08555        -2.33725         4.53039
     2015.08829         2.78503         4.56014
     2015.09103         3.45630         4.53209
     2015.09377        -1.15043         4.61284
     2015.09650         1.13984         4.60604
     2015.09924         9.07211         4.69954
     2015.10198         3.28238         4.63154
     2015.10472        -0.16534         4.58139
     2015.10746        -0.94307         4.65194
     2015.11019        -7.25080         4.67149
     2015.11293        -2.57653         4.65279
     2015.11567        -3.36126         4.71824
     2015.11841        -5.46099         4.58649
     2015.12115         2.44329         4.63664
     2015.12388        -5.64644         4.57544
     2015.12662        -7.43417         4.60774
     2015.12936        -2.10690         4.58564
     2015.13210         0.37737         4.58394
     2015.13483        -4.34936         4.62474
     2015.13757        -5.58309         4.65959
     2015.14031        -8.03481         4.59159
     2015.14305        -2.70754         4.59074
     2015.14579        -5.05927         4.56439
     2015.14852        -0.33800         4.56269
     2015.15126        -5.83373         4.53634
     2015.15400        -5.62346         4.56184
     2015.15674        -1.91218         4.57374
     2015.15948         2.81609         4.55164
     2015.16221         0.14736         4.54994
     2015.16495        -3.64537         4.54654
     2015.16769        -4.00210         4.53294
     2015.17043        -0.54283         4.54399
     2015.17316        -0.81455         4.65789
     2015.17590        -1.54428         4.68169
     2015.17864        -2.88701         4.54824
     2015.18138        -1.29774         4.53379
     2015.18412         0.39953         4.53039
     2015.18685        -1.63220         4.54229
     2015.18959         7.56208         4.69614
     2015.19233         0.99635         4.67574
     2015.19507        -4.75938         4.52444
     2015.19780        -0.64611         4.54399
     2015.20054        -1.45884         4.52699
     2015.20305         0.98708         5.06078
     2015.20602        -0.69729         4.66724
     2015.20876        -4.17202         4.52869
     2015.21149        -8.08275         4.54569
     2015.21423        -4.11648         4.70464
     2015.21617       -17.93645         7.60987
     2015.22016         1.65178         5.47812
     2015.22245        -3.41366         4.55419
     2015.22513       -14.66448         4.65789
     2015.22866        -0.37196         6.57035
     2015.23066        -1.70185         4.55674
     2015.23323        -1.57785         5.05653
     2015.23613         4.70869         4.66554
     2015.23887         0.22397         4.75819
     2015.24161         2.41424         4.74119
     2015.24435         2.28451         4.79814
     2015.24709        -6.26222         4.66639
     2015.24982        -5.64095         4.51339
     2015.25256        -3.91768         4.53634
     2015.25530        -1.16341         4.58989
     2015.25804        -1.32413         4.53889
     2015.26078         3.70614         4.96218
     2015.26351         1.42141         4.52274
     2015.26625        -2.19432         4.53804
     2015.26899        -1.12005         4.54059
     2015.27173         5.86022         4.61114
     2015.27446         5.85750         4.66384
     2015.27720        -0.84523         4.54144
     2015.27994        -0.56696         4.53464
     2015.28268       -13.91369         4.61794
     2015.28542        -7.09342         4.65789
     2015.28815        -5.95215         4.66469
     2015.29089        -1.87787         4.56609
     2015.29363        -3.86160         4.54484
     2015.29637        -3.72333         4.63494
     2015.29911         3.91694         4.54739
     2015.30184         3.81321         4.64004
     2015.30458         2.66248         4.55079
     2015.30732        -1.93224         4.45050
     2015.31006        -2.45097         4.51169
     2015.31279        -4.16770         4.50744
     2015.31439        -1.02921        14.14112
     2015.31827        -3.27216         4.39695
     2015.32101        -8.60089         4.65874
     2015.32375        -2.27661         4.44880
     2015.32648        -3.75934         4.56014
     2015.32922        -4.09007         4.49895
     2015.33196        -3.27180         4.41480
     2015.33470        -1.50853         4.43520
     2015.33744        -4.37626         4.43095
     2015.34017        -5.65998         4.47430
     2015.34291       -19.34771         4.46240
     2015.34565        -7.39344         4.43945
     2015.34839        -1.68317         4.43350
     2015.35112        -3.25690         4.43690
     2015.35386         1.10337         4.45560
     2015.35660        -4.30435         4.43520
     2015.35934        -3.77608         4.51339
     2015.36208        -4.77281         4.49810
     2015.36481        -3.55354         4.44285
     2015.36755        -0.48627         4.41140
     2015.37029        -2.91600         4.43350
     2015.37303        -8.37573         4.43095
     2015.37577        -6.75045         4.44880
     2015.37850       -10.19418         4.53039
     2015.38124        -5.94091         4.42925
     2015.38398        -5.05864         4.49640
     2015.38672        -1.85637         4.44370
     2015.38945        -7.90510         4.46410
     2015.39219        -5.87282         4.45390
     2015.39493        -3.10555         4.41310
     2015.39767        -6.28228         4.42840
     2015.40041        -8.11901         4.46835
     2015.40314       -10.60974         4.58649
     2015.40588       -10.28047         4.48875
     2015.40862        -4.81119         4.44625
     2015.41136        -1.91692         4.44370
     2015.41410        -3.46565         4.48960
     2015.41683        -3.13038         4.48705
     2015.41957        -3.79011         4.44200
     2015.42231        -2.76884         4.44115
     2015.42505        -8.64256         4.56524
     2015.42778        -1.60829         4.45475
     2015.43052         3.66398         4.48195
     2015.43326        -2.52875         4.51764
     2015.43600         0.25252         4.46240
     2015.43874        -1.30321         4.41735
     2015.44147        -1.26193         4.58309
     2015.44421        -2.95466         4.44625
     2015.44695         0.43761         4.44795
     2015.44969        -4.31812         4.47940
     2015.45243         1.70615         4.54059
     2015.45516        -3.58458         4.44200
     2015.45790        -2.62330         4.57459
     2015.46064        -0.49203         4.67574
     2015.46338        -1.84776         4.58479
     2015.46611         1.77251         4.46920
     2015.46885         4.55178         4.52019
     2015.47159         3.73305         4.51169
     2015.47433        -0.73367         4.64259
     2015.47707         2.14060         4.56949
     2015.47980         2.24987         4.53039
     2015.48254         1.71814         4.54484
     2015.48528        -2.29859         4.48960
     2015.48802         2.02968         4.52019
     2015.49076         2.93395         4.53379
     2015.49349         2.96823         4.52104
     2015.49623         6.69950         4.54229
     2015.49897        -2.06523         4.58904
     2015.50171         5.90004         4.45050
     2015.50444         1.16031         4.45730
     2015.50718         5.61558         4.45730
     2015.50992         3.53986         4.45815
     2015.51266         5.61113         4.45050
     2015.51540         4.54140         4.48365
     2015.51813         5.74967         4.45645
     2015.52087         3.84694         4.47260
     2015.52361         8.34021         4.53379
     2015.52635         6.79549         4.47515
     2015.52908         7.00676         4.51084
     2015.53182         4.81803         4.46835
     2015.53456         4.09830         4.47345
     2015.53730         5.94857         4.49810
     2015.54004         1.78484         4.55844
     2015.54277         3.47212         4.59329
     2015.54551        11.29539         4.55504
     2015.54825        13.82166         4.57884
     2015.55099         7.45193         4.54569
     2015.55373         5.53520         4.56269
     2015.55646        10.41847         4.57714
     2015.55920         8.64575         4.55164
     2015.56194        12.34902         4.58054
     2015.56468         9.25429         4.55504
     2015.56741         5.64856         4.54144
     2015.57015         9.55083         4.67234
     2015.57289         9.28810         4.70124
     2015.57563         9.81038         4.57034
     2015.57837         5.75365         4.54484
     2015.58110        11.00092         4.53294
     2015.58384        10.20619         4.57289
     2015.58658        13.63046         4.59584
     2015.58932        18.96773         4.69274
     2015.59206        11.73601         4.56099
     2015.59479        12.77728         4.52954
     2015.59753        12.66855         4.56524
     2015.60027        16.37482         4.67064
     2015.60301        15.11709         4.79049
     2015.60574        10.43736         4.70039
     2015.60848         8.34063         4.60179
     2015.61122        13.84591         4.55929
     2015.61396        13.20218         4.55419
     2015.61670        11.23545         4.52614
     2015.61943        10.75572         4.45900
     2015.62217        17.34699         4.46580
     2015.62491        16.12526         4.46580
     2015.62765        14.36454         4.47005
     2015.63039        12.61781         4.43690
     2015.63312        13.06808         4.53124
     2015.63586        13.05835         4.47770
     2015.63860        13.13762         4.44370
     2015.64134        10.93889         4.47090
     2015.64407        15.38017         4.50150
     2015.64681        11.56044         4.50575
     2015.64955        10.64271         4.50999
     2015.65229        12.14898         4.48025
     2015.65503        20.11825         4.47175
     2015.65776        20.15652         4.62389
     2015.66050        10.50280         4.46920
     2015.66324        12.61807         4.44625
     2015.66598        15.12734         4.62049
     2015.67145        13.65088         4.50235
     2015.67419         7.76115         4.42415
     2015.67693        12.58143         4.42755
     2015.67967         9.98770         4.51679
     2015.68240        10.39997         4.49725
     2015.68514         6.18624         4.49215
     2015.68788         9.47951         4.49640
     2015.69062        14.29778         4.46665
     2015.69336         8.14606         4.65109
     2015.69609        14.09333         4.45560
     2015.69883        16.77160         4.48875
     2015.70157        11.97087         4.45135
     2015.70431        13.68114         4.46580
     2015.70705        12.61541         4.45900
     2015.70978        13.23969         4.44710
     2015.71252         9.90396         4.44285
     2015.71526         9.67423         4.46835
     2015.71800        17.05250         4.46070
     2015.72073        17.65877         4.49555
     2015.72347         9.49304         4.42415
     2015.72621         7.33131         4.42245
     2015.72895         5.52659         4.46495
     2015.73169        10.56986         4.48110
     2015.73442         8.80613         4.46495
     2015.73716         7.97040         4.45135
     2015.73990         9.59467         4.52529
     2015.74264        11.65394         4.55589
     2015.74538        14.16722         4.61794
     2015.74811         5.58249         4.65619
     2015.75085        -0.82624         4.50829
     2015.75359         8.89903         4.45645
     2015.75633         9.48030         4.43775
     2015.78120        12.31210         4.96643
     2015.78371        13.09202         4.45050
     2015.78644        15.06129         4.46580
     2015.78918        11.38356         4.45985
     2015.79192        12.41683         4.46410
     2015.79466        11.32811         4.45900
     2015.79739        14.57638         4.48875
     2015.80013         5.61165         4.65534
     2015.80287         6.63392         4.51849
     2015.80561         5.48619         4.46580
     2015.80835         8.25746         4.48195
     2015.81108         9.23374         4.54059
     2015.81382         3.30301         4.53804
     2015.81656         3.72928         4.51594
     2015.81930         3.21355         4.49980
     2015.82203         7.85882         4.54144
     2015.82477        15.20509         4.53804
     2015.82751         6.27936         4.52614
     2015.83025         8.21464         4.48280
     2015.83230         7.08484         6.39525
     2015.83572         7.59718         4.55504
     2015.83846         4.43945         4.61454
     2015.84120         3.95072         4.55759
     2015.84394         1.85899         4.56014
     2015.84668         1.97327         4.59924
     2015.84941         3.66454         4.61199
     2015.85215         9.23781         4.59074
     2015.85489        10.80908         4.60519
     2015.85763         3.27635         4.55079
     2015.86036         1.92562         4.56269
     2015.86310         8.09490         4.63664
     2015.86584         8.60317         4.60944
     2015.86858         3.07244         4.59754
     2015.87046         4.78738         7.46198
     2015.88501        -2.81093         4.54569
     2015.88774        -1.02266         4.55589
     2015.89048         5.86661         4.55929
     2015.89322         6.64188         4.57459
     2015.89596         4.82416         4.57714
     2015.89869         3.20343         4.56014
     2015.90143        -1.76030         4.55844
     2015.90417        -2.99703         4.53634
     2015.90691         0.01924         4.53974
     2015.90965         4.03651         4.56184
     2015.91238         3.14679         4.57289
     2015.91512         1.58006         4.54569
     2015.91786         3.15033         4.52784
     2015.92060         2.58660         4.56099
     2015.92334         0.06487         4.56014
     2015.92607        -4.95386         4.53889
     2015.92881         0.43942         4.53974
     2015.93155         0.14369         4.72079
     2015.93429         1.51296         4.66894
     2015.93702        -5.06677         4.77944
     2015.93976         0.38550         4.82789
     2015.94250         2.72577         4.70209
     2015.94524         0.80604         4.68424
     2015.94798         4.98632         4.70039
     2015.95071         0.14159         4.53804
     2015.95345        -1.57314         4.55844
     2015.95619        -8.92487         4.61199
     2015.95893        -5.19260         4.74204
     2015.96167         9.61767         4.67149
     2015.96440        -0.77605         4.52954
     2015.96714         3.56322         4.59159
     2015.96988         1.67949         4.55334
     2015.97262        -4.69224         4.53039
     2015.97535        -8.56297         4.55844
     2015.97809        -8.80770         4.55079
     2015.98083        -4.05342         4.56779
     2015.98357        -8.75815         4.56864
     2015.98631        -6.96688         4.60689
     2015.98904        -3.29261         4.56439
     2015.99178        -6.29234         4.54484
     2015.99452        -5.68107         4.55079
     2015.99726        -3.50879         4.58054
     2016.00000        -5.06852         4.55164
     2016.00273        -5.13425         4.55589
     2016.00547        -5.31798         4.53889
     2016.00821        -7.43171         4.61794
     2016.01095        -0.51544         4.61794
     2016.01368        -1.04516         4.57459
     2016.01642         0.41711         4.66979
     2016.01916        -1.39562         4.76839
     2016.02190         1.31265         4.64344
     2016.02464        -0.68408         4.61964
     2016.02737        -1.89481         4.56099
     2016.03011        -5.22953         4.55589
     2016.03285        -0.38426         4.54909
     2016.03559       -13.39099         4.54144
     2016.03833        -3.08972         4.63069
     2016.04106        -0.31145         4.57459
     2016.04380         2.34482         4.53719
     2016.04654         2.90710         4.53719
     2016.04928        -3.34563         4.56269
     2016.05201        -9.49936         4.51169
     2016.05475        -9.22709         4.62219
     2016.05749         1.73318         4.52614
     2016.06023        -7.24855         4.48195
     2016.06297        -5.46228         4.49810
     2016.06570        -4.68100         4.60689
     2016.06844        -1.63173         4.65449
     2016.07118       -11.42346         4.62389
     2016.07392        -0.86719         4.67319
     2016.07666         5.06508         4.70804
     2016.07939         5.42935         4.62134
     2016.08213         3.74963         4.69954
     2016.08487        -3.78610         4.59414
     2016.08761        -5.68183         4.58224
     2016.09034        -6.63556         4.59244
     2016.09308        -6.56029         4.61539
     2016.09582       -13.87102         4.60179
     2016.09856       -17.69774         4.64344
     2016.10130       -12.78947         4.55844
     2016.10403       -13.03920         4.56694
     2016.10677        -9.78393         4.56354
     2016.10951       -10.99066         4.65109
     2016.11225       -10.77839         4.59669
     2016.11498       -12.51111         4.62559
     2016.11772       -14.70384         4.55419
     2016.12046       -12.37857         4.59244
     2016.12320       -10.88830         4.54824
     2016.12594       -12.28203         4.59159
     2016.12867        -4.16776         4.59074
     2016.13141        -1.06948         4.56779
     2016.13415        -3.03121         4.54484
     2016.13689        -8.22994         4.56354
     2016.13963        -4.36367         4.51849
     2016.14236       -17.15940         4.53294
     2016.14510       -12.05613         4.50320
     2016.14784       -10.07785         4.52019
     2016.15058        -4.58058         4.53804
     2016.15331        -4.46731         4.61794
     2016.15605        -8.25404         4.51934
     2016.15879        -8.25677         4.62729
     2016.16153       -13.89850         4.59499
     2016.16427       -11.20222         4.67234
     2016.16700        -1.72695         4.61454
     2016.16974        -6.95468         4.55674
     2016.17248        -4.88841         4.68339
     2016.17522        -6.66314         4.55929
     2016.17796        -0.01887         4.63919
     2016.18069        -1.35660         4.61794
     2016.18343        -7.48732         4.71059
     2016.18617        -7.24905         4.54654
     2016.18891        -4.41578         4.50150
     2016.19164        -2.56651         4.45135
     2016.19439        -0.64722         4.47175
     2016.19712         0.58203         4.49470
     2016.19986       -11.28969         4.59244
     2016.20260       -17.09742         4.56014
     2016.20533        -8.67115         4.67914
     2016.20807        -8.00388         4.65704
     2016.21081        -9.06261         4.63239
     2016.21355       -11.91734         4.53379
     2016.21629       -11.70706         4.43435
     2016.21902        -7.10279         4.47430
     2016.22176        -2.58852         4.44370
     2016.22450        -8.98225         4.45645
     2016.22724       -11.39398         4.47770
     2016.22997       -12.50971         4.45305
     2016.23271        -7.46043         4.43945
     2016.23545        -5.69516         4.49640
     2016.23819        -7.68389         4.46835
     2016.24093       -11.93462         4.51254
     2016.24366        -5.50635         4.46665
     2016.24640        -1.93008         4.44115
     2016.24914        -5.25880         4.45645
     2016.25188        -1.91953         4.45390
     2016.25462        -8.19826         4.47770
     2016.25735       -11.32999         4.52189
     2016.26009       -11.49072         4.49555
     2016.26283       -13.79245         4.48620
     2016.26557        -5.95917         4.48620
     2016.26830        -5.61490         4.47005
     2016.27104        -2.74063         4.46580
     2016.27378        -0.15236         4.50575
     2016.27652        -5.25409         4.48025
     2016.27926        -6.01382         4.51084
     2016.28199       -10.18254         4.47260
     2016.28473        -3.40927         4.50829
     2016.28747        -9.30700         4.49895
     2016.29021       -11.51873         4.51934
     2016.29295        -6.67346         4.49300
     2016.29568        -0.82919         4.51764
     2016.29842        -3.12892         4.57969
     2016.30116        -4.78164         4.60859
     2016.30390        -3.96637         4.54909
     2016.30663        -0.91210         4.56439
     2016.30937        -7.26483         4.51509
     2016.31211        -7.62956         4.50660
     2016.31485        -8.40729         4.48195
     2016.31759        -4.25201         4.52529
     2016.32032        -6.96574         4.49980
     2016.32306       -10.40347         4.51254
     2016.32580       -12.22520         4.50575
     2016.32854       -12.26093         4.49130
     2016.33128        -7.90566         4.50320
     2016.33401        -2.50638         4.57204
     2016.33675        -8.43911         4.57969
     2016.33949        -8.84584         4.54399
     2016.34223        -5.47857         4.56099
     2016.34496        -8.74930         4.62899
     2016.34770        -3.59703         4.58054
     2016.34964        -1.90900         7.44668
     2016.35329        -4.12130         4.60264
     2016.35592       -11.32621         4.49045
     2016.35865       -10.75394         4.52189
     2016.36139        -7.06967         4.49470
     2016.36413         4.15260         4.53889
     2016.36687         0.82288         4.53464
     2016.36961         2.05915         4.47600
     2016.37234         3.33742         4.45560
     2016.37508        -6.39531         4.48620
     2016.37782       -11.36104         4.51084
     2016.38056        -0.46477         4.54144
     2016.38329         0.42951         4.49045
     2016.38603        -4.83022         4.46155
     2016.38877         4.49605         4.44625
     2016.39151        -3.40668         4.45985
     2016.39425        -4.50141         4.47005
     2016.39698         2.88886         4.49300
     2016.39972         1.86814         4.52019
     2016.40246        -0.90059         4.53124
     2016.40520        -4.97132         4.49385
     2016.40685        -5.78874        10.50321
     2016.41889       -10.22896         4.57884
     2016.42162        -5.39869         4.51934
     2016.42436        -9.39642         4.48535
     2016.42710        -5.38615         4.52019
     2016.42984        -3.06288         4.49895
     2016.43258        -0.74061         4.47770
     2016.43531         2.14467         4.57289
     2016.43805        -0.03806         4.46835
     2016.44079        -4.78779         4.47430
     2016.44353        -5.84052         4.49130
     2016.44626       -11.53825         4.47770
     2016.44900        -6.49898         4.48705
     2016.45174         2.15430         4.51764
     2016.45448         2.35857         4.49385
     2016.45722        -2.95016         4.44030
     2016.45995        -1.95489         4.47005
     2016.46269        -1.69862         4.53549
     2016.46543        -2.02435         4.46665
     2016.46817        -2.41207         4.58734
     2016.47091         2.33720         4.49385
     2016.47364        -7.05153         4.46920
     2016.47638        -0.22026         4.50744
     2016.47912         0.68501         4.61539
     2016.48186        -1.03872         4.51424
     2016.48459        -1.12944         4.50065
     2016.48733        -0.63217         4.51594
     2016.49007         1.13610         4.46410
     2016.49281        -3.19663         4.48025
     2016.49555        -4.54536         4.51169
     2016.49828        -5.30909         4.47005
     2016.50102        -2.90081         4.46240
     2016.50376         0.11246         4.56949
     2016.50650        -1.96827         4.56779
     2016.50924         2.56800         4.47770
     2016.51197        -1.31373         4.47005
     2016.51471        -0.32046         4.48365
     2016.51745         5.60782         4.60434
     2016.52019        -6.70891         4.54484
     2016.52292         0.30136         4.48195
     2016.52566         0.09663         4.45220
     2016.52840         1.05190         4.46325
     2016.53114        -3.02183         4.43010
     2016.53388        -4.02456         4.44625
     2016.53661        -0.28628         4.49725
     2016.53935        -0.63501         4.43605
     2016.54209         3.58926         4.50150
     2016.54483        11.10353         4.49810
     2016.54757        -1.81520         4.45390
     2016.55030        -0.27593         4.58479
     2016.55304         3.10135         4.47685
     2016.55578         1.24162         4.54399
     2016.55852         2.04089         4.51594
     2016.56125        -3.37784         4.47600
     2016.56399         0.04043         4.47005
     2016.56673         0.39370         4.53464
     2016.56947        -8.91802         4.55759
     2016.57221         1.71625         4.48620
     2016.57494         1.77452         4.58479
     2016.57768         4.71679         4.47770
     2016.58042         4.29406         4.42840
     2016.58316        -2.14967         4.43435
     2016.58590         3.47661         4.49810
     2016.58863         1.15188         4.48620
     2016.59137        -3.15685         4.43520
     2016.59411         5.86942         4.47685
     2016.59685         4.31669         4.43350
     2016.59958         0.01896         4.44200
     2016.60232         2.23024         4.50999
     2016.60506         3.78751         4.47855
     2016.60780        -0.68122         4.43520
     2016.61054        -0.82895         4.43435
     2016.61327         1.32232         4.47940
     2016.61875         4.71687         4.46410
     2016.62149         2.10314         4.45730
     2016.62423         5.55241         4.50914
     2016.62696         4.08268         4.41650
     2016.62970         4.05095         4.46920
     2016.63244         3.88222         4.59499
     2016.63518         9.31949         4.42585
     2016.63791        15.49777         4.48280
     2016.64065         7.34404         4.58989
     2016.64339         6.39131         4.43945
     2016.64613         2.42558         4.52274
     2016.64887         2.04485         4.49555
     2016.65160         4.75912         4.52699
     2016.65434         8.21140         4.63834
     2016.65708         0.52067         4.46750
     2016.65982         1.78694         4.50065
     2016.66256         1.01221         4.53719
     2016.66398        37.11144        57.95930
     2016.68172        10.49111         4.43435
     2016.68446         7.61438         4.60944
     2016.68720         8.88666         4.68254
     2016.68993         8.53493         4.51084
     2016.69267         4.43520         4.45135
     2016.69541         8.30147         4.46410
     2016.69815         6.03774         4.44115
     2016.70089         8.40701         4.42330
     2016.70362        10.64029         4.58224
     2016.70636         6.00456         4.69444
     2016.70910         7.94283         4.64854
     2016.71184         9.64910         4.46070
     2016.71457        15.28237         4.45730
     2016.71731         9.32564         4.53889
     2016.72005         7.23792         4.44115
     2016.72279         3.19119         4.46240
     2016.72553         5.61446         4.50914
     2016.72826         6.82573         4.57374
     2016.73100         7.62000         4.43520
     2016.73374         4.24927         4.45305
     2016.73648         5.70955         4.44200
     2016.73921         5.08782         4.53464
     2016.74195         5.76309         4.43180
     2016.74469         1.23536         4.44795
     2016.74743         3.97863         4.45475
     2016.75017         4.13490         4.46835
     2016.75290         7.61217         4.44880
     2016.75564        10.94645         4.45730
     2016.75838        11.62272         4.45560
     2016.76112        10.30599         4.45220
     2016.76386         4.17526         4.44795
     2016.76659         9.28553         4.50065
     2016.76933         9.57480         4.48875
     2016.77207         1.55608         4.52529
     2016.77481         8.14135         4.45220
     2016.77754         2.39062         4.43860
     2016.78028         2.98689         4.45050
     2016.78302         0.57616         4.48280
     2016.78576         8.83443         4.57204
     2016.78850        12.28771         4.53379
     2016.79123         6.33198         4.53974
     2016.79397         9.34025         4.49725
     2016.79671         1.58552         4.52869
     2016.79945        -1.04121         4.45560
     2016.80219         2.70706         4.47600
     2016.80492         3.38534         4.50490
     2016.80766         4.53761         4.48365
     2016.81040        -2.59712         4.51764
     2016.81314         3.25215         4.50235
     2016.81587        -4.58958         4.53549
     2016.81861        -2.60531         4.45475
     2016.82135         0.43197         4.47515
     2016.82409         4.14424         4.46240
     2016.82683         0.26851         4.45475
     2016.82956         1.59178         4.42160
     2016.83230         5.13705         4.45475
     2016.83504        -2.32868         4.47430
     2016.83778         0.80660         4.48365
     2016.84052         0.07387         4.50829
     2016.84325        -0.20786         4.44795
     2016.84599         0.47241         4.49300
     2016.84873         2.46768         4.48960
     2016.85147         0.60395         4.50744
     2016.85420        -3.64577         4.46835
     2016.85694         6.51450         4.53974
     2016.85968        -1.37523         4.58904
     2016.86242         0.21404         4.45475
     2016.86516         5.37731         4.58479
     2016.86789         1.12658         4.46835
     2016.87063         3.32885         4.50150
     2016.87337         2.81113         4.57714
     2016.87611         0.67640         4.42585
     2016.87885         0.03067         4.44370
     2016.88158        -6.22806         4.45560
     2016.88432         1.82321         4.50660
     2016.88706         1.33448         4.48110
     2016.88980         0.71076         4.49810
     2016.89202        -3.53577         5.86231
