# ================= DQRFIT RESULTS ================
# INPUT FILE: series/FWBD.rad
# OUTPUT: LDETRENDED
# FILTER FUNCTION: f(t)
# f(t)=+line(t)+annual(t)
# line(t)=+P 1+P 2*t
# annual(t)=+P 3*sin(2*pi*t+P 4)
# heav(t)=(t<0?0:1)
# TOTAL OBSERVATIONS MTOT= 3745
# INITIAL TIME INTERVAL= 2022.7488 - 2011.8718 = 10.8770
# TOTAL OBSERVATIONS AFTER PREFILTER M= 3737
# TIME-SPAN= 2022.7488 - 2011.8718 = 10.8770
# OBSERVATIONS: USED M=  3737 REJECTED MTOT-M=     8 %USED=   99.7864
# N=  4 PARAMETERS
# MAXSIG= 175.00000
# MAXRES=  36.76714
# SCALE FACTOR FOR LENGTHS: SCL=  10.00000
# SCALE FACTOR FOR SIGMAS: SCLSIG=   1.00000
# CHI^2=   3637.678 DOF=  3733 CHI^2/DOF=   0.97447
# RMS=      5.735 SDEV=      5.736 MEAN=    0.00563
#  P #       PARAMETER +-    SIGMA %error PARAMETER NAME
# P 1 =      1439.46461 +-   60.501   4.20 YZERO                              
# P 2 =        -0.71363 +-    0.030   4.20 SLOPE                              
# P 3 =         4.90364 +-    0.130   2.66 ANNUAL AMPLITUDE                   
# P 4 =        -2.79145 +-    0.035   1.27 ANNUAL PHASE                       
#       T            LDETRENDED       SIG_OBS
     2011.87177        -2.84245         6.83404
     2011.87405        -6.60982         5.56259
     2011.87953        -2.30291         5.65933
     2011.88227        -3.80796         5.91796
     2011.88501        -1.65201         5.58332
     2011.88774        -8.94905         5.56160
     2011.89048        -8.43410         5.59418
     2011.89322        -4.85515         5.62379
     2011.89869         5.58176         5.73830
     2011.90143       -11.41128         5.60109
     2011.90417        -7.97433         5.57246
     2011.90691        -1.42038         5.58628
     2011.90965        -5.64242         5.56851
     2011.91238        -2.68147         5.73929
     2011.91786        -7.63056         5.81333
     2011.92060       -10.68561         5.65538
     2011.92334        -9.77165         5.65933
     2011.92607       -13.29770         5.68401
     2011.92881       -12.67475         5.67611
     2011.93138       -11.46091         6.15982
     2012.02863         6.91849        18.98191
     2012.03285        -2.95250         5.79951
     2012.03559        -3.65755         5.72942
     2012.03833        -0.72459         5.44808
     2012.04106         1.43636         6.03741
     2012.04380         2.11131         5.69586
     2012.04654         7.99927         5.46091
     2012.05201         4.51218         6.17561
     2012.05475         8.60313         6.51618
     2012.05749         0.03308         6.14402
     2012.06023         1.52804         5.52113
     2012.06297        -2.98801         5.46980
     2012.06570        -2.53405         5.58924
     2012.07118        -2.07815         5.40958
     2012.07392        -6.19519         5.39971
     2012.07666        -4.15924         5.42439
     2012.07939         2.46471         5.45499
     2012.08213        -0.14433         5.38688
     2012.08458        -2.47058         6.05419
     2012.09034        -5.81347         5.39774
     2012.09308        -4.69452         5.43624
     2012.09582        -4.71256         5.53001
     2012.09856        -3.33661         5.43722
     2012.10130        -4.19866         5.53199
     2012.10392        -5.49578         5.59418
     2012.10951        -2.34079         5.52113
     2012.11225         0.96016         5.57542
     2012.11498         0.21211         5.46486
     2012.11772         4.49807         5.49546
     2012.12046         7.18702         5.56456
     2012.12320        -3.35602         5.48461
     2012.12867        -3.47512         5.58233
     2012.13141         0.13784         5.53890
     2012.13415        -1.09721         5.52607
     2012.13689        -3.02126         5.51323
     2012.13963        -3.69530         5.65242
     2012.14236        -0.49635         5.67315
     2012.14784        -8.25044         5.47079
     2012.15058        -2.57749         5.50731
     2012.15331        -3.47153         5.43426
     2012.15600        -3.84162         5.59714
     2012.15833        -3.95395         7.00284
     2012.16153         3.70233         5.47868
     2012.16700        -7.94176         5.59714
     2012.16974        -8.03181         5.39576
     2012.17248        -8.74486         5.43821
     2012.17522        -3.98890         5.43426
     2012.17796        -1.98295         5.52212
     2012.18069        -5.29899         5.47473
     2012.18617       -11.39509         5.40070
     2012.18891        -5.78813         5.41254
     2012.19164         2.60082         6.39278
     2012.19438        -0.02523         5.54581
     2012.19712         3.85873         5.49546
     2012.19986        -1.35732         5.46881
     2012.20533         0.33659         5.71066
     2012.20807         5.44954         5.44907
     2012.21081         4.28750         5.43130
     2012.21343        -1.83363         5.70079
     2012.21902        -6.41164         5.75805
     2012.22450        -6.87973         5.65440
     2012.22724        -5.23078         5.52113
     2012.22997        -3.14583         6.02260
     2012.23271         1.23413         5.79062
     2012.23545        -2.99692         5.59813
     2012.23813         1.72300         5.98213
     2012.24366         2.95694         5.50435
     2012.24640         0.89990         5.53890
     2012.24914         3.20285         5.42932
     2012.25188        -4.39920         5.33851
     2012.25462       -10.98724         5.37799
     2012.25735         2.10271         5.44117
     2012.26283        -8.15538         5.43722
     2012.26557        -9.23243         5.38095
     2012.26819       -12.74955         8.97122
     2012.27110        -6.86448         5.64452
     2012.27378        -4.74856         5.44413
     2012.27652         1.14639         5.43426
     2012.28199         0.85730         5.45795
     2012.28473        -0.85975         5.43031
     2012.28747         4.77120         5.50534
     2012.29021        -4.46484         5.40563
     2012.29295        -3.97389         5.43920
     2012.29568        -7.68493         5.44018
     2012.30116        -4.21803         5.47473
     2012.30390        -6.33107         5.50731
     2012.30663       -11.44712         5.49843
     2012.30937        -1.79216         5.54581
     2012.31211         9.02879         5.90513
     2012.31485        -2.36126         5.58233
     2012.32032        -6.66435         5.56358
     2012.32306        -8.03540         5.42143
     2012.32580        -7.48144         5.42143
     2012.32854        -6.82149         5.72251
     2012.33128        -1.88653         5.65933
     2012.33401        -1.02758         5.62675
     2012.33995        -3.35635         6.38587
     2012.34268        -5.32039         6.37896
     2012.34548        -7.54140         6.51618
     2012.35135        -2.36921         9.24663
     2012.35318        -2.35390         5.67710
     2012.35837       -17.05820         9.26638
     2012.36145        -4.91900         7.75900
     2012.36413       -10.05509         5.99397
     2012.36687        -7.46213         5.41550
     2012.36961        -6.06218         5.42439
     2012.37234        -0.52923         5.57246
     2012.37782        -7.92732         5.58727
     2012.38056        -8.16337         5.54482
     2012.38329        -8.64241         5.49843
     2012.38603        -5.52446         5.47967
     2012.38877         0.83250         5.76693
     2012.39151        -0.92255         5.63268
     2012.39698        -3.48264         5.55173
     2012.39972        -6.10069         5.44907
     2012.40246        -8.07574         5.43525
     2012.40520       -11.38878         5.48954
     2012.40794        -1.13883         5.44315
     2012.41067        -2.36487         5.48757
     2012.41615        -6.88497         5.44907
     2012.41889        -7.06401         5.72744
     2012.42162        -9.61206         6.42042
     2012.42442        -2.82806         5.66229
     2012.42710        -5.45115         5.51619
     2012.42989        -6.11516         5.54186
     2012.43531        -7.10029         5.52409
     2012.43805        -4.97534         5.41649
     2012.44079       -13.00638         5.46486
     2012.44353       -12.91743         5.41156
     2012.44626       -10.89447         5.45598
     2012.44900        -7.63952         5.67315
     2012.45448        -3.31361         6.59712
     2012.45722        -4.48966         5.51619
     2012.45995        11.15930         5.67710
     2012.46269         3.99025         6.22201
     2012.46543        -5.17680         5.46388
     2012.46817        -3.89984         5.55074
     2012.47364         1.70406         5.60306
     2012.47638         3.51702         5.59220
     2012.47912        -3.53003         5.48855
     2012.49384        -2.01253        11.21699
     2012.49555        -2.55431         5.56654
     2012.49828        -0.99035         5.59517
     2012.50102        -1.79740         5.40465
     2012.50376        -1.33344         5.50139
     2012.50650         4.12851         5.46388
     2012.51197        -2.04058         5.72053
     2012.51471        -2.36563         5.56456
     2012.51745         3.70833         5.49349
     2012.52019         0.74328         5.48954
     2012.52292         7.56123         6.61193
     2012.52566        -0.15481         5.57049
     2012.53114         2.72709         5.53298
     2012.53388        -8.96895         5.55371
     2012.53639         6.67284         6.65931
     2012.53947         6.64504         6.28617
     2012.54209        -0.66909         5.95942
     2012.54483         4.52886         5.52903
     2012.55030         1.45977         5.46585
     2012.55304         3.10472         5.44512
     2012.55578        -1.84232         5.51916
     2012.55852         4.36363         5.56259
     2012.56125         2.99059         5.45993
     2012.56399         1.34554         5.45894
     2012.56947        -0.88955         5.47770
     2012.57221         3.60240         5.43327
     2012.57494         4.03336         5.44611
     2012.57768        -5.63569         5.53890
     2012.58042         5.92226         5.45894
     2012.58316       -14.26078         5.57740
     2012.58863         2.22712         5.52113
     2012.59137        -0.32592         6.81331
     2012.59411         2.43903         5.41452
     2012.59685         2.86099         5.84590
     2012.59964        -1.21702         5.66723
     2012.60238        -1.24207         6.06999
     2012.60780         4.28280         5.48954
     2012.61054        10.86376         5.44413
     2012.61327        -1.86929         5.38589
     2012.61601         4.13466         5.43624
     2012.61875        15.48262         5.50139
     2012.62149        15.92457         5.46289
     2012.62696         7.03848         6.75605
     2012.62970         3.74143         5.42044
     2012.63244         5.12339         5.46190
     2012.63518         4.46334         5.43722
     2012.63752         2.32901         6.39476
     2012.63963        16.23951        11.65034
     2012.64613         2.03215         5.46388
     2012.64887         8.59811         5.38392
     2012.65138        12.11690         5.99299
     2012.65434         8.05302         5.71757
     2012.65708         5.96297         7.28813
     2012.65982         6.56792        10.48551
     2012.66529         8.65783         5.39971
     2012.66803         4.34579         5.41353
     2012.67077         6.48274         5.38490
     2012.67351         6.87869         5.35233
     2012.67613         0.54957         5.73732
     2012.67898         7.54660         8.89916
     2012.68446         2.96251         5.50928
     2012.68720         4.83046         5.39280
     2012.68993         2.99842         5.50237
     2012.69273         0.82341         6.99889
     2012.69541         1.84532         5.68993
     2012.69815        -3.96472         5.52804
     2012.70265        -2.68151         9.62866
     2012.70636         8.82714         5.47375
     2012.70910         6.83309         5.46388
     2012.71184         4.87605         5.53692
     2012.71457         4.30300         5.42241
     2012.71731         4.08895         5.74817
     2012.72279         7.01286         5.40958
     2012.72553         7.25382         5.43031
     2012.72826         4.52077         5.49941
     2012.73100        -1.10428         5.61392
     2012.73374         6.99368         5.53396
     2012.73648         8.75063         5.45104
     2012.74195         6.61154         5.50139
     2012.74469         5.32049         5.43031
     2012.74669        12.07192         8.28614
     2012.75017         4.59940         5.43624
     2012.75290        11.71135         5.71856
     2012.75564         1.24331         5.42340
     2012.76112         4.65822         5.40070
     2012.76386         5.87217         5.39971
     2012.76659         7.23512         5.48855
     2012.76933         4.22708         5.49645
     2012.77207         2.71903         5.47572
     2012.77481         0.66398         5.45499
     2012.79397         1.38066         5.72251
     2012.79671         0.35261         5.51323
     2012.79945         4.59657         5.70968
     2012.80219        15.92752         5.70474
     2012.80492         5.12448         5.48658
     2012.80766         5.95443         6.02063
     2012.81040         1.13838         5.48559
     2012.81314        -1.25466         5.48757
     2012.81587        -1.63771         5.56062
     2012.81861        -3.88175         5.66920
     2012.82135        -2.63780         5.58036
     2012.82409        -4.08985         5.66525
     2012.82683         0.55511         5.60306
     2012.82956        -3.86594         5.52113
     2012.83230        -3.10699         5.50928
     2012.83504        -0.95003         5.64551
     2012.83778        -0.92108         5.54186
     2012.84052        -0.48112         5.56160
     2012.84257        -4.37566         7.62672
     2012.85968         3.76855         5.52508
     2012.86242        -0.28049         5.54877
     2012.86516         1.31446         5.55272
     2012.86789        -4.55659         5.74225
     2012.87063        -7.01363         5.49152
     2012.87337        -6.40668         5.47572
     2012.87611        -1.76772         5.51718
     2012.87885         4.98323         5.44512
     2012.88158         6.82318         5.54285
     2012.88432        -1.63286         5.49546
     2012.88706         1.96409         5.54976
     2012.88980         2.89604         5.66328
     2012.89253        -2.71100         5.45993
     2012.89527        -4.66305         5.45104
     2012.89801        -1.16609         5.42834
     2012.90075        -0.07414         5.47177
     2012.90349        -3.48419         6.45497
     2012.90622        -2.06823         5.35825
     2012.90896         0.62472         5.48362
     2012.91170         1.44168         5.43722
     2012.91444         0.21663         5.46190
     2012.91718         3.10758         5.42735
     2012.91991        13.38754         5.50139
     2012.92265         4.11849         5.39181
     2012.92539         1.52244         5.41649
     2012.92813        -4.88560         5.40366
     2012.93086        -8.23565         5.58826
     2012.93360        -2.15369         5.50139
     2012.93634         0.46426         5.40662
     2012.93908        -4.51579         5.43031
     2012.94182         0.06017         5.39181
     2012.94455         2.45612         5.39774
     2012.94729         4.89807         5.45697
     2012.95003         2.70403         5.44018
     2012.95277         7.80198         5.39181
     2012.95551        12.01994         5.38688
     2012.95824         1.55089         5.46585
     2012.96098         1.89384         5.59122
     2012.96372         6.74080         5.45795
     2012.96646         3.88175         5.46289
     2012.96919         3.59871         5.45499
     2012.97193         4.43066         5.50139
     2012.97467         1.67161         5.40662
     2012.97741         3.17157         5.39477
     2012.98015         1.76052         5.34937
     2012.98288        -0.35053         5.35233
     2012.98562       -12.27557         5.44216
     2012.98836       -16.55162         5.68993
     2012.99110       -11.22266         5.48263
     2012.99384        -8.48471         5.51126
     2012.99657       -11.38876         5.60701
     2012.99931       -15.05880         5.50534
     2013.00205       -14.03185         5.47276
     2013.00479       -18.51389         5.49448
     2013.00752       -23.42594         5.47770
     2013.01026       -15.30599         5.68895
     2013.01300       -19.18403         5.49349
     2013.01574       -12.97708         5.53890
     2013.01848       -16.40213         5.47079
     2013.02669        -9.10826         5.74521
     2013.02943        -3.26131         5.54285
     2013.03216        -5.37636         5.50830
     2013.03490       -12.07940         5.51521
     2013.03764       -17.47845         5.50830
     2013.04038       -16.27450         5.56950
     2013.04312       -15.96554         5.58233
     2013.04585       -12.47159         5.83011
     2013.04859       -17.34063         5.68993
     2013.05133       -13.15668         5.57049
     2013.05407       -17.05073         5.58826
     2013.05681        -8.67077         5.58826
     2013.05954       -12.80082         5.62379
     2013.06228        -9.45786         5.76101
     2013.06502       -11.09691         5.69783
     2013.06776        -7.14996         5.61590
     2013.07049        -3.85800         5.62379
     2013.07323        -3.22805         5.43920
     2013.07597        -0.98210         5.47375
     2013.07871        -4.66514         5.57246
     2013.08145        -1.74019         5.47572
     2013.08418        -3.04223         5.38885
     2013.08692        -6.94728         5.44709
     2013.08966       -11.15533         5.44907
     2013.09240        -5.94337         5.46585
     2013.09514         2.25558         5.51916
     2013.09787        -2.47646         5.74521
     2013.10061        -0.54051         5.85183
     2013.10335        -5.37356         5.45104
     2013.10609        -3.75460         5.38589
     2013.10882        -7.46365         5.52508
     2013.11156        -4.46370         5.63465
     2013.11430        -1.83274         5.49152
     2013.11704       -10.34479         5.50632
     2013.11978        -7.16183         5.57937
     2013.12251        -9.88288         5.39083
     2013.12525       -12.49693         5.95844
     2013.12799        -9.62197         5.48757
     2013.13073        -2.30602         5.57147
     2013.13347        -4.51707         5.48461
     2013.13620        -3.52311         5.51916
     2013.13894         0.29484         5.50435
     2013.14168        -2.63720         5.54087
     2013.14442        -1.68525         5.64847
     2013.14715         1.28070         5.71560
     2013.14989        -3.79134         5.52705
     2013.15263        -8.57139         5.49349
     2013.15537       -12.96743         5.47079
     2013.15811        -9.26248         5.48066
     2013.16084       -11.17453         5.50336
     2013.16358        -6.90757         5.55864
     2013.16632        -8.69662         5.50830
     2013.16906         0.56633         5.58628
     2013.17180        -5.39471         5.46091
     2013.17453        -5.90376         5.47276
     2013.17727        -0.92980         5.68401
     2013.18001        -9.59585         5.68598
     2013.18275        -1.69090         5.50928
     2013.18548         0.62506         5.51027
     2013.18822        -9.90499         5.49250
     2013.19096        -2.61504         5.50040
     2013.19370        -6.69208         5.51027
     2013.19644        -7.83413         5.61096
     2013.19917        -6.98417         5.60109
     2013.20191       -12.55522         5.54680
     2013.20465        -2.60027         5.48066
     2013.20739         5.27769         5.55765
     2013.21013        -0.27336         5.49053
     2013.21286        -5.41240         5.50336
     2013.21560        -4.82045         5.55074
     2013.21834        -2.11350         5.49941
     2013.22108        -4.19354         5.46684
     2013.22381        -0.77259         5.48164
     2013.22655        -9.78664         5.43722
     2013.22929        -8.94868         5.47967
     2013.23203        -6.99373         5.50237
     2013.23477        -8.07277         5.46782
     2013.23750        -6.42382         5.57147
     2013.24024        -7.42887         5.57049
     2013.24298        -7.19491         5.63761
     2013.24572        -1.91996         5.65440
     2013.24846        -4.57200         5.61096
     2013.25119        -0.87005         5.60405
     2013.25393        -3.18610         5.59122
     2013.25667        -3.91314         5.78569
     2013.25941         8.49081         5.70968
     2013.26214         2.26776         5.69289
     2013.26488         6.42672         5.71856
     2013.26762        -2.91433         5.58233
     2013.27036        -5.85737         5.63564
     2013.27310         3.35958         5.77384
     2013.27583         3.72953         5.80247
     2013.27857        -2.09451         5.69980
     2013.28131        -0.65856         5.68204
     2013.28405         2.63939         5.50830
     2013.28679         1.45535         5.56753
     2013.28952        -1.58970         5.55765
     2013.29226        -4.18174         5.48954
     2013.29500        -9.61679         5.61293
     2013.29774        -9.15684         5.58431
     2013.30047        -3.27488         5.60899
     2013.30321        -3.49393         5.56950
     2013.30595        -4.61597         5.53692
     2013.30869        -5.74802         5.73732
     2013.31143        -9.64807         5.56160
     2013.31416        -0.90411         5.50435
     2013.31690        -4.77816         5.65045
     2013.31964        -3.61321         5.53791
     2013.32238        -4.06125         5.63070
     2013.32512         3.21770         5.65736
     2013.32785       -10.05234         5.60208
     2013.33059        -5.01539         5.68993
     2013.33333        -9.57444         5.57147
     2013.33607        -9.32948         5.54680
     2013.33880        -6.54053         5.54285
     2013.34154         0.17742         5.64255
     2013.34428         1.38138         5.52804
     2013.34702         5.04133         5.65341
     2013.34976        -1.25171         5.66032
     2013.35249        -9.51276         5.71461
     2013.35523        -3.54081         5.68105
     2013.35797        -6.96085         5.54581
     2013.36071        -1.52590         5.56654
     2013.36344         9.80406         5.63070
     2013.36618         3.81901         5.61886
     2013.36892         2.61496         5.55469
     2013.37166        -0.06008         5.54877
     2013.37440        -1.94413         5.52804
     2013.37713         0.06282         5.53989
     2013.37987        -2.64322         5.52705
     2013.38261        -3.23627         5.51718
     2013.38535        -2.81431         5.54581
     2013.38809        -1.89836         5.56259
     2013.39082        -3.93141         5.69191
     2013.39356        -0.69545         5.51718
     2013.39630        -1.64150         5.50435
     2013.39904         2.11646         5.56062
     2013.40177        -4.26659         5.54285
     2013.40451        -0.52964         5.57345
     2013.40725         0.40332         5.72251
     2013.40999        -3.30173         5.51619
     2013.41273        -6.67478         5.52014
     2013.41546        -8.71282         5.57542
     2013.41820        -5.37587         5.58826
     2013.42094         3.71509         5.61590
     2013.42368        -7.41896         5.59615
     2013.42642        -6.72401         5.56753
     2013.42915         5.48495         5.52705
     2013.43189         2.51590         5.72448
     2013.43463         7.55085         5.71757
     2013.43737         0.26381         5.56851
     2013.44010         3.90576         5.58924
     2013.44284         7.09972         5.66131
     2013.44558        -3.90833         5.65242
     2013.44832        -7.76738         5.68105
     2013.45106        -5.54342         5.71066
     2013.45379        -2.01047         5.49546
     2013.45653        -5.05051         5.50731
     2013.45927        -1.23456         5.56950
     2013.46201         5.46039         5.64058
     2013.46475         0.46535         5.55864
     2013.46748        -4.88270         5.53890
     2013.47022        -2.85275         5.54877
     2013.47296        -3.02479         5.39083
     2013.47570        -4.24684         5.42834
     2013.47843         5.99512         5.55371
     2013.48117        -1.14693         5.54581
     2013.48391        -0.79798         5.62478
     2013.48665        -1.02202         5.52212
     2013.48939        -4.48907         5.44413
     2013.49212         1.24489         5.75805
     2013.49486         2.93384         5.62281
     2013.49760       -12.03321         5.69684
     2013.50034        -6.57925         5.56160
     2013.50308         2.48670         5.58431
     2013.50581         6.53965         5.54285
     2013.50855        -2.00739         5.51718
     2013.51129         7.07756         5.49941
     2013.51403         0.97752         5.42439
     2013.51676         1.61947         5.49448
     2013.51950         0.05342         5.39477
     2013.52224         4.53238         5.43426
     2013.52498         6.35933         5.76792
     2013.52772         4.25628         5.47473
     2013.53045        -2.93976         5.46684
     2013.53319        -0.81081         5.45203
     2013.53593         1.87615         5.44611
     2013.53867         5.67110         5.56654
     2013.54141         8.36605         5.53001
     2013.54414        -1.87499         5.48461
     2013.54688         1.48896         5.45598
     2013.54962         2.08292         5.47276
     2013.55236         5.47887         5.48855
     2013.55509         2.68382         5.50336
     2013.55686        16.61408        10.20318
     2013.57529         8.40523        11.91786
     2013.57700        14.66545         5.53890
     2013.57974         3.52441         5.49349
     2013.58247        10.85136         5.79260
     2013.58521         5.67231         5.57641
     2013.58795        10.32927         5.41945
     2013.59069         7.23222         5.39477
     2013.59342         4.89318         5.44413
     2013.59616         8.18713         5.48559
     2013.59890         6.09808         5.48559
     2013.60164        11.21804         5.39379
     2013.60438         8.00399         5.53989
     2013.60711         8.14595         5.44018
     2013.60985         4.31290         5.65242
     2013.61259        12.45985         5.58431
     2013.61533        12.09081         5.71264
     2013.61807         3.90976         5.47671
     2013.62080         7.73071         5.38589
     2013.62257         4.73998         9.95047
     2013.63529         3.09305         8.79452
     2013.63723        10.44544         5.40070
     2013.63997         5.38239         6.40265
     2013.64271        10.45735         5.62083
     2013.64544        10.86630         5.47770
     2013.64818        10.75425         5.48658
     2013.65092        15.57421         5.45302
     2013.65366        13.63816         5.47177
     2013.65639         8.90511         5.46980
     2013.65913         8.44207         5.90020
     2013.66187        14.53002         5.47770
     2013.66461        11.78798         5.39280
     2013.66735        15.54593         5.44709
     2013.67008        14.92988         5.49250
     2013.67282        11.44684         5.59122
     2013.67556        13.62379         5.90809
     2013.67830        12.24574         6.07986
     2013.68104         7.40970         5.65736
     2013.68377         7.15665         5.41254
     2013.68651         6.05261         5.39872
     2013.68925         6.91256         5.46782
     2013.69199        10.64851         5.40366
     2013.69472        11.63047         5.40563
     2013.69746        12.19442         5.52212
     2013.70020         7.06838         5.58727
     2013.70294        13.93833         5.48757
     2013.70568        10.79228         5.45499
     2013.70841        14.66524         5.65440
     2013.71115        11.10519         5.46980
     2013.71389        -0.01386         5.44018
     2013.71663         4.13810         5.37799
     2013.71937         5.88105         5.44808
     2013.72210        15.26301         5.43031
     2013.72484        15.32896         5.62182
     2013.72758        11.70791         5.45400
     2013.73032        14.99287         5.50040
     2013.73305        13.57882         5.39083
     2013.73579        13.33977         5.40267
     2013.73853         8.30273         5.36615
     2013.74127        10.83468         5.37010
     2013.74401        11.26664         5.60010
     2013.74674        15.65459         5.52014
     2013.74948         6.37854         5.40761
     2013.75222         6.22250         5.39872
     2013.75496         3.79345         5.39181
     2013.75770         0.32541         5.42340
     2013.76043        -1.99364         5.39477
     2013.76317         1.33231         5.40563
     2013.76591         6.04527         5.44907
     2013.76865         3.55522         5.37997
     2013.77138         9.17417         5.39083
     2013.77412        10.90413         5.46782
     2013.77686         5.24508         5.46388
     2013.77960         6.80404         5.47770
     2013.78234         3.63499         5.44413
     2013.78507        -4.10006         5.52212
     2013.78781        -3.88410         5.42439
     2013.79055        -1.80515         5.42735
     2013.79329         3.04781         5.43130
     2013.79603         2.71076         5.36911
     2013.79876         4.19671         5.38293
     2013.80150         6.09367         5.53791
     2013.80424         7.17062         5.58628
     2013.80698         2.30957         5.33949
     2013.80971         5.74753         5.36417
     2013.81245         6.44948         5.39280
     2013.81519         3.78244         5.39083
     2013.81793         2.46039         5.43031
     2013.82067         1.98434         5.41156
     2013.82340         8.77130         5.38688
     2013.82614        11.53125         5.54383
     2013.82888         7.01020         5.37898
     2013.83162         0.97516         5.43821
     2013.83436         5.60911         5.52903
     2013.83709         5.25607         5.56555
     2013.83983        13.25702         5.48855
     2013.84257         4.13597         5.47967
     2013.84531         0.33493         5.51817
     2013.84804        -6.88512         5.43525
     2013.85078         4.04784         5.38589
     2013.85352         5.23179         5.43525
     2013.85626         1.22774         5.38490
     2013.85900         0.46270         5.33752
     2013.86173         0.57165         5.35035
     2013.86447        -0.17140         5.33949
     2013.86721         1.45956         5.45697
     2013.86995        -0.93349         5.37306
     2013.87269        10.08047         5.36319
     2013.87542        16.94642         5.35529
     2013.87816         9.16637         5.37306
     2013.88090         9.60933         5.48855
     2013.88364         8.65728         5.66427
     2013.88637         3.24524         5.49744
     2013.88911        -8.56981         5.40662
     2013.89185        -6.50586         5.37306
     2013.89459        -3.99390         5.36319
     2013.89664         3.30556         7.45002
     2013.90006        -2.67700         5.44611
     2013.90280        -4.35304         5.45697
     2013.90554        -0.41009         5.35134
     2013.90828         4.25387         5.39280
     2013.91102         1.18282         5.38885
     2013.91375         0.21977         5.41057
     2013.91649         3.57773         5.41254
     2013.91923         8.00168         5.51225
     2013.92197         4.46963         5.48263
     2013.92470         7.88659         5.38293
     2013.92744         4.72154         5.49546
     2013.93018         4.93650         5.31876
     2013.93292         5.11345         5.39379
     2013.93566         0.05740         5.39181
     2013.93839         1.61536         5.39675
     2013.94113         0.07331         5.38589
     2013.94387        -1.39473         5.35529
     2013.94661         1.83222         5.43031
     2013.94935         0.66017         5.41847
     2013.95208        -1.06787         5.41452
     2013.95482         4.52608         5.47868
     2013.95756        -0.58797         5.35529
     2013.96030         0.67099         5.32370
     2013.96303         4.13294         5.38293
     2013.96577         1.43890         5.36911
     2013.96851         2.44285         5.43130
     2013.97125        -4.13220         5.49053
     2013.97399        -4.34724         5.49744
     2013.97672        -9.00029         5.53989
     2013.97946        -5.48434         5.46585
     2013.98220        -2.87638         5.55568
     2013.98494        -4.60243         5.41254
     2013.98767        -5.46947         5.43722
     2013.99041        -4.87852         5.47177
     2013.99315        -9.09757         5.47079
     2013.99589        -3.15361         5.47177
     2013.99863        -6.76666         5.48954
     2014.00416        -0.49271         5.53199
     2014.00684         4.20820         5.43624
     2014.00958        -3.35884         5.45400
     2014.01232        -6.84089         5.51422
     2014.01505        -3.73494         5.53791
     2014.01779         0.49102         5.51817
     2014.02053        -8.22903         5.47079
     2014.02327       -13.59907         5.81826
     2014.02600         1.81688         5.69487
     2014.02874         3.67083         5.48658
     2014.03148        12.00579         5.44315
     2014.03422         4.39574         5.46881
     2014.03696         0.29670         5.38392
     2014.03969         0.10465         5.40366
     2014.04243         0.69860         5.82715
     2014.04517         3.87856         5.53001
     2014.04791        -0.76849         5.36812
     2014.05065         1.45846         5.34443
     2014.05338        -1.73258         5.38786
     2014.05612        -5.86663         5.37207
     2014.05886        -1.39967         5.37799
     2014.06160         2.08528         5.61195
     2014.06433         0.02023         5.53100
     2014.06707         1.41019         5.56555
     2014.06981         4.08614         5.45499
     2014.07255         4.27409         5.39971
     2014.07529         0.52705         5.39181
     2014.07802        -8.90100         5.42538
     2014.08076        -7.37404         5.45302
     2014.08350         5.77291         5.34542
     2014.08624        -1.30114         5.48263
     2014.08898         0.47982         5.56555
     2014.09171         0.44177         5.61787
     2014.09445         4.74573         5.39379
     2014.09719        -0.55932         5.49053
     2014.09993         5.46563         5.35430
     2014.10266        -8.05741         5.55963
     2014.10540       -10.39346         5.42834
     2014.10814        -9.54151         5.44709
     2014.11088        -6.72455         5.54186
     2014.11362        -3.03560         5.45795
     2014.11635         1.58236         5.54778
     2014.11909         4.65031         5.48164
     2014.12183         1.75126         5.46684
     2014.12457         1.98522         5.54581
     2014.12731         8.46017         5.41254
     2014.13004         2.04312         5.37799
     2014.13278         4.40108         5.53890
     2014.13552         9.98803         5.58332
     2014.13826         3.97399         5.37799
     2014.14099         8.40594         5.44709
     2014.14373         0.34789         5.46585
     2014.14647         2.86985         5.46388
     2014.14921         0.13580         5.47276
     2014.15195         2.06176         5.45006
     2014.15468         2.17471         5.51521
     2014.15742         4.81866         5.58431
     2014.16016         3.26462         5.73435
     2014.16290         2.91157         5.53495
     2014.16564        -0.69448         5.66624
     2014.16837        -6.23752         5.68895
     2014.17111        -1.79557         5.67907
     2014.17385         2.04639         5.68598
     2014.17659         2.80134         5.60405
     2014.17932         4.14329         5.76890
     2014.18206         1.23625         5.58332
     2014.18480         5.50720         5.62281
     2014.18754         0.19016         5.51323
     2014.19028        -1.66889         5.54186
     2014.19301         1.37206         5.48461
     2014.19575         4.13102         5.43525
     2014.19849         6.69797         5.53001
     2014.20123        -4.06308         5.52607
     2014.20397        -7.18212         5.45400
     2014.20670         5.28783         5.56358
     2014.20944         5.48679         5.48164
     2014.21218         4.52574         5.51718
     2014.21492         6.86069         5.60405
     2014.21765         4.51465         5.50731
     2014.22039         1.47360         5.45894
     2014.22313        -0.37145         5.48954
     2014.22587        -0.18349         5.49744
     2014.22861         2.91646         5.70178
     2014.23134        12.16642         5.60800
     2014.23408         6.42937         5.47770
     2014.23682         0.47532         5.54186
     2014.23956        -0.75172         5.61096
     2014.24230        -1.36277         5.57147
     2014.24503        -0.92181         5.51916
     2014.24777         4.00014         5.67809
     2014.25051        -4.93391         5.47375
     2014.25325        -3.34295         5.45598
     2014.25598         2.12600         5.63860
     2014.25872        -0.19305         5.51619
     2014.26146         5.87891         5.66131
     2014.26420        -6.06014         5.46585
     2014.26694        -2.67018         5.70968
     2014.26967         4.82977         5.59023
     2014.27241         2.09072         5.63465
     2014.27515         1.33968         5.60504
     2014.27789         2.87863         5.56950
     2014.28062         1.10459         5.57542
     2014.28336        -0.90246         5.54877
     2014.28610         2.65949         5.55667
     2014.28884         2.34845         6.06406
     2014.29158        -3.28060         5.46782
     2014.29431         6.63235         5.58233
     2014.29705         3.77431         5.50237
     2014.29979         1.81526         5.47079
     2014.30253        -1.64178         5.53692
     2014.30527         2.12217         5.49250
     2014.30800        -1.01388         5.48362
     2014.31074         0.05908         5.50928
     2014.31348         3.53303         5.47572
     2014.31622         0.94798         5.47079
     2014.31895         0.05394         5.52607
     2014.32169        -7.99711         5.61984
     2014.32443       -13.39115         5.62379
     2014.32717       -15.29220         5.64650
     2014.32991        -2.87725         5.48066
     2014.33264        -5.36029         5.51027
     2014.33538        -3.17034         5.51126
     2014.33812         0.51762         5.64650
     2014.34086         2.15957         5.45499
     2014.34360        -1.30248         5.49843
     2014.34633        -1.37352         5.54778
     2014.34907        -1.36257         5.96535
     2014.35181         2.45938         5.65736
     2014.35455        -4.62766         5.45795
     2014.35728        -5.23171         5.47770
     2014.36002       -10.69975         5.51126
     2014.36276       -12.73280         5.48362
     2014.36550        -6.52885         5.43624
     2014.36824        -6.91689         5.53298
     2014.37097         1.47806         5.91402
     2014.37371         0.54901         5.48263
     2014.37645        -2.08203         5.60010
     2014.37919        -1.19908         5.53692
     2014.38193        -5.60412         5.54383
     2014.38466         2.68583         5.60800
     2014.38740        -5.80022         5.64749
     2014.39014        -1.35126         5.62873
     2014.39288        -9.50031         5.68993
     2014.39561        -2.72535         5.59813
     2014.39835        -3.52440         5.61984
     2014.40109         2.48355         5.58431
     2014.40383        -4.23349         5.62972
     2014.40657       -11.24354         5.56062
     2014.40930        -9.11959         5.60800
     2014.41204        -5.38663         5.69289
     2014.41478        -3.64568         5.51126
     2014.41752         1.68928         5.44117
     2014.42026         0.32223         5.59714
     2014.42299        -2.13182         5.62281
     2014.42573        -8.08086         5.58727
     2014.42847        -7.85891         5.79654
     2014.43121        -3.52595         5.45894
     2014.43394        -4.36900         5.58826
     2014.43668         2.75695         5.59023
     2014.43942        -8.17109         5.66328
     2014.44216        -3.72814         5.54087
     2014.44490        -0.25419         5.66427
     2014.44763         3.82177         5.79457
     2014.45037        -1.07828         5.55963
     2014.45311        -2.60832         5.45400
     2014.45585         1.46763         5.56950
     2014.45859        -5.50742         5.53396
     2014.46132        -5.33946         5.48658
     2014.46406        -5.94851         5.57345
     2014.46680        -4.20556         6.07788
     2014.46954        -2.08360         5.59220
     2014.47227         2.51535         5.56259
     2014.47501        -3.74469         5.52113
     2014.47775         1.99826         5.49843
     2014.48049         0.28321         5.56160
     2014.48323         0.20817         5.51817
     2014.48596         8.04312         5.59911
     2014.48870         6.68808         5.51422
     2014.49144         8.71703         5.46782
     2014.49418         1.55198         5.51817
     2014.49692        -8.73806         5.48066
     2014.49965        -2.93411         5.45697
     2014.50239         7.24684         5.59615
     2014.50513        -1.09220         5.52705
     2014.50787         0.86375         5.54778
     2014.51060        -0.00929         5.44709
     2014.51334        -0.81134         5.43920
     2014.51608         6.50561         5.52804
     2014.51882         3.04757         5.60109
     2014.52156        13.17052         5.66427
     2014.52429         7.69947         5.52607
     2014.52703        -1.32357         5.45302
     2014.52977         3.44838         5.49843
     2014.53251         2.62834         5.68993
     2014.53525        11.25429         5.60208
     2014.53798         2.78024         5.56950
     2014.54072        11.21820         5.63959
     2014.54346         4.16715         5.45795
     2014.54620         6.42111         5.75212
     2014.54893         6.48006         5.48559
     2014.55110         7.48561         8.00677
     2014.56103        11.89469        15.30280
     2014.56262         1.18183         5.46486
     2014.56536         5.52978         5.51027
     2014.56810         3.79274         5.42735
     2014.57084         1.78769         5.46881
     2014.57300         6.18024         7.40066
     2014.57757       -16.48151        24.76068
     2014.57905         1.90455         5.63465
     2014.58179         5.71851         5.52607
     2014.58453         0.74446         5.69586
     2014.58726         6.62741         5.81826
     2014.59000         8.88437         5.66328
     2014.59274         4.52432         5.68993
     2014.59548         6.00527         5.69388
     2014.59770         6.86686         7.16967
     2014.62917        -2.37468         9.43222
     2014.63056        17.53131         6.93177
     2014.63763         5.45435        14.72630
     2014.63928         3.98254         5.73139
     2014.64202         4.44549         5.59615
     2014.64476         3.48544         5.56851
     2014.64750        10.07540         5.49744
     2014.65023        -0.06365         5.51916
     2014.65252        11.68398         6.72150
     2014.65942        11.68290        11.22982
     2014.66119        11.23817         5.59714
     2014.66392        14.77812         5.64058
     2014.66666        12.07607         5.59319
     2014.66940         5.83303         5.55272
     2014.67214        11.68798         5.55074
     2014.67431         6.00553         7.18448
     2014.71150        16.53907        12.33543
     2014.71321        10.05429         5.67216
     2014.71594         4.51324         5.58233
     2014.71868         2.78420         5.58036
     2014.72142        -0.79485         5.51521
     2014.72416         3.24711         5.55272
     2014.72689        15.08306         5.65045
     2014.72963         7.22601         5.47770
     2014.73237         3.11397         5.64650
     2014.73511        -1.84008         5.60405
     2014.73785         4.39587         5.68697
     2014.74058         7.66483         5.54877
     2014.74332        13.46478         5.60109
     2014.74606        14.92773         5.68204
     2014.74880        10.42169         5.68697
     2014.75154         0.61464         5.71461
     2014.75427         1.84960         5.72646
     2014.75701        -1.70145         5.51126
     2014.75975        -2.76850         5.55568
     2014.76249         4.43046         5.54087
     2014.76522         5.45741         5.54976
     2014.76796         5.43536         5.51126
     2014.77030         4.60303         6.56850
     2014.82922         1.03108        12.06100
     2014.83093         0.90930         5.65242
     2014.83367        10.40126         5.61195
     2014.83641        -1.91079         5.56753
     2014.83915         3.13516         5.54581
     2014.84188         5.98811         5.79457
     2014.84462        -2.82093         5.62281
     2014.84736        -1.92697         5.67611
     2014.85010        -1.76202         5.64255
     2014.85284        -1.12107         5.61293
     2014.85557         5.77689         5.66032
     2014.85832        -3.27516         5.86663
     2014.86105        -0.83021         5.60306
     2014.86379        -3.11525         5.58332
     2014.86653        -2.95630         5.67216
     2014.86926       -15.93534         5.68697
     2014.87200        -5.19039         5.83011
     2014.87474        -4.23444         5.68598
     2014.87748        -5.16148         5.89329
     2014.88021        -0.80653         6.17265
     2014.88295         1.01143         5.72744
     2014.88569         0.68038         5.90809
     2014.88843         4.50933         6.02754
     2014.89117         7.15529         6.08183
     2014.89390         6.19924         5.77779
     2014.89664         5.72019         5.87354
     2014.89938        -2.76085         5.82024
     2014.90212        -4.05390         5.76496
     2014.90485        -3.20494         5.68204
     2014.90759         2.89601         5.74817
     2014.91033         0.93096         5.73435
     2014.91307         3.90192         5.53298
     2014.91581        -2.74913         5.51619
     2014.91854        -5.90518         5.68302
     2014.92128        -4.57322         5.53396
     2014.92402         3.32773         5.48757
     2014.92676         4.34369         5.48658
     2014.92950        -6.17136         5.60109
     2014.93223        -5.97041         5.57641
     2014.93497        -5.44745         5.49448
     2014.93771        -6.66050         5.54778
     2014.94016        -2.46475         6.23978
     2014.94419        10.78213        12.17255
     2014.94592         2.14136         5.53989
     2014.94866        -3.48468         5.51422
     2014.95140        -3.40073         5.45203
     2014.95414         0.37022         5.45104
     2014.95687         2.95118         5.41057
     2014.95961         4.38913         5.45499
     2014.96235        -2.72491         5.44512
     2014.96509         1.52504         5.57641
     2014.96783        -3.39301         5.46289
     2014.97056         2.87995         5.40662
     2014.97330         1.23690         5.66131
     2014.97604       -10.90114         5.52508
     2014.97878        -3.75619         5.53692
     2014.98151         0.44676         5.60109
     2014.98425         0.09072         5.49448
     2014.98699        -1.10233         5.45203
     2014.98973       -10.08538         5.57542
     2014.99247       -11.63142         5.75508
     2014.99520       -12.89947         5.53298
     2014.99794        -1.53951         5.48954
     2015.00068        -1.68056         5.41748
     2015.00342        -6.23361         5.50139
     2015.00616        -8.94965         5.41156
     2015.00889        -7.14770         5.51817
     2015.01163        -9.37075         5.51521
     2015.01437        -5.31679         5.45795
     2015.01711        -4.26684         5.54680
     2015.01984        -1.52488         5.55765
     2015.02258        -1.72493         5.56555
     2015.02532        -0.03598         5.41452
     2015.02806        -4.49002         5.43525
     2015.03080        -3.43107         5.72744
     2015.03353        -3.14111         5.49448
     2015.03627        -4.07816         5.49448
     2015.03901        -0.85921         5.43624
     2015.04175        -0.13725         5.61688
     2015.04449        -5.08530         5.42636
     2015.04722       -12.48935         5.49941
     2015.04996        -3.79539         5.76002
     2015.05270        -6.09844         5.39971
     2015.05544        -5.29448         5.41254
     2015.05817        -1.17053         5.39576
     2015.06091        -3.40058         5.41353
     2015.06365         1.86838         5.60602
     2015.06639        -2.91667         5.46289
     2015.06913        -2.52771         5.41748
     2015.07186        -8.85976         5.42143
     2015.07460        -1.25381         5.51619
     2015.07734       -11.80685         5.42538
     2015.08008       -10.58590         5.42241
     2015.08282        -5.12295         5.43327
     2015.08555        -3.17299         5.47572
     2015.08829         3.22696         5.49250
     2015.09103         4.94892         5.42241
     2015.09377        -0.12013         5.45400
     2015.09650        -3.88918         5.50336
     2015.09924         1.69378         5.50830
     2015.10198         3.33973         5.63761
     2015.10472         7.24569         5.49744
     2015.10746         2.38364         5.50928
     2015.11019        -6.31241         5.52705
     2015.11293        -8.51445         5.51422
     2015.11566       -10.18150         5.49448
     2015.11841       -11.26655         5.47671
     2015.12115        -5.34759         5.63564
     2015.12388        -3.19764         5.56259
     2015.12662        -8.21068         5.42735
     2015.12936        -6.28573         5.46091
     2015.13210        -9.76278         5.78766
     2015.13483        -4.45882         5.56062
     2015.13757         6.72813         5.58727
     2015.14031        -2.92692         5.47276
     2015.14305        -3.14896         5.44018
     2015.14579        -6.79701         5.40366
     2015.14847        -7.36109         5.55469
     2015.15217         7.73555         9.24071
     2015.15400        -4.14715         5.65440
     2015.15674        -0.01019         5.42636
     2015.15948         1.82876         5.43525
     2015.16221        -4.47729         5.39675
     2015.16495        -2.76433         5.42439
     2015.16769        -3.41138         5.44611
     2015.17043        -5.27842         5.42143
     2015.17316        -5.79147         5.56160
     2015.17590        -4.74052         5.64156
     2015.17813         2.59907         7.12624
     2015.19319        -8.18918         8.53589
     2015.19507        -1.11084         5.54482
     2015.19780        -0.71189         5.42735
     2015.20054         1.18007         5.43426
     2015.20328        -7.50098         5.52804
     2015.20602        -3.84002         5.51225
     2015.20876        -1.26807         5.62774
     2015.21149        -7.55712         5.38490
     2015.21423        -9.12616         5.72448
     2015.21697        -3.27721         5.48954
     2015.21971        -8.47825         5.39971
     2015.22245         5.07270         5.47868
     2015.22518        -0.59235         5.45993
     2015.22792         1.60161         5.34739
     2015.23066        -4.00744         5.42241
     2015.23340        -1.58449         5.53989
     2015.23613         5.68947         5.70375
     2015.23887        -1.45158         5.62774
     2015.24161        -2.69962         5.62281
     2015.24435        -2.62067         5.68500
     2015.24709        -1.73972         5.56062
     2015.24982        -5.83476         5.40563
     2015.25256        -3.37781         5.36121
     2015.25530        -0.83486         5.37701
     2015.25804        -1.41890         5.38095
     2015.26078         6.27605         5.41156
     2015.26351         2.79901         5.45203
     2015.26625         2.87796         5.40563
     2015.26899        -1.53209         5.46585
     2015.27173         3.25987         5.56456
     2015.27446        11.71982         5.56456
     2015.27720         3.51578         5.51323
     2015.27994         0.14873         5.46585
     2015.28268         0.05968         5.47671
     2015.28542         5.99764         5.64847
     2015.28815        -0.66341         5.59813
     2015.29089        -1.93146         5.45006
     2015.29363        -8.84150         5.54581
     2015.29637        -6.69855         5.52014
     2015.29911         2.83241         5.45499
     2015.30184         2.75236         5.53594
     2015.30458         3.14431         5.50040
     2015.30732         0.25527         5.34838
     2015.31006         2.06422         5.38786
     2015.31279        -0.18383         5.32962
     2015.31553        -3.71987         5.27632
     2015.31827        -8.42792         5.45993
     2015.32101        -7.61296         5.27336
     2015.32375        -0.39001         5.34443
     2015.32648         1.14194         5.51521
     2015.32922        -3.81410         5.44907
     2015.33196        -2.05815         5.31087
     2015.33470         2.16781         5.27632
     2015.33744        -1.27024         5.44413
     2015.34017         0.60871         5.42636
     2015.34291        -3.50233         5.32864
     2015.34565         1.69562         5.30198
     2015.34839        -1.03243         5.31185
     2015.35112        -3.05647         5.36812
     2015.35386        -4.12852         5.52705
     2015.35660        -4.53356         5.42143
     2015.35934        -1.14661         5.59813
     2015.36208        -2.69866         5.57049
     2015.36481         0.84230         5.36022
     2015.36755        -6.44875         5.40465
     2015.37029         0.73921         5.38984
     2015.37303        -0.14184         5.37503
     2015.37577        -4.77089         5.33357
     2015.37850        -7.03093         5.53100
     2015.38124        -6.06498         5.44709
     2015.38398        -4.49803         5.39774
     2015.38672        -0.05707         5.35331
     2015.38945        -6.81012         5.43229
     2015.39219        -2.48216         5.41057
     2015.39493        -2.34821         5.46486
     2015.39767        -7.72526         5.51718
     2015.40041        -6.26630         5.49448
     2015.40314        -6.86335         5.48263
     2015.40588       -10.06540         5.40070
     2015.40862        -3.16044         5.41550
     2015.41136         0.30151         5.39675
     2015.41410        -0.56253         5.53199
     2015.41684        -8.48658         5.47572
     2015.41957        -1.27163         5.33160
     2015.42231        -3.17567         5.52705
     2015.42505        -9.56872         5.58628
     2015.42778        -6.51676         5.65440
     2015.43052         6.13619         5.43031
     2015.43326        -7.46386         5.35331
     2015.43600         0.04610         5.48362
     2015.43874         0.05005         5.39280
     2015.44147         1.55700         5.64452
     2015.44421        -5.73704         5.38786
     2015.44695        -1.40109         5.40465
     2015.44969        -6.82813         5.39477
     2015.45243        -2.65818         5.50040
     2015.45516         0.46677         5.43031
     2015.45796        -3.26723         5.74225
     2015.46064         0.12168         5.52705
     2015.46338         0.62564         5.68204
     2015.46611        10.55559         5.44117
     2015.46885         7.37754         5.42636
     2015.47159         3.30650         5.38293
     2015.47433         0.05845         5.58135
     2015.47707        -4.66360         5.54877
     2015.47980        -0.56164         5.45499
     2015.48254        -0.81969         5.50237
     2015.48528        -1.31173         5.40366
     2015.48802        -0.68178         5.34443
     2015.49076        -3.32383         5.48559
     2015.49349        -0.55187         5.86268
     2015.49623         7.05208         5.53495
     2015.49896         1.20403         5.61491
     2015.50171         7.58299         5.42340
     2015.50444         4.31094         5.37404
     2015.50718         0.77590         5.49349
     2015.50992        10.03785         5.40070
     2015.51266         3.69180         5.34246
     2015.51540         4.38376         5.61392
     2015.51813        14.02971         5.72744
     2015.52093         0.42271         5.71955
     2015.52361         0.86262         5.49941
     2015.52635         2.57457         5.53396
     2015.52908         2.96053         5.49941
     2015.53182         8.10148         5.55963
     2015.53456         7.17343         5.52903
     2015.53730         6.35339         5.55963
     2015.54004         5.81134         5.59615
     2015.54277        -0.80570         5.54383
     2015.54551         5.48925         5.44512
     2015.54825         8.22020         5.50237
     2015.55099         8.47816         5.57641
     2015.55373        12.20711         5.63959
     2015.55646         9.24906         5.66427
     2015.55920         7.15902         5.67809
     2015.56194         6.54997         5.63367
     2015.56468        16.94893         5.60800
     2015.56741         3.47488         5.72350
     2015.57015         3.30283         5.67414
     2015.57289         3.93578         5.58233
     2015.57563         4.33674         5.47276
     2015.57837         4.62570         5.53396
     2015.58110        10.25365         5.54680
     2015.58384         8.98860         5.53791
     2015.58658         9.34656         5.57838
     2015.58932         8.18251         5.70277
     2015.59206        12.97946         5.74423
     2015.59479         7.91342         5.45795
     2015.59753        12.37837         5.52212
     2015.60027         9.37433         5.59418
     2015.60301        11.94828         5.60602
     2015.60574        15.04523         5.56555
     2015.60848         8.97219         5.51422
     2015.61122         8.42414         5.54186
     2015.61396        12.46510         5.46585
     2015.61670         7.31005         5.52705
     2015.61943         2.58500         5.35529
     2015.62217         7.35496         5.37997
     2015.62491         6.75491         5.45894
     2015.62765         6.23686         5.42044
     2015.63039        12.61482         5.30593
     2015.63312         7.48277         5.35134
     2015.63586        12.93373         5.84985
     2015.63860        10.02968         5.53692
     2015.64134         7.64463         5.33061
     2015.64407         5.81759         5.36516
     2015.64681         9.57854         5.42538
     2015.64955         7.26049         5.27928
     2015.65229         8.75745         5.47473
     2015.65503        13.53640         5.32666
     2015.65776        11.77836         5.47770
     2015.66050        10.58231         5.56654
     2015.66324        11.41226         5.29211
     2015.66598         7.82822         5.44413
     2015.66872        14.87217         5.51718
     2015.67145         0.71513         5.40465
     2015.67419         9.19208         5.30297
     2015.67693        10.02303         5.30494
     2015.67967         3.89399         5.29211
     2015.68240         1.91794         5.32271
     2015.68514        12.59589         5.37602
     2015.68788         7.95085         5.34048
     2015.69062         2.43380         5.35035
     2015.69336         4.61576         5.47868
     2015.69609         3.84671         5.33357
     2015.69883        11.65666         5.36516
     2015.70157        12.79362         5.40761
     2015.70431         8.55957         5.36713
     2015.70705         8.80252         5.34443
     2015.70978         7.06948         5.31284
     2015.71252         4.01343         5.33258
     2015.71526         6.63139         5.34344
     2015.71800         8.73034         5.38194
     2015.72073        12.47929         5.35331
     2015.72307         4.72396         6.23287
     2015.72997         6.89789        10.72538
     2015.73169         3.73311         5.35035
     2015.73363         6.58549         8.27725
     2015.73716         9.04402         5.35035
     2015.73990        14.46297         5.43426
     2015.74264        10.13692         5.41847
     2015.74538        14.41388         5.58628
     2015.74811         7.00483         5.70869
     2015.75085         2.20379         5.40267
     2015.75359         6.59974         5.43426
     2015.75633        11.44269         5.37010
     2015.75906         8.53265         5.32864
     2015.76180         1.13960         5.40859
     2015.76454         4.73256         5.49941
     2015.76728         2.50351         5.39083
     2015.77002         1.65746         5.36615
     2015.77275         5.46342         5.52014
     2015.77549         5.45837         5.56160
     2015.77823        10.44532         5.37108
     2015.78097         7.73828         5.39576
     2015.78371         8.18923         5.37503
     2015.78650         6.39223         5.45894
     2015.78918         4.16114         5.32469
     2015.79192         9.16809         5.38786
     2015.79466        12.62305         5.41550
     2015.79739         6.68800         5.40070
     2015.80013         3.71595         5.58233
     2015.80287         0.60891         5.32864
     2015.80561         5.58186         5.32173
     2015.80835         1.99182         5.47375
     2015.81108        -0.08723         5.33851
     2015.81382         1.07472         5.38688
     2015.81656         1.29568         5.38885
     2015.81930         1.10563         5.38293
     2015.82203         8.52859         5.37701
     2015.82477         7.45454         5.47177
     2015.82751         8.10349         5.43229
     2015.83025        12.05945         5.39379
     2015.83299        14.15940         5.54186
     2015.83572         4.50035         5.39280
     2015.83846         4.55431         5.56753
     2015.84120         6.06526         5.46289
     2015.84394         2.72222         5.46782
     2015.84668         2.22817         5.49843
     2015.84941         2.75712         5.51619
     2015.85215         7.24008         5.52409
     2015.85489         9.08703         5.49546
     2015.85763         2.23299         5.48757
     2015.86036         0.80194         5.54581
     2015.86310         2.94489         5.56259
     2015.86584         6.59485         5.48954
     2015.86858         2.76580         5.52903
     2015.87132         4.18675         5.65143
     2015.87405        -2.70129         5.48954
     2015.87679         2.48666         5.61195
     2015.87953        17.05762         5.73830
     2015.88227        -2.66443         5.55173
     2015.88501        -2.32948         5.62577
     2015.88774        -5.82452         5.50534
     2015.89048         3.55843         5.56160
     2015.89322         6.60038         5.55568
     2015.89596         4.42434         5.52804
     2015.89869         8.44629         5.49349
     2015.90143         3.61925         5.50731
     2015.90417        -0.79880         5.57542
     2015.90691         1.65515         5.56259
     2015.90965         4.76111         5.53692
     2015.91238         1.98506         5.54778
     2015.91512         0.71802         5.58036
     2015.91786        -1.39403         5.54383
     2015.92060        -1.42708         5.66822
     2015.92334         1.38488         5.59911
     2015.92607        -4.81017         5.52607
     2015.92881        -1.56522         5.62577
     2015.93155         3.71774         5.76594
     2015.93429         8.34469         6.22102
     2015.93702         4.32065         5.79951
     2015.93976         3.31760         5.83899
     2015.94250         2.53555         5.73238
     2015.94524         0.53251         5.66328
     2015.94798         7.98346         5.72350
     2015.95071         6.28241         5.55173
     2015.95345        -1.98263         5.52705
     2015.95619        -0.53368         5.57838
     2015.95893        -1.84172         5.70079
     2015.96988         0.82009         5.55864
     2015.97262        11.22005         5.64946
     2015.97535         2.01300         5.59714
     2015.97809         0.99995         5.63268
     2015.98083        -2.59909         5.55963
     2015.98357        -9.70114         5.54186
     2015.98631        -7.49819         5.61688
     2015.98904        -5.42823         5.57937
     2015.99178        -9.04328         5.53692
     2015.99452        -7.03732         5.81036
     2015.99731        -7.67533         5.83406
     2016.00000        -6.94242         5.58529
     2016.00273       -11.78246         5.55963
     2016.00547        -5.96451         5.60602
     2016.00821        -6.42555         5.51916
     2016.01095         3.16440         5.57444
     2016.01368        -0.45765         5.54482
     2016.01642         0.94931         5.82517
     2016.01916         0.27626         5.77483
     2016.02190        -3.43579         5.63465
     2016.02464        -6.96183         5.57444
     2016.02737        -8.04188         5.45400
     2016.03011        -6.07892         5.43722
     2016.03285        -6.65397         5.53100
     2016.03559        -3.85502         5.43920
     2016.03833        -1.16006         5.66032
     2016.04106        -1.82911         5.53199
     2016.04380       -20.21816         5.54087
     2016.04654       -10.71320         5.68006
     2016.04928        -2.48525         5.50830
     2016.05201        -1.53129         5.43229
     2016.05475        -4.33134         5.43327
     2016.05749        -3.73039         5.46782
     2016.06023        -0.57043         5.46289
     2016.06297        -1.36448         5.40563
     2016.06570        -3.58452         5.51027
     2016.06844        -6.06957         5.56456
     2016.07118       -10.56462         5.71659
     2016.07392        -7.83266         5.57542
     2016.07666        13.02529         5.89230
     2016.07939         8.31424         5.81135
     2016.08213        -4.18480         5.74521
     2016.08487        -4.86585         5.49843
     2016.08761        -7.64289         5.50830
     2016.09034        -8.19194         5.51521
     2016.09308        -4.13099         5.62182
     2016.09542       -11.09532         6.44510
     2016.10483       -15.53260         8.47764
     2016.10677       -12.17022         5.52113
     2016.10951       -11.37726         5.51619
     2016.11225       -10.44731         5.57147
     2016.11498        -9.93636         5.49941
     2016.11772       -11.66440         5.51126
     2016.12046        -6.07845         5.44413
     2016.12320        -8.59049         5.48362
     2016.12594       -14.34554         5.49843
     2016.12867        -5.34759         5.50928
     2016.13141         9.11637         5.52014
     2016.13415        -1.47968         5.92586
     2016.13689        -5.33573         5.52705
     2016.13963        -8.02177         5.45499
     2016.14236       -14.57382         5.46585
     2016.14516       -13.16282         5.53001
     2016.14784       -12.46491         5.44216
     2016.15058        -7.08096         5.46782
     2016.15331        -3.34500         5.70671
     2016.15605        -4.44505         5.52409
     2016.15879        -8.63009         5.63465
     2016.16153       -10.42114         5.60306
     2016.16427        -7.38319         5.66822
     2016.16700        -0.91423         5.80938
     2016.16974        -2.84328         5.60109
     2016.17248       -10.37133         5.70474
     2016.17522        -4.95337         5.49448
     2016.17796         5.68158         5.73534
     2016.18069        -0.40046         5.58826
     2016.18343        -0.70851         5.72350
     2016.18617        -5.56256         5.46684
     2016.18891        -0.24060         5.46684
     2016.19164         1.42935         5.39971
     2016.19438         2.30030         5.41057
     2016.19712         0.25826         5.35233
     2016.19986         3.03321         5.60306
     2016.20260        -3.49983         5.48066
     2016.20533        -2.15188         5.64551
     2016.20807        -1.30593         5.58036
     2016.21081        -6.19197         5.56259
     2016.21355        -7.56502         5.44512
     2016.21629        -7.95006         5.37997
     2016.21902        -5.67511         5.54383
     2016.22176         8.05284         5.42044
     2016.22450        -4.81720         5.37898
     2016.22724        -2.46425         5.53989
     2016.22997        -0.97630         5.39971
     2016.23271        -3.30334         5.38984
     2016.23545        -2.33639         5.48559
     2016.23819         3.76557         5.45499
     2016.24093        10.48052         5.46388
     2016.24366         3.15047         5.40761
     2016.24640         0.06943         5.44512
     2016.24914        -5.11962         5.41057
     2016.25188        -0.92267         5.41353
     2016.25462         1.50229         5.48954
     2016.25735       -10.72776         5.50632
     2016.26009       -12.49380         5.53396
     2016.26283       -12.24885         5.44512
     2016.26557        -7.92690         5.45993
     2016.26830        -2.71694         5.41649
     2016.27104        -0.63399         5.45006
     2016.27378         4.34997         5.45203
     2016.27652        -0.42508         5.41748
     2016.27926         0.18187         5.39280
     2016.28142        -0.80258         7.19830
     2016.28815        -6.43078         7.71951
     2016.29021        -8.77631         5.45697
     2016.29295        -6.76036         5.45993
     2016.29568        -4.58840         5.37997
     2016.29842        -3.21245         5.53396
     2016.30116        -1.29050         5.54680
     2016.30390       -12.40354         5.50632
     2016.30663         2.29341         5.55371
     2016.30937        -5.53963         5.45499
     2016.31211        -5.13668         5.46091
     2016.31485         3.57827         5.51126
     2016.31759        -0.56177         5.47079
     2016.32032        -4.10082         5.48954
     2016.32306        -5.91987         5.44018
     2016.32580        -0.91691         5.41748
     2016.32854        -5.85396         5.45302
     2016.33128        -1.85400         5.50534
     2016.33401        -3.67305         5.49645
     2016.33675        -5.72710         5.46190
     2016.33949        -4.02414         5.69586
     2016.34223        -0.55119         5.54186
     2016.34496        -1.65824         5.72152
     2016.34770         0.38372         5.67710
     2016.35044        15.10167         5.71264
     2016.35318        -3.99037         5.47671
     2016.35592        -4.86342         5.42932
     2016.35865       -11.38347         5.41550
     2016.36139        -4.22851         5.44709
     2016.36413         0.87444         5.52804
     2016.36687        -1.60760         5.45795
     2016.36961         0.45035         5.53791
     2016.37234         5.85930         5.46980
     2016.37508         0.92426         5.48559
     2016.37782        -9.26779         5.48855
     2016.38056         0.02816         5.64749
     2016.38329         0.15012         5.41254
     2016.38603        -5.78393         5.46388
     2016.38877         1.46003         5.41353
     2016.39151        -1.67002         5.43031
     2016.39402        -6.47723         7.24864
     2016.41438        -6.80470        10.20516
     2016.41615        -1.26644         5.56160
     2016.41889         0.29952         5.49546
     2016.42162        -0.97053         5.54285
     2016.42436        -5.54357         5.46190
     2016.42710        -3.82862         5.42439
     2016.42984         0.66533         5.60602
     2016.43258         3.95129         5.57641
     2016.43531         6.53224         5.78766
     2016.43805         4.53719         5.51126
     2016.44079        -5.29185         5.52508
     2016.44353        -9.45690         5.47079
     2016.44626        -7.96694         5.47375
     2016.44900        -0.17599         5.50534
     2016.45174         2.88696         5.50632
     2016.45448         0.84392         5.38589
     2016.45722        -1.24813         5.44611
     2016.45995         4.10083         5.44117
     2016.46269        -0.85822         5.52014
     2016.46543        -4.83327         5.39675
     2016.46822        -3.58727         5.50534
     2016.47096        -2.40732         5.42044
     2016.47370        -1.78536         5.42932
     2016.47644         6.36559         5.52508
     2016.47918         8.98654         5.75903
     2016.48191        -0.42550         5.45203
     2016.48465         1.72545         5.36516
     2016.48739        -9.55260         6.27630
     2016.49013         9.89936         5.58332
     2016.49287         5.82631         5.52310
     2016.49560         4.00327         5.47079
     2016.49828         0.38018         5.42735
     2016.50102        -3.46087         5.35134
     2016.50376        -6.33491         5.59319
     2016.50650         5.66104         5.61392
     2016.50924         8.72899         5.42439
     2016.51197         0.84995         5.33752
     2016.51477        -0.97006         5.37010
     2016.51751        -0.82310         5.56456
     2016.52024        -9.55515         6.12428
     2016.52298         9.90980         5.61787
     2016.52572        -3.53624         5.45795
     2016.52846        -0.39129         5.44117
     2016.53120        -3.38733         5.40267
     2016.53393         1.49262         5.48658
     2016.53667         4.10457         5.46289
     2016.53941         5.41853         5.48855
     2016.54215         3.49048         5.55272
     2016.54488         8.56143         5.51619
     2016.54762         1.78039         5.47572
     2016.55036         0.87734         5.62379
     2016.55310         1.19930         5.46980
     2016.55584         7.35825         5.69388
     2016.55852        -2.19484         5.80839
     2016.56131         5.74416         5.48461
     2016.56405         0.95611         5.50435
     2016.56679         4.65306         5.64058
     2016.56953         1.73302         5.71757
     2016.57226         8.65797         5.55568
     2016.57500         6.85193         5.65637
     2016.57774         3.85388         5.49152
     2016.58048        12.80483         5.50928
     2016.58321         7.22079         5.45302
     2016.58595         6.74774         5.47572
     2016.58869         4.53970         5.46684
     2016.59137         0.33161         5.32962
     2016.59411         4.93456         5.37997
     2016.59685         7.14352         5.40070
     2016.59958         3.45047         5.55173
     2016.60232         5.62442         5.46980
     2016.60506         3.72138         5.32271
     2016.60780         2.22633         5.26743
     2016.61054         5.53529         5.37010
     2016.61327         1.85024         5.43525
     2016.61601         2.90219         5.34838
     2016.61875         4.25615         5.32567
     2016.62149        10.48510         5.42340
     2016.62423         7.81605         5.35134
     2016.62696         6.22801         5.30692
     2016.62970         1.92996         5.42143
     2016.63244         3.08992         5.48362
     2016.63518         2.83787         5.30692
     2016.63791         8.69382         5.28718
     2016.64060        15.13374         5.44117
     2016.64339         7.16273         6.00681
     2016.64613         0.20568         5.38194
     2016.64887         3.06164         6.04629
     2016.65160         7.43259         5.44315
     2016.65434         1.60655         5.30001
     2016.65708         4.41450         5.32962
     2016.65982         1.48545         5.39576
     2016.66256         4.89641         5.33752
     2016.66529         7.71736         5.36417
     2016.66803         1.74832         5.34937
     2016.67077        10.20527         5.67809
     2016.67351         7.49122         5.28224
     2016.67624        16.00918         5.29507
     2016.67898        13.37413         5.56753
     2016.68172        12.10408         5.28718
     2016.68446        10.46604         5.57641
     2016.68720         1.79599         5.73337
     2016.68993         5.31095         5.60899
     2016.69267         2.93690         5.29310
     2016.69541         4.98785         5.38194
     2016.69815        10.73381         5.43722
     2016.70089         5.65576         5.31482
     2016.70362         5.90972         5.40958
     2016.70636         3.70267         5.54778
     2016.70910         7.52062         5.58628
     2016.71184         7.88758         5.33160
     2016.71457        11.96153         5.38786
     2016.71731        11.60948         5.38490
     2016.72005         5.41944         5.36516
     2016.72279        10.78039         5.25065
     2016.72553        15.24935         5.53199
     2016.72826         5.97630         5.48461
     2016.73100         7.90825         5.44216
     2016.73374         3.14421         5.33061
     2016.73648         5.35416         5.22597
     2016.73921         5.87711         5.25559
     2016.74195         5.54707         5.28619
     2016.74469         4.55502         5.31778
     2016.74743         7.30298         5.32765
     2016.75000         4.03781         5.71165
     2016.76112         5.78775         5.42538
     2016.76386         3.98170         5.28520
     2016.76659         2.55765         5.43821
     2016.76933         7.56261         5.30396
     2016.77207         3.36356         5.28520
     2016.77481         1.25051         5.47770
     2016.77754         4.32347         5.39477
     2016.78028         0.51642         5.29409
     2016.78302        -0.05262         5.30198
     2016.78576         5.26533         5.39477
     2016.78850         6.22528         5.34838
     2016.79123        11.44924         5.47770
     2016.79397        15.07519         5.54087
     2016.79677         7.79619         5.39379
     2016.79945        -1.15790         5.36319
     2016.80219         1.40805         5.34048
     2016.80492         2.61201         5.34739
     2016.80766         5.49796         5.50928
     2016.81040         1.75391         5.28816
     2016.81314         2.06387         5.36220
     2016.81587        -2.16318         5.33160
     2016.81827        -9.82747         6.34244
     2016.82437        17.67389        76.68576
     2016.83316        15.91116         8.94950
     2016.83504        -0.89050         5.29606
     2016.83778        -1.84955         5.27928
     2016.84052        -3.64259         5.29902
     2016.84325        -4.92964         5.31975
     2016.84599        -0.73669         5.30297
     2016.84873         6.67427         5.38095
     2016.85147        -2.84278         5.35628
     2016.85420        -4.20182         5.30198
     2016.85694         1.75113         5.31580
     2016.85968        -5.07992         5.39675
     2016.86242        -3.28496         5.34838
     2016.86516         2.19199         5.38589
     2016.86789         0.20794         5.37701
     2016.87063         2.64390         5.36812
     2016.87337         4.91785         5.43327
     2016.87611         1.93781         5.34443
     2016.87885        -2.80924         5.36220
     2016.88158        -7.10929         5.38490
     2016.88432         0.78367         5.39774
     2016.88706         4.83762         5.41452
     2016.88980         3.38557         5.31087
     2016.89253        -0.77247         5.34542
     2016.89527        -0.31052         5.56062
     2016.89801        -0.93856         5.36812
     2016.90075        -3.48961         5.39872
     2016.90349         2.11434         5.53594
     2016.90622         5.10030         5.41254
     2016.90896         7.47925         5.36319
     2016.91170         5.05221         5.31876
     2016.91444        -0.74784         5.33061
     2016.91718        -1.43489         5.56160
     2016.91991       -10.31993         5.46881
     2016.92265        -4.23298         5.30494
     2016.92539        -3.46903         5.29705
     2016.92813        -2.60607         5.31383
     2016.93086        -4.69112         5.28421
     2016.93360        -0.66416         6.05123
     2016.93634        -6.84821         5.36812
     2016.93908       -18.00626         5.40070
     2016.94182       -17.17830         5.55074
     2016.94455         2.23665         5.52212
     2016.94729         9.17661         5.51323
     2016.94996        -3.17449         5.69684
     2016.95383         4.61427        11.82112
     2016.95551       -10.33853         5.52804
     2016.95824         8.56442         5.33653
     2016.96098         3.57537         5.28718
     2016.96372         0.21433         5.37207
     2016.96646        -2.22172         5.36417
     2016.96919        -2.68376         5.68500
     2016.97193       -12.39481         5.40859
     2016.97467        -7.53686         5.40958
     2016.97741       -10.62590         5.41057
     2016.98015       -22.33295         5.39379
     2016.98288        -8.40500         5.35035
     2016.98562        -4.71904         5.33555
     2016.98836       -11.43309         5.35331
     2016.99110       -21.49513         5.34838
     2016.99384       -20.03118         5.39280
     2016.99657       -12.85823         5.41452
     2016.99931       -11.01827         5.40859
     2017.00088       -15.18715        14.25050
     2017.00479       -14.99036         5.33160
     2017.00695       -25.46682         7.30392
     2017.01026       -23.15946         5.37010
     2017.01300       -11.35450         5.35825
     2017.01574       -11.96755         5.35924
     2017.01848       -15.57260         5.35035
     2017.02669        10.40327         5.58332
     2017.03216        -0.29583         5.30494
     2017.03490        -4.96587         5.30396
     2017.03764       -10.63892         5.38885
     2017.04038        -4.63097         5.36713
     2017.04289       -10.54717         5.99595
     2017.04585        -3.93006         5.58727
     2017.04859       -15.96110         5.65538
     2017.05281        33.67491        19.65514
     2017.06616       -16.00757        14.09453
     2017.06776        -5.09643         5.50040
     2017.07049        -7.50347         5.39379
     2017.07272        -4.69689         6.94756
     2017.08145        -8.48866         5.35726
     2017.08418        -9.75070         5.33258
     2017.08692         0.99825         5.34640
     2017.08966        -6.52980         5.36121
     2017.09240       -10.13084         5.35628
     2017.09514         2.59911         5.36516
     2017.09787        -2.73293         5.29705
     2017.10061        -0.57498         5.38095
     2017.10335        -8.38203         5.50435
     2017.10609        -9.99607         5.54877
     2017.10882        -1.34312         5.30593
     2017.11156       -10.28817         5.37306
     2017.11430       -11.64021         5.38293
     2017.11704       -16.29526         5.33258
     2017.11978       -15.36630         5.36417
     2017.12251       -13.49335         5.32074
     2017.12531        -4.74536         5.47671
     2017.12805        -8.82340         5.55765
     2017.13078         0.01755         5.47375
     2017.13347         3.30746         5.31482
     2017.13620         1.10842         5.50040
     2017.13894        -5.56363         5.46980
     2017.14168       -12.52767         5.46091
     2017.14442        -7.71672         5.38095
     2017.14715        -8.96177         5.34739
     2017.14989        -6.77681         5.36812
     2017.15263        -4.27586         5.59319
     2017.15537        -6.13290         5.33949
     2017.15811       -11.02295         5.56851
     2017.16084        -4.04400         5.35825
     2017.16358       -11.09104         5.36417
     2017.16632        -8.73809         5.52014
     2017.16911        -8.18609         5.63761
     2017.17185        -7.64414         5.50928
     2017.17459         1.75081         5.53199
     2017.17733         3.27977         5.60504
     2017.18001        -8.74132         5.37010
     2017.18275        -4.23637         5.40267
     2017.18548        -8.01141         5.35430
     2017.18822       -15.39946         5.37799
     2017.19096       -14.35750         5.31383
     2017.19370       -10.16755         5.35331
     2017.19644        -5.28960         5.42538
     2017.19917        -8.00464         5.40366
     2017.20191        -7.44569         5.35430
     2017.20465        -6.41974         5.53594
     2017.20739        -8.72378         5.33160
     2017.21013        -3.26683         5.39576
     2017.21286        -6.25687         5.47572
     2017.21560        -5.05992         5.40168
     2017.21834        -3.06097         5.37799
     2017.22108        -5.09701         5.37701
     2017.22381        -5.85806         5.47967
     2017.22655        -2.92711         5.50534
     2017.22929        -8.27415         5.38786
     2017.23203        -9.31420         5.38688
     2017.23477        -6.22124         5.32962
     2017.23750       -12.09529         5.37010
     2017.24024        -9.40134         5.33357
     2017.24298        -5.15438         5.36713
     2017.24572         5.02857         6.21411
     2017.24834       -11.14256         5.62577
     2017.26500         2.06933        10.11434
     2017.26762        -1.81580         5.45302
     2017.27036        -5.20284         5.38490
     2017.27310        -8.37489         5.41847
     2017.27566       -13.25606         5.69289
     2017.29272        -7.45089         8.70271
     2017.29500        -7.89726         5.44216
     2017.29871       -11.19761         9.90605
     2017.30047        -7.69935         5.37898
     2017.30276       -10.99172         6.64747
     2017.31225        -1.08095         8.50035
     2017.31416        -9.01458         5.39971
     2017.31690        -7.28563         5.37404
     2017.31964       -10.29468         5.56555
     2017.32238        -9.68772         5.59319
     2017.32489       -10.29593         6.05814
     2017.33059       -15.71686         5.47770
     2017.33333       -18.69091         5.38095
     2017.33607       -16.64095         5.43327
     2017.33880       -14.70000         5.38194
     2017.34154        -2.14904         5.71659
     2017.34428        -8.76309         5.48855
     2017.34702        -6.78014         5.34246
     2017.34976       -10.01518         5.36812
     2017.35249        -8.33523         5.36713
     2017.35523       -12.53328         5.40563
     2017.35797       -14.60232         5.37306
     2017.36071        -6.64537         5.39576
     2017.36344        -6.84141         5.46980
     2017.36618       -14.20646         5.38984
     2017.36892        -4.82651         5.38984
     2017.37166        -6.06255         5.44907
     2017.37440        -9.84360         5.38293
     2017.37713        -7.08265         5.47770
     2017.37907        -5.14926         8.50134
     2017.38908       -25.13412        10.96329
     2017.39082       -12.12788         5.40958
     2017.39356        -2.87292         5.47375
     2017.39630        -3.94997         5.46486
     2017.39904        -7.11901         5.45697
     2017.40160        -7.40018         5.72744
     2017.41087        -7.96057         9.35028
     2017.41273        -3.47525         5.46486
     2017.41546        -2.48429         5.61195
     2017.41820        -4.29934         5.53989
     2017.42094        -5.33538         5.42636
     2017.42368       -11.04743         5.38293
     2017.42642        -6.38248         5.49448
     2017.42915        -5.54452         5.39872
     2017.43189        -3.14157         5.49843
     2017.43463        -1.68262         5.49645
     2017.43737        -4.87866         5.53298
     2017.44010         0.36729         5.39477
     2017.44284         4.46525         5.44611
     2017.44552         6.56416         5.61491
     2017.44826        -0.83789         5.71362
     2017.45191        -3.60028         8.79649
     2017.45379        -6.11894         5.51916
     2017.45579        -7.88751         8.43322
     2017.46475        -7.22812         5.41847
     2017.46748        -0.02517         5.70178
     2017.47022        -2.18522         5.83011
     2017.47296         1.50374         5.57049
     2017.47570        -6.31031         5.38786
     2017.47832        -6.85444         5.57740
     2017.48391        -3.89945         5.49448
     2017.48665         2.34851         5.54778
     2017.48939         4.99546         5.54680
     2017.49212        -6.26058         5.44808
     2017.49486        -7.37863         5.48066
     2017.49743       -11.30580         5.68993
     2017.50308         6.24623         5.47079
     2017.50581         0.62318         5.38490
     2017.50855        -5.76786         5.42044
     2017.51129        -7.03491         5.49546
     2017.51403        -5.41295         5.46486
     2017.51676        -1.58500         5.49645
     2017.51950        -3.21405         5.47375
     2017.52224         1.92191         5.42735
     2017.52498         7.04586         5.48263
     2017.52772        -4.99019         5.55371
     2017.53045        -2.14823         5.44315
     2017.53319        -1.51228         5.57641
     2017.53593        -1.55732         5.55667
     2017.53867        -2.03437         5.50336
     2017.54141         6.85558         5.47671
     2017.54414         1.78354         5.45400
     2017.54688         1.97249         5.58529
     2017.54962        -1.25255         5.43031
     2017.55156        -9.62117         8.23974
     2017.56967         7.05175        10.25846
     2017.57152        -0.51592         5.58529
     2017.57426        -1.31697         5.53594
     2017.57700         5.87698         5.49448
     2017.57974         8.34494         5.53298
     2017.58247         2.46789         5.42439
     2017.58521        -1.29615         5.45795
     2017.58795        -8.70020         5.54186
     2017.59069         4.18675         5.56259
     2017.59342         2.58071         5.44808
     2017.59616         3.42066         5.42143
     2017.59890         6.36261         5.48362
     2017.60164        -1.57643         5.43624
     2017.60438        -4.32648         5.50040
     2017.60711         1.40048         5.45993
     2017.60985         2.12743         5.63663
     2017.61259        -4.92862         5.53594
     2017.61533         3.17234         5.58924
     2017.61807         7.63329         5.68598
     2017.62080         2.58324         5.44808
     2017.62354         4.76720         5.45499
     2017.62628        -2.78185         5.61195
     2017.62902         6.39211         5.63959
     2017.63175         0.51006         5.50237
     2017.63449        -4.05899         5.43722
     2017.63723         0.11797         5.44611
     2017.63997         4.22992         5.45203
     2017.64271         6.54188         5.40662
     2017.64544         5.94483         5.55469
     2017.64818         2.95378         5.58529
     2017.65092        11.11874         5.41550
     2017.65366         8.73769         5.40070
     2017.65639         2.47364         5.38392
     2017.65913         5.95860         5.49448
     2017.66187         2.82255         5.57740
     2017.66461         5.92151         5.62577
     2017.66735         6.38746         5.56654
     2017.67008         6.55541         5.34048
     2017.67282         5.05437         5.53100
     2017.67556         5.07432         5.48066
     2017.67830         0.27627         5.54087
     2017.68104         6.14123         5.45993
     2017.68377        10.47118         5.49645
     2017.68651         7.10314         5.65637
     2017.68925        10.22609         5.58826
     2017.69199        12.45304         5.51126
     2017.69472         5.90900         5.47276
     2017.69746        11.23895         5.54383
     2017.70020        17.67591         5.71955
     2017.70294        10.89486         5.63761
     2017.70568         7.37381         5.58628
     2017.70841         7.12177         5.41945
     2017.71115         9.54472         5.46881
     2017.71389        10.22367         5.51225
     2017.71663        16.36863         5.41649
     2017.71937        12.24558         5.47967
     2017.72210         7.15754         5.42439
     2017.72484         3.17049         5.38885
     2017.72758         8.80844         5.41847
     2017.73032        10.52240         5.38293
     2017.73305         4.12335         5.37701
     2017.73579         3.27831         5.39379
     2017.73853         1.92926         5.44709
     2017.74127         3.59321         5.41057
     2017.74401         7.55817         5.36812
     2017.74663         1.38104         5.67414
     2017.75222         6.86703         5.49448
     2017.75496         0.68498         5.39379
     2017.75770         6.67594         5.50435
     2017.76032         3.51081         5.67019
     2017.76401         6.69444         8.80242
     2017.76591         9.36480         5.44611
     2017.76865         7.28375         5.46980
     2017.77138         2.63870         5.47868
     2017.77412         4.48866         5.69289
     2017.77686         1.27261         5.66131
     2017.77960         7.31557         5.66920
     2017.78234         1.87552         5.57345
     2017.78507        -0.04553         5.58727
     2017.78781        -1.29657         5.51817
     2017.79055         3.53538         5.52903
     2017.79329         6.10634         5.49744
     2017.79603         2.57029         5.55963
     2017.79876         7.21724         5.73337
     2017.80150        10.02720         5.77581
     2017.80424        15.21515         5.60405
     2017.80698         4.22210         5.62379
     2017.80971        -8.08994         5.63959
     2017.81245        -9.24499         5.67611
     2017.81519        -2.05403         5.71165
     2017.81793         0.57392         5.86268
     2017.82067        -4.15513         5.69783
     2017.82340        -1.50217         5.64650
     2017.82603        -7.94930         5.83307
     2017.82888        -1.57527         5.69487
     2017.83162         6.42069         5.57444
     2017.83436         2.48864         5.54976
     2017.83709         4.56960         5.76298
     2017.83983        -4.24045         5.63367
     2017.84257        -6.29850         5.49941
     2017.84531        -0.06254         5.52310
     2017.84804        -4.39159         5.55074
     2017.85078         2.06837         5.54186
     2017.85352         0.62532         5.55371
     2017.85626        -1.72673         5.74916
     2017.85900        -1.74577         5.66131
     2017.86173         0.85118         5.63860
     2017.86447         0.55013         5.54680
     2017.86721         4.07009         5.60010
     2017.86995        -6.21696         5.62774
     2017.87269         1.09500         5.58727
     2017.87542         3.44595         5.61096
     2017.87816         5.24990         5.55568
     2017.88090         5.43486         5.53594
     2017.88364        -0.05019         5.48855
     2017.88637         5.08277         5.55568
     2017.88911         0.91572         5.57246
     2017.89185         1.79167         5.54087
     2017.89459         4.53363         5.58135
     2017.89733         4.80258         5.55074
     2017.90006         0.21653         5.43426
     2017.90280        -1.00951         5.52508
     2017.90554        10.79244         5.55568
     2017.90828         3.73940         5.58628
     2017.91102         3.68835         5.58233
     2017.91375        -3.60570         5.52113
     2017.91649        -2.10374         5.42735
     2017.91911         3.71413         5.75706
     2017.92197         3.62316         5.47177
     2017.92470        -1.05488         5.56062
     2017.92744        -9.08793         5.50435
     2017.93018        -8.73297         5.54778
     2017.93292        -6.62902         5.52607
     2017.93566        -4.93907         5.42735
     2017.93839        -3.13811         5.49843
     2017.94113        -1.52116         5.56160
     2017.94387        -2.04920         5.46881
     2017.94661        -0.90925         5.51225
     2017.94935        -0.85830         5.50830
     2017.95203        -2.96838         5.69586
     2017.95541        -2.95797         7.27727
     2017.95756        -3.76044         5.60010
     2017.96030         1.96152         5.56062
     2017.96303         1.28747         5.58826
     2017.96577         3.22043         5.59220
     2017.96851         2.71538         5.57147
     2017.97125        -2.04467         5.56160
     2017.97399        -1.31171         5.56259
     2017.97672        -1.53276         5.60504
     2017.97946        -3.37080         5.49349
     2017.98220       -20.12985         5.64946
     2017.98494       -19.70590         5.75015
     2017.98767       -17.72294         5.69980
     2017.99041       -19.96899         5.70968
     2017.99315       -11.64104         5.71955
     2017.99589        -9.96608         5.71264
     2017.99863       -11.26113         5.54976
     2018.00136       -15.11817         5.66525
     2018.00410       -13.25822         5.61096
     2018.00684       -11.24627         5.50435
     2018.00958        -8.42131         5.49843
     2018.01232        -8.13036         5.44808
     2018.01500        -3.61845         5.70671
     2018.01798         1.90368         5.84492
     2018.02053         1.27950         5.51126
     2018.02327         0.92746         5.40662
     2018.02600        -2.74959         5.56259
     2018.02874       -14.23464         5.47473
     2018.03148        -8.14268         5.54087
     2018.03422        -6.99873         5.45795
     2018.03696       -12.28677         5.45104
     2018.03969        -9.41882         5.47572
     2018.04243       -11.64387         5.48757
     2018.04517        -9.67491         5.55765
     2018.04791        -7.74996         5.51422
     2018.05065         1.88899         5.45993
     2018.05338        -5.07605         5.43130
     2018.05612        -8.36110         5.45104
     2018.05886        -7.85114         5.48855
     2018.06160        -4.37319         5.57838
     2018.06433        -2.71424         5.58628
     2018.06707        -0.42528         5.61886
     2018.06981        -5.51933         6.55270
     2018.07249        -7.70842         5.83110
     2018.07548       -17.28629         6.10059
     2018.07802        -9.99347         5.63070
     2018.08076        -8.68351         5.62577
     2018.08350        -8.49956         5.58826
     2018.08624        -8.23961         5.65834
     2018.08898        -5.04865         6.09269
     2018.09171        -4.28270         5.75607
     2018.09445        -3.75774         5.74225
     2018.09719         2.62521         5.92191
     2018.09993        -4.53284         6.01767
     2018.10266       -10.66088         5.70375
     2018.10540        -9.81893         6.00088
     2018.10814        -4.37898         5.73435
     2018.11088        -5.78402         5.65242
     2018.11362        -5.00007         5.70869
     2018.11635       -11.00811         5.67710
     2018.11909        -3.59816         5.68598
     2018.12183        -4.69021         5.67710
     2018.12457        -5.22525         5.59418
     2018.12731        -7.24130         5.59319
     2018.13004        -4.92434         5.55963
     2018.13278        10.48561         5.65341
     2018.13552         4.21456         5.58135
     2018.13826         0.92552         5.47473
     2018.14099        -1.78653         5.53989
     2018.14373        -1.89858         5.53100
     2018.14647         1.13438         5.80839
     2018.14921        -5.39667         5.64650
     2018.15195        -2.21471         5.57147
     2018.15468         1.21824         5.74028
     2018.15742         0.89919         5.56358
     2018.16016        -2.26485         5.57345
     2018.16290        -4.29590         5.74028
     2018.16564        -4.28395         5.72744
     2018.16837        -3.22899         5.59418
     2018.17111        -1.93004         5.55272
     2018.17385        -6.04008         5.50731
     2018.17659        -9.92313         5.59122
     2018.17932        -6.41818         5.51323
     2018.18206        -2.38122         5.87256
     2018.18499        -4.24013         6.00977
     2018.18754        -3.26231         5.51225
     2018.19028        -8.70336         5.55667
     2018.19301        -5.89341         5.48757
     2018.19575         1.82055         5.53495
     2018.19849        -1.39050         5.44907
     2018.20123         4.70445         5.63169
     2018.20397        -1.66259         5.49843
     2018.20670         2.83036         5.53100
     2018.20944         2.79632         5.49546
     2018.21218        -4.89373         5.51126
     2018.21492       -13.97478         5.47770
     2018.21765        -0.62382         5.43525
     2018.22039         3.55413         5.47079
     2018.22313        -5.11692         5.60899
     2018.22587       -12.62896         5.50731
     2018.22861        -5.53501         5.40366
     2018.23134        -3.89805         5.48066
     2018.23408        -4.52110         5.53001
     2018.23682       -13.10715         5.52014
     2018.23956        -9.31619         5.54383
     2018.24230       -10.81924         5.49843
     2018.24503        -8.11628         5.53791
     2018.24766        -8.20341         5.95844
     2018.25070         3.37676         5.79161
     2018.25325        -7.72842         5.47473
     2018.25598        -3.85647         5.39971
     2018.25872        -9.27952         5.55765
     2018.26146        -2.05556         5.56062
     2018.26420        -3.09061         5.55469
     2018.26694        -6.76265         5.43821
     2018.26967       -10.49970         5.40761
     2018.27241        -6.86775         5.46980
     2018.27515        -2.60279         5.54383
     2018.27789         4.37416         5.56555
     2018.28062        -4.82588         5.73534
     2018.28336       -11.35293         5.36319
     2018.28610        -6.39998         5.36121
     2018.28884         4.38898         5.43722
     2018.29158         0.55093         5.58135
     2018.29431        -5.65912         5.44512
     2018.29705        -5.00316         5.33851
     2018.29979        -4.23021         5.46289
     2018.30253       -10.50725         5.38392
     2018.30527        -6.19630         5.45104
     2018.30800        -6.26935         5.57641
     2018.31074        -6.57039         5.35924
     2018.31348        -8.91544         5.34838
     2018.31616       -10.02353         5.58529
     2018.31914         0.81060         5.84393
     2018.32169         1.25842         5.50237
     2018.32443        -5.05062         5.42044
     2018.32717        -3.41367         5.41748
     2018.32991        -3.99572         5.53989
     2018.33264        -2.44976         5.43229
     2018.33538        -3.45281         5.49744
     2018.33812        -2.92685         5.56654
     2018.34086        -5.85290         5.38984
     2018.34360        -7.68295         5.53396
     2018.34633        -3.75299         5.57345
     2018.34907        -4.84304         5.44512
     2018.35181         7.14891         5.59319
     2018.35455        -1.95513         5.55568
     2018.35728        -0.75118         5.41254
     2018.36002        -0.41222         5.47868
     2018.36276        -1.50927         5.55765
     2018.36550        -5.48632         5.47671
     2018.36824        -5.39436         5.41156
     2018.37097        -3.55841         5.52212
     2018.37371        -2.03245         5.54285
     2018.37645        -7.47450         5.80049
     2018.37919        -7.42955         5.64749
     2018.38193        -6.52059         5.56654
     2018.38466        -1.32164         5.57444
     2018.38740        -3.68269         5.56555
     2018.39014         2.10627         5.92093
     2018.39288         1.64322         5.61293
     2018.39580        -3.38269         5.75508
     2018.39835         4.96513         5.55963
     2018.40109        -5.43392         5.57345
     2018.40383        -4.68096         5.61886
     2018.40657        -1.63701         5.63959
     2018.40930         9.96594         5.74521
     2018.41204        11.36190         5.58036
     2018.41478        -6.42915         5.46388
     2018.42299         1.57971         5.68401
     2018.42573         4.49667         5.43031
     2018.42847         3.79462         5.41057
     2018.43121         4.12258         5.49250
     2018.43394        -2.07447         5.46091
     2018.43668        -0.60552         5.57444
     2018.43942         5.31444         5.53989
     2018.44216        -1.92161         5.50336
     2018.44490        -6.65866         5.42834
     2018.44763         1.49230         5.45993
     2018.45037         0.21125         6.06308
     2018.45311         6.49821         5.48164
     2018.45585        -6.16184         5.61886
     2018.45859         1.30711         5.57444
     2018.46132        -3.29093         5.43426
     2018.46406        -3.18798         5.57049
     2018.46680        -6.96803         5.53001
     2018.46954        -5.08807         6.25952
     2018.47227         3.96388         5.74521
     2018.47501         9.67384         5.87749
     2018.47775         2.09879         5.55568
     2018.48049         3.17874         5.52705
     2018.48334        -3.19522         6.02063
     2018.48596        -1.61635         5.54383
     2018.48870         1.80461         5.51422
     2018.49144         7.07656         5.47770
     2018.49418         1.29251         5.64749
     2018.49686         0.35943         5.99299
     2018.49984         0.77456         5.91500
     2018.50239        -1.10163         5.54581
     2018.50513        -4.21367         5.74028
     2018.50787         3.44028         5.45006
     2018.51060         5.42624         5.53890
     2018.51334        -3.87781         5.57246
     2018.51608        -1.57586         5.50830
     2018.51882        -1.80090         5.51027
     2018.52156        -5.40895         5.53298
     2018.52429         1.17001         5.56851
     2018.52703         2.24696         5.43920
     2018.52977        -6.68009         5.46980
     2018.53251         2.14287         5.55765
     2018.53525         6.17982         5.99792
     2018.53798         2.56277         5.51916
     2018.54072         6.89073         5.55469
     2018.54346         0.93168         5.49349
     2018.54620         5.36764         5.44808
     2018.54893         3.16459         5.81431
     2018.55167         4.16054         5.59517
     2018.55441         3.44450         5.52903
     2018.55715        -1.92155         5.58628
     2018.55989        -3.03260         5.66131
     2018.56262         2.66536         5.57147
     2018.56536        -8.90069         5.56950
     2018.56810         0.44427         5.60602
     2018.57084         4.95322         5.94955
     2018.57357         2.81717         5.67216
     2018.57631        -3.10587         5.67019
     2018.57905         2.94408         5.75015
     2018.58179         5.20604         5.76002
     2018.58453         7.23199         5.81727
     2018.58726         3.15694         5.71560
     2018.59000         2.20990         5.46782
     2018.59274         9.87385         5.51225
     2018.59548         3.62480         5.55469
     2018.59822         6.11376         5.62083
     2018.60095         1.72871         5.49448
     2018.60369         6.64567         5.49448
     2018.60643         4.34262         5.50139
     2018.60917        10.82657         5.61096
     2018.61190        11.53353         5.67611
     2018.61464         9.47648         5.55963
     2018.61738         5.50543         5.52607
     2018.62012        10.16939         5.50435
     2018.62286         9.22634         5.60800
     2018.62559        15.60130         5.80444
     2018.62833         6.37425         5.70474
     2018.63107         7.10220         5.53791
     2018.63381         7.46916         5.64946
     2018.63655         6.94811         5.60997
     2018.63928        11.94807         5.83899
     2018.64202        16.98302         5.87650
     2018.64476        12.22897         5.94659
     2018.64750         4.65393         5.62675
     2018.65023         1.96388         5.68895
     2018.65297        12.36083         5.62182
     2018.65571         9.49979         5.55074
     2018.65845         7.32874         5.64354
     2018.66119         3.82270         5.59911
     2018.66392         7.79165         5.55568
     2018.66666         6.61860         5.63465
     2018.66940         8.59956         5.41847
     2018.67214         6.81451         5.49152
     2018.67488         6.32847         5.44413
     2018.67756         3.49638         5.63761
     2018.68035        -0.56863         5.62182
     2018.68309         1.24133         5.57740
     2018.68583         4.46128         5.57147
     2018.68856         7.75823         5.52409
     2018.69130         6.19519         5.59615
     2018.69404        13.42414         5.75805
     2018.69678        15.59510         5.51916
     2018.69952         7.11705         5.61096
     2018.70225         3.13200         5.71165
     2018.70499         4.76696         5.64354
     2018.70773         7.69691         5.65242
     2018.71047         5.04086         5.52804
     2018.71321         8.52382         5.61195
     2018.71594         7.73577         5.61984
     2018.71868        -5.63927         5.68105
     2018.72142        -1.03032         5.60208
     2018.72416         4.85563         5.60899
     2018.72689         1.82459         5.69882
     2018.72963         6.67954         5.68500
     2018.73237         5.35950         5.63070
     2018.73511        -2.35255         5.64650
     2018.73785         4.94640         5.58826
     2018.74058         3.65036         5.57147
     2018.74332         9.50131         5.66427
     2018.74606         8.62026         5.62774
     2018.74880         3.94222         5.46881
     2018.75154         5.88517         5.53989
     2018.75427         6.52913         5.51521
     2018.75701         7.30408         5.67809
     2018.75975         0.22903         5.47177
     2018.76249         2.80699         5.44018
     2018.76522         6.06094         5.58727
     2018.76796         8.43790         5.52804
     2018.77070         7.38285         5.48164
     2018.77344         9.43680         5.50139
     2018.77618         8.17576         5.45697
     2018.77891         5.90071         5.43821
     2018.78165         9.98266         5.61886
     2018.78439         4.60362         5.54087
     2018.78713        -1.21743         5.51817
     2018.78987        -5.60647         5.66525
     2018.79260        -2.22752         5.44512
     2018.79534         7.02943         5.45697
     2018.79808         0.64239         5.44808
     2018.80082         0.43534         5.54383
     2018.80355         3.47929         5.51225
     2018.80629         2.83225         5.57937
     2018.80903         7.74920         5.46684
     2018.81177         4.68916         5.88440
     2018.81451         7.80011         5.50139
     2018.81724         2.73406         5.45006
     2018.81998         5.74102         5.51817
     2018.82272        11.55597         5.54285
     2018.82546         9.08093         5.57444
     2018.82820         5.57088         5.48461
     2018.83093         6.01283         5.50336
     2018.83367         4.10579         5.53890
     2018.83641         5.71174         5.70869
     2018.83915         9.39569         5.58135
     2018.84188         6.52365         5.59023
     2018.84462        13.70360         5.53692
     2018.84736        -0.57144         5.48954
     2018.85010         5.17951         5.45598
     2018.85284         4.19746         5.43327
     2018.85557        -2.77658         5.51027
     2018.85831         3.17337         5.52310
     2018.86105         0.55132         5.54482
     2018.86379        -0.44372         5.52113
     2018.86653         4.48923         5.47572
     2018.86926        -6.17881         5.55272
     2018.87189         3.94006         5.75903
     2018.87474         9.29109         5.47276
     2018.87748         5.27605         5.55765
     2018.88021         2.94400         5.56555
     2018.88295         5.63496         5.59418
     2018.88569         3.59291         5.60602
     2018.88843         8.14286         5.62675
     2018.89117         5.19082         5.61096
     2018.89390         7.20477         5.62182
     2018.89664         6.06772         5.83406
     2018.89938        -0.48332         5.56950
     2018.90212         0.59863         5.63564
     2018.90485         6.48259         5.52310
     2018.90759         3.84754         5.58135
     2018.91033         7.07349         5.63663
     2018.91307        13.29945         5.72053
     2018.91581         4.31240         5.67611
     2018.91854         6.36536         5.72152
     2018.92128         4.06131         5.55963
     2018.92402         3.17926         5.59615
     2018.92676         4.18022         5.72942
     2018.92950         5.45217         5.74620
     2018.93223         1.03712         5.70869
     2018.93497         3.89308         5.61688
     2018.93771        -0.93997         5.64354
     2018.94045        -6.89501         5.82221
     2018.94318       -11.77106         5.68598
     2018.94592         0.82289         5.69684
     2018.94866         4.42885         5.57937
     2018.95140         6.48080         5.72843
     2018.95414        10.74275         5.54976
     2018.95687         7.68571         5.58332
     2018.95961         4.81766         5.57740
     2018.96235        11.66762         5.52310
     2018.96509         5.03357         5.60405
     2018.96783         1.21052         5.50632
     2018.97056        10.14048         5.56555
     2018.97330         2.56543         5.52212
     2018.97604         0.87739         5.60701
     2018.97878         1.12134         5.51916
     2018.98151        -0.19671         5.52409
     2018.98425         2.99325         5.70869
     2018.98699        -3.36780         5.65045
     2018.98973        -1.02685         5.60405
     2018.99247        -0.88789         5.58727
     2018.99520         4.05906         5.67019
     2018.99794        -0.59798         5.67611
     2019.00068        -3.46003         5.59418
     2019.00342        -2.27508         5.63860
     2019.00616        -2.44812         5.60208
     2019.00889        -0.20117         5.51126
     2019.01163         1.34878         5.52607
     2019.01437         3.29774         5.53001
     2019.01711        13.26469         5.58727
     2019.01984        -3.31535         5.58332
     2019.02258        -3.90640         5.57049
     2019.02532        -1.18945         5.71066
     2019.02806        -3.95949         5.60010
     2019.03080        -0.34054         5.59911
     2019.03353        -6.68658         5.60109
     2019.03627       -10.71863         5.54680
     2019.03901        -1.68668         5.65341
     2019.04175        -5.22072         5.57345
     2019.04449        -6.60677         5.61787
     2019.04722         0.14418         5.64452
     2019.04996       -14.70486         5.83504
     2019.05270        -3.41091         5.85281
     2019.05544        -1.55695         5.76693
     2019.05817         1.19300         5.84689
     2019.06091         6.96195         5.87157
     2019.06365        -0.94209         5.79556
     2019.06639        -0.96214         5.79753
     2019.06913         1.74282         5.78470
     2019.07186        -1.22923         5.62577
     2019.07460        -3.45128         5.53100
     2019.07734         4.93468         5.57049
     2019.08008         6.66763         5.53100
     2019.08282         4.50458         5.66624
     2019.08555         6.43754         5.54285
     2019.08829         4.47249         5.51323
     2019.09103         8.07145         5.49744
     2019.09377        12.41040         5.65933
     2019.09650        14.80935         5.53495
     2019.09924         7.18731         5.48559
     2019.10198         0.67326         5.50040
     2019.10472         0.24921         5.49152
     2019.10746        -8.48583         5.60701
     2019.11019         4.92212         5.62675
     2019.11293        11.30108         5.66624
     2019.11567         5.49803         5.77187
     2019.11841        14.70598         5.51126
     2019.12115        14.10194         5.66032
     2019.12388        16.98789         5.70375
     2019.12662        11.23585         5.54976
     2019.12936         6.65380         5.55469
     2019.13210         1.56575         5.61886
     2019.13483         3.46871         5.54877
     2019.13757         1.72266         5.55074
     2019.14031        11.14861         5.58431
     2019.14305         6.82157         5.59911
     2019.14579         3.96352         5.56456
     2019.14852        -8.53752         5.59418
     2019.15126         0.28243         5.49053
     2019.15400        -3.36162         5.55667
     2019.15674        -0.24266         5.65933
     2019.15948         5.53629         5.66920
     2019.16221        -7.08775         5.59418
     2019.16495        -3.47380         5.47572
     2019.16769        -6.17785         5.46289
     2019.17043        -5.25989         5.46091
     2019.17316        -0.67794         5.40662
     2019.17590        -3.43599         5.59023
     2019.17864        -1.23203         5.58135
     2019.18138         1.77392         5.51521
     2019.18412        -7.66412         5.53396
     2019.18685        -1.43017         5.44018
     2019.18959         0.59278         5.53989
     2019.19233         1.02374         5.51027
     2019.19507         1.09669         5.47572
     2019.19780        -4.76036         5.52113
     2019.20054        -9.33740         5.65637
     2019.20328        -8.48345         5.54778
     2019.20602        -5.17649         5.56555
     2019.20876        -7.87254         5.50830
     2019.21149       -10.76959         5.50830
     2019.21423        -4.26063         5.59714
     2019.21697        -5.65168         5.54285
     2019.21971        -2.67272         5.73732
     2019.22245        -1.68477         5.57542
     2019.22518        -2.60482         5.41254
     2019.22792        -6.72686         5.52310
     2019.23066       -10.94191         5.54285
     2019.23340        -3.41096         5.53495
     2019.23613        -6.45400         5.57049
     2019.23887        -6.99505         5.51916
     2019.24161        -3.96309         5.61195
     2019.24435       -12.35514         5.63663
     2019.24709        -7.95619         5.60899
     2019.24982        -2.33723         5.48164
     2019.25256         0.31672         5.70770
     2019.25530        -8.21833         5.56358
     2019.25804        -3.07937         5.54482
     2019.26078         0.76958         5.68302
     2019.26351        -4.30746         5.63169
     2019.26625        -5.01051         5.51027
     2019.26899        -4.27756         5.52903
     2019.27173         0.25840         5.90020
     2019.27446        -7.49665         5.50534
     2019.27720        -1.38669         5.53989
     2019.27994        -5.06574         5.53890
     2019.28268        -2.63279         5.52705
     2019.28542         1.26617         5.44512
     2019.28815        -8.31688         5.48757
     2019.29089        -1.48593         5.52705
     2019.29363       -10.46397         5.50040
     2019.29637        -8.21802         5.58431
     2019.29911         0.05594         5.57740
     2019.30184        -2.05111         5.56456
     2019.30458       -12.66816         5.52409
     2019.30732       -10.00020         5.59023
     2019.31006        -7.54125         5.76989
     2019.31279       -10.63229         5.59418
     2019.31553         2.34766         5.60899
     2019.31827        -5.32039         5.52903
     2019.32101        -9.52343         5.58431
     2019.32375       -12.80248         5.54482
     2019.32648        -6.55653         5.48757
     2019.32922        -9.24357         5.54186
     2019.33196        -7.23062         5.66229
     2019.33470        -5.23366         5.63860
     2019.33744        -5.06171         5.54581
     2019.34017        -6.75676         5.56160
     2019.34291        -4.03180         5.47967
     2019.34565        -3.01985         5.75015
     2019.34839        -7.66990         5.66328
     2019.35112        -2.87894         5.59220
     2019.35386        -6.37299         5.44413
     2019.35660        -3.01903         5.46091
     2019.35934        -0.18508         5.54976
     2019.36208         2.84387         5.50731
     2019.36481        -3.81417         5.59714
     2019.36755         0.14478         5.46486
     2019.37029         2.07974         5.63070
     2019.37303         1.82869         5.54186
     2019.37577        -2.20636         5.59911
     2019.37850        -3.27040         5.47473
     2019.38124        -0.41845         5.51916
     2019.38398         4.11450         5.46684
     2019.38672        -0.75254         5.49250
     2019.38945        -4.09759         5.64156
     2019.39219        -3.61663         5.50632
     2019.39493        -2.07268         5.53199
     2019.39767        -0.71373         5.62281
     2019.40041         7.59623         5.55963
     2019.40314         0.29618         5.56753
     2019.40588         1.06613         5.56456
     2019.40862        -1.15691         5.53890
     2019.41136        -0.43296         5.60109
     2019.41410         2.40900         5.65538
     2019.41638         2.77562         9.06006
     2019.42077        13.19576        19.44784
     2019.42231         0.32286         5.64946
     2019.42505         0.32081         5.55173
     2019.42778        -0.72923         5.65834
     2019.43052        -0.71628         5.57838
     2019.43326        -4.35533         5.61491
     2019.43600       -12.49337         5.58332
     2019.43874       -10.32142         5.63465
     2019.44085        -6.10891         7.72346
     2019.44512        10.59014        10.82213
     2019.44695        -2.56356         5.73732
     2019.44969         0.72940         5.73139
     2019.45243        -3.60865         5.79062
     2019.45516        -4.66670         5.76199
     2019.45790        -1.13074         5.72152
     2019.46064        -6.83679         5.75015
     2019.46338         4.34017         5.98608
     2019.46611        -0.96388         5.94264
     2019.46885        -0.39693         5.71362
     2019.47159        -4.61897         5.60800
     2019.47433         1.51698         5.68993
     2019.47707         4.74693         5.63367
     2019.47980         2.29689         5.70671
     2019.48254        -2.87616         5.63860
     2019.48528        -2.95720         5.77088
     2019.48802        -8.29525         5.68204
     2019.49076        -7.54230         5.56555
     2019.49349        -4.37034         5.54680
     2019.49623        -6.15739         8.91199
     2019.49897         0.93956         5.60208
     2019.50171        -5.89048         5.47276
     2019.50444        -1.74353         5.51027
     2019.50718       -10.75457         5.54581
     2019.50992        -7.70562         5.45894
     2019.51266        -1.45767         5.68302
     2019.51540         1.81929         5.57246
     2019.51813        -2.32376         5.59813
     2019.52087        -5.61480         5.60405
     2019.52361        -8.57585         5.67019
     2019.52635        -7.97990         5.59122
     2019.52908        -5.08694         5.95054
     2019.53182        -3.09399         5.87848
     2019.53456        -9.92704         5.81333
     2019.53730        -3.87408         5.76693
     2019.54004        -1.08013         5.82024
     2019.54277         5.24783         5.71659
     2019.54551        -2.07322         5.95942
     2019.54825         1.05773         5.62972
     2019.55099        -7.26931         5.68697
     2019.55373         7.19764         5.83998
     2019.55646         3.05560         5.85874
     2019.55920        -0.03345         5.99299
     2019.56194         5.42150         9.06105
     2019.56468        -6.89054         5.79358
     2019.56741        -7.44459         5.69684
     2019.57015        -2.20164         5.64255
     2019.57289         2.19032         5.82320
     2019.57546         5.82915         6.27630
     2019.57917         1.41880         9.53291
     2019.58110         4.11518         5.59911
     2019.58384        -3.32987         5.66525
     2019.58658         4.02709         5.64551
     2019.58932         2.83304         5.55173
     2019.59206         0.26399         5.78272
     2019.59479        -0.26605         5.74620
     2019.59753         0.43190         5.84886
     2019.60027         1.69686         5.94560
     2019.60301        -0.72919         5.64946
     2019.60574         7.98076         6.21510
     2019.60848        -0.59428         5.91895
     2019.61122        -3.69733         5.60109
     2019.61396         3.20863         5.76792
     2019.61670        -1.21442         5.48855
     2019.61943        -2.03247         5.69684
     2019.62217        -1.94051         5.73435
     2019.62491         2.27744         5.72152
     2019.62765         6.34239         5.47276
     2019.63039         8.03535         5.45598
     2019.63312         2.10830         5.56456
     2019.63586         1.89526         5.62379
     2019.63860        -3.96979         5.91204
     2019.64407         2.05212         5.54778
     2019.64681        -3.89593         5.64749
     2019.64955        -7.52598         5.66131
     2019.65229         1.22298         5.64946
     2019.65503         0.47193         5.74620
     2019.65776        -2.99511         5.83208
     2019.66050         5.55384         5.94264
     2019.66324        -4.03121         5.65933
     2019.66598         1.47975         5.75903
     2019.66872         0.88270         5.72251
     2019.67145         0.86666         5.75015
     2019.67419         1.17061         5.77976
     2019.67693         1.62056         5.86071
     2019.67967         2.36152         6.21213
     2019.68240         2.01447         5.70079
     2019.68514         2.78742         5.77976
     2019.68788        -0.22962         5.87256
     2019.69062         8.88333         5.77483
     2019.69336         1.84429         5.60997
     2019.69609         1.22424         5.63663
     2019.69883         1.78919         5.68105
     2019.70157         1.07715         5.67315
     2019.70431         3.15010         5.73238
     2019.70705         5.07506         5.60899
     2019.70978         4.19801         5.57641
     2019.71252         2.31796         5.61195
     2019.71526        -3.58308         5.64452
     2019.71800         3.67687         5.83801
     2019.72073         4.16182         5.78766
     2019.72347         3.62878         5.50040
     2019.72621         4.05373         5.59517
     2019.72895         7.22069         5.70079
     2019.73169         8.17764         5.67710
     2019.73442         7.33559         5.72251
     2019.73716         8.31655         6.00088
     2019.73990         4.44550         5.83011
     2019.74264        -0.09555         5.73337
     2019.74538         3.80841         5.57147
     2019.74811         3.38836         5.78667
     2019.75085         0.69532         5.60504
     2019.75359         3.59427         5.76594
     2019.75633         4.71422         5.69289
     2019.75906         1.92518         5.59418
     2019.76180        -2.84387         5.55272
     2019.76454        -2.37591         5.65045
     2019.76728         4.13004         5.66328
     2019.77002        -0.53901         5.72843
     2019.77275        -0.85805         5.80543
     2019.77549        -1.54610         5.71560
     2019.77823         2.45685         5.67315
     2019.78097         6.72281         5.66328
     2019.78371         4.97776         5.69882
     2019.78644         0.51472         5.67414
     2019.78918         3.92867         5.73830
     2019.79192         7.71362         5.76792
     2019.79466        13.77258         5.71560
     2019.79739         5.19453         5.71066
     2019.80013         6.06148         5.61195
     2019.80287        -3.04956         5.59911
     2019.80561         7.69139         5.71264
     2019.80835         2.14135         5.75212
     2019.81108        -2.72470         5.57838
     2019.81382         0.64925         5.55963
     2019.81656         2.53321         5.69882
     2019.81930         3.91916         5.68500
     2019.82203         1.71712         5.65736
     2019.82477         3.47007         5.70869
     2019.82751        -4.15398         5.68401
     2019.83025        -1.27902         5.79753
     2019.83299        -2.06207         5.84294
     2019.83572         1.59688         5.69487
     2019.83846         4.04284         5.68993
     2019.84120         4.28479         5.70671
     2019.84394        -0.94625         5.84886
     2019.84668        -3.13730         5.70079
     2019.84941         1.35565         5.63070
     2019.85215         1.69661         5.63169
     2019.85489         1.98556         5.70375
     2019.85763         6.25652         5.68993
     2019.86036         5.81947         5.81629
     2019.86310         0.30742         5.80543
     2019.86584         8.93038         5.79654
     2019.86858         4.41733         5.72744
     2019.87132         5.66028         5.78371
     2019.87405         4.04824         5.76199
     2019.87679         2.94719         5.90020
     2019.87953         9.15515         5.76101
     2019.88227        11.53210         5.76002
     2019.88501        11.37405         5.70573
     2019.88774         8.57201         5.81826
     2019.89048         7.99396         5.72942
     2019.89322        10.89591         5.80642
     2019.89596         6.45287         5.68895
     2019.89869        11.63982         5.62873
     2019.90143         7.88278         5.62478
     2019.90417        10.95073         5.67118
     2019.90691        10.83668         5.67611
     2019.90965         2.93164         5.80247
     2019.91238         4.55159         5.69783
     2019.91512        -2.18845         5.76890
     2019.91786        -0.72150         5.56753
     2019.92060         9.12245         5.67907
     2019.92607         1.16536         5.68796
     2019.92881         8.88031         5.79753
     2019.93155         5.05627         5.79951
     2019.93429         6.15322         5.60306
     2019.93702        -3.38682         5.63169
     2019.93976         1.83613         5.65143
     2019.94250        -0.69092         5.64452
     2019.94524         0.35404         5.64156
     2019.94798         1.13999         5.68302
     2019.95071        -0.49005         5.86861
     2019.95345         5.89190         5.70869
     2019.95619         3.17985         5.69586
     2019.95893        -1.76319         5.57838
     2019.96167         1.05976         5.69388
     2019.96440        -2.77229         5.75903
     2019.96714        -5.34633         5.88243
     2019.96988       -10.26038         5.75607
     2019.97262         6.57558         5.74719
     2019.97535         8.00653         5.74324
     2019.97809        -1.38452         5.64354
     2019.98083         3.67344         5.67315
     2019.98357        -0.67761         5.65538
     2019.98631         3.19234         5.65242
     2019.98904         1.55030         5.68401
     2019.99178         1.00425         5.65933
     2019.99452        -2.00479         5.76693
     2019.99726         6.38116         5.71461
     2019.99999        15.39911         5.80049
     2020.00273         4.99707         5.80247
     2020.00547         0.71102         5.83307
     2020.00821         1.54098         5.95745
     2020.01095         1.85693         5.89230
     2020.01368        -4.75912         5.87848
     2020.01642        -0.14516         5.95054
     2020.01916         2.60479         5.78766
     2020.02190        -0.07826         5.96633
     2020.02464        -3.23930         5.85380
     2020.02737        -5.20835         5.84097
     2020.03011         1.18161         5.77779
     2020.03285        -0.83644         5.68796
     2020.03559         0.03251         5.69882
     2020.03833        -4.96153         5.63564
     2020.04106        -2.78758         5.74225
     2020.04380        -4.11663         5.69980
     2020.04654        -3.58267         5.51225
     2020.04928        -4.14972         5.52212
     2020.05201        -2.37576         5.58924
     2020.05475         0.70819         5.51126
     2020.05749         0.04514         5.61590
     2020.06023        -1.40090         5.53692
     2020.06297        -1.07095         5.59220
     2020.06570         2.97701         5.52212
     2020.06844         3.83096         5.55667
     2020.07118         2.53491         5.65538
     2020.07392         1.27087         5.60405
     2020.07666        -1.84518         5.57937
     2020.07939        -2.13423         5.61195
     2020.08213        -0.12227         5.62972
     2020.08487        -4.63932         5.57641
     2020.08761        -1.97236         5.59615
     2020.09034         3.96059         5.62182
     2020.09308        -0.02546         5.64946
     2020.09582        -5.71350         5.56062
     2020.09856       -10.78455         5.68895
     2020.10130        -1.56559         5.60109
     2020.10403        -0.52964         5.69388
     2020.10677        -5.87269         5.60306
     2020.10951        -3.02473         5.56950
     2020.11225        -7.66178         5.59714
     2020.11498         0.08217         5.63070
     2020.11772        -2.45287         5.69092
     2020.12046        -2.80392         5.81431
     2020.12320        -3.29896         5.56555
     2020.12594        -2.39901         5.57345
     2020.12867        -4.89006         5.47770
     2020.13141        -2.49310         5.41057
     2020.13415        -9.53015         5.45499
     2020.13689        -4.60620         5.60208
     2020.13963         0.66276         5.67809
     2020.14236        -3.86829         5.51422
     2020.14510         9.66167         5.57740
     2020.14784         1.32762         5.57542
     2020.15058        -6.37643         5.55667
     2020.15331        -6.15947         5.58233
     2020.15605        -6.15252         5.60899
     2020.15879        -3.50956         5.56456
     2020.16153         0.09439         5.55667
     2020.16427        -3.80666         5.56456
     2020.16700         5.76830         5.61688
     2020.16974        -3.07275         5.60208
     2020.17248         2.94320         5.57345
     2020.17522        -1.17284         5.63959
     2020.17796        -1.22889         5.57838
     2020.18069        -2.26293         5.55963
     2020.18343        -0.78598         5.54680
     2020.18617        -2.73303         5.59023
     2020.18891        -6.04407         5.68796
     2020.19164        -5.10812         5.66624
     2020.19438       -14.16117         5.71560
     2020.19712        -4.08121         5.61688
     2020.19986        -4.34426         5.70770
     2020.20260        -3.08830         5.59615
     2020.20533         0.54365         5.64650
     2020.20807        -2.49140         5.63367
     2020.21081        -8.11644         5.69388
     2020.21355        -7.34549         6.20128
     2020.21629        -3.94153         5.91796
     2020.21902        -1.80558         5.87650
     2020.22176        -3.23563         5.72744
     2020.22450         1.78933         5.70079
     2020.22724        -0.10372         5.71066
     2020.22997         1.62323         5.67611
     2020.23271        -1.18381         5.69882
     2020.23545        -0.21886         5.60208
     2020.23819        -2.65090         5.63268
     2020.24093         1.84405         5.70474
     2020.24366        -1.59300         5.71856
     2020.24640        -0.46804         5.66822
     2020.24914       -10.10209         5.71856
     2020.25188        -4.83913         5.59714
     2020.25462        -2.82718         5.63761
     2020.25735         0.71177         5.65834
     2020.26009        -0.83827         5.59911
     2020.26283         2.87568         5.65341
     2020.26557        -6.22437         5.74126
     2020.26830        -1.84441         5.69882
     2020.27104        -1.68246         5.62182
     2020.27378         1.39050         5.61491
     2020.27652         8.29345         5.70474
     2020.27926        -8.12060         5.86071
     2020.28199        -4.73264         5.75706
     2020.28473       -10.25969         5.60109
     2020.28747        -2.50874         5.80049
     2020.29021        -6.34678         5.68796
     2020.29295        -5.67983         5.69487
     2020.29568         1.04913         5.70474
     2020.29842         3.68808         5.78667
     2020.30116         3.20903         5.72547
     2020.30390         0.88399         5.68302
     2020.30663         2.36294         5.81530
     2020.30937        -3.24110         6.04037
     2020.31211        -9.28015         5.74028
     2020.31485         1.02480         5.63761
     2020.31759        -1.63524         5.56259
     2020.32032         0.48771         5.60109
     2020.32306        -0.38234         5.70869
     2020.32580        -4.21638         5.62281
     2020.32854         2.83757         5.69289
     2020.33128        -2.47447         5.59023
     2020.33401        -0.92852         5.63761
     2020.33675         5.39043         5.70770
     2020.33949        -0.80561         5.61392
     2020.34223        -5.01466         5.69388
     2020.34496        -3.02170         5.59714
     2020.34770        -5.24475         5.63663
     2020.35044        -1.82080         5.57444
     2020.35318        -3.57784         5.79753
     2020.35592        -6.33889         5.71659
     2020.35865        -2.17494         5.71955
     2020.36139        -1.44698         5.83603
     2020.36413        -1.31903         5.74126
     2020.36687         4.24293         5.70770
     2020.36961         4.86888         5.70375
     2020.37234        -1.33417         5.74521
     2020.37508        -1.02921         5.65637
     2020.37782        -0.90126         5.71757
     2020.38056        -4.71031         5.61096
     2020.38329        -2.31935         5.69388
     2020.38603         0.21860         5.66624
     2020.38877        -2.30644         5.67118
     2020.39151        -4.70049         5.63465
     2020.39425        -8.98654         5.60504
     2020.39698        -8.94158         6.11638
     2020.39972        -9.56563         5.67907
     2020.40246        -7.75967         5.64847
     2020.40520       -10.79072         5.75212
     2020.40794         0.62023         5.67315
     2020.41067        -0.33481         5.65341
     2020.41341        -3.03486         5.67907
     2020.41615         1.46709         5.64255
     2020.41889         1.01305         6.09368
     2020.42162       -10.13300         7.44805
     2020.42436         3.74996         5.94462
     2020.42710        -4.11109         5.86071
     2020.42984        -7.92814         5.77680
     2020.43195         0.70637         7.72642
     2020.43531        -9.42823         5.72744
     2020.43805        -0.93428         5.68895
     2020.44033        -4.97565         6.99198
     2020.45522         0.05397         8.25751
     2020.45722        -0.20460         5.59122
     2020.45995        -4.19664         5.57641
     2020.46269        -6.17169         5.58135
     2020.46543        -6.77074         5.66822
     2020.46817         0.24222         5.59418
     2020.47091         6.84617         5.53396
     2020.47364         1.27412         5.67907
     2020.47638         6.53708         5.68500
     2020.47912         2.35003         5.78075
     2020.48180         1.05095         5.98608
     2020.48479        -3.04992         6.24274
     2020.48733        -1.87111         5.74916
     2020.49007         6.37385         5.84195
     2020.49281         7.55380         5.84590
     2020.49555        -3.85824         5.74028
     2020.49828        -3.44029         5.60997
     2020.50102        -3.30334         5.54482
     2020.50376        -2.79338         5.72942
     2020.50650        -2.63043         5.75903
     2020.50924        -2.37248         5.69289
     2020.51197        -8.57152         5.69388
     2020.51471         5.38643         5.89329
     2020.51745         4.27339         5.70671
     2020.52019         2.47134         5.88638
     2020.52292         2.46429         5.93672
     2020.52566        -7.42875         5.75508
     2020.52840        10.53420         5.75903
     2020.53114         6.84815         5.83011
     2020.53388         6.40911         5.79654
     2020.53661        -0.07294         5.76989
     2020.53935        -2.38598         5.72053
     2020.54209        -0.52503         5.74028
     2020.54483         9.77192         5.84393
     2020.54757         5.35988         5.79753
     2020.55030        -0.21117         5.79753
     2020.55304         1.69779         5.72843
     2020.55578         5.68774         5.79260
     2020.55852         8.57269         5.97226
     2020.56125         1.31865         5.96436
     2020.56399         8.79060         5.89822
     2020.56673         0.64555         5.75903
     2020.56947         5.66151         5.78272
     2020.57221        11.14946         5.91105
     2020.57494         3.34542         5.80938
     2020.57768        -2.99763         5.84886
     2020.58042         3.78332         5.77976
     2020.58316         1.32328         5.79951
     2020.58590        -1.19977         5.73337
     2020.58863        -2.48582         5.72350
     2020.59137         5.21414         5.80740
     2020.59411        13.38409         5.62675
     2020.59685        12.16905         5.99101
     2020.59958         3.16900         5.91500
     2020.60232         3.29595         5.71264
     2020.60506         0.08091         5.78470
     2020.60780         8.25686         5.55765
     2020.61054         6.85582         5.63070
     2020.61327         9.62077         5.97818
     2020.61601        -1.29928         5.78174
     2020.61875         3.50968         5.84985
     2020.62109        -4.05265         6.86069
     2020.62696         2.82854         5.82122
     2020.62970         4.11349         5.78667
     2020.63244         7.74245         5.88243
     2020.63518         7.92040         5.97423
     2020.63791        -2.86765         5.84689
     2020.64065         3.61631         5.78865
     2020.64339         1.67426         5.75508
     2020.64613         5.35022         6.01865
     2020.64887        10.15617         5.89427
     2020.65160        12.22012         5.89526
     2020.65434         5.60108         6.08084
     2020.65708         4.00303         5.77976
     2020.65982         8.20698         5.82221
     2020.66256         4.41094         5.84393
     2020.66529        17.39389         5.96041
     2020.66803         2.38985         5.82813
     2020.67077         7.15480         5.77878
     2020.67351        11.58675         5.73633
     2020.67624         1.87871         5.79062
     2020.67898        -1.51734         5.81431
     2020.68172         1.88561         5.79457
     2020.68446        -0.12743         6.12921
     2020.68720        -4.74648         5.88539
     2020.68993         4.89048         5.81234
     2020.69267         2.45743         5.93475
     2020.69541         2.96038         6.17462
     2020.69815         1.61334         5.90711
     2020.70089         0.42529         5.87650
     2020.70362        -2.31175         5.84393
     2020.70636        -3.52080         6.10651
     2020.70910        -0.67585         6.06011
     2020.71184         0.11211         5.77285
     2020.71457         3.71506         5.84097
     2020.71731        -3.37499         5.96831
     2020.72005        -0.91403         5.91402
     2020.72279         4.09392         5.83406
     2020.72553         6.02288         6.11638
     2020.72826         3.17583         5.90711
     2020.73100         5.07578         5.92685
     2020.73374         9.78274         5.87256
     2020.73648         3.35769         5.84985
     2020.73921        -2.81836         5.99397
     2020.74195         2.96460         5.71362
     2020.74469         1.73555         5.69980
     2020.74743         4.49551         5.82912
     2020.75017         1.12946         5.75410
     2020.75290         1.07941         5.86071
     2020.75564        -3.67763         5.57937
     2020.75838        -2.01968         5.58924
     2020.76112         2.26728         5.64946
     2020.76386         2.07223         5.67710
     2020.76659         0.07718         5.64749
     2020.76933         3.88814         5.71659
     2020.77207         5.26809         5.63860
     2020.77481         4.79404         5.71362
     2020.77754        -2.64900         5.80148
     2020.78028         6.36195         5.71165
     2020.78302         1.24491         5.63465
     2020.78576         1.64386         5.82320
     2020.78850        -6.07519         5.74225
     2020.79123        -4.27823         5.68895
     2020.79397         6.40072         5.76298
     2020.79671         2.99868         5.72053
     2020.79945         2.29263         5.77878
     2020.80219         2.18958         5.87453
     2020.80492         9.28154         5.76496
     2020.80766         0.29349         5.79161
     2020.81040        -0.50656         5.76101
     2020.81314         7.26740         5.84097
     2020.81587        -5.84965         5.75805
     2020.81861         1.15431         5.73534
     2020.82044        -2.75939         9.90013
     2020.82683        -3.80683         5.72053
     2020.82956        -4.16588         5.74126
     2020.83230         2.84007         5.83406
     2020.83504        -0.56597         5.81925
     2020.83778        -0.21202         5.71757
     2020.84052        -1.65006         5.67315
     2020.84325        -7.49111         5.85084
     2020.84599        -2.48016         5.97028
     2020.84873         8.79180         5.71461
     2020.85147         3.46375         5.57444
     2020.85694         9.93866         5.68302
     2020.85968         3.22161         5.62478
     2020.86242         8.43457         5.77384
     2020.86516         5.36452         5.75508
     2020.86789        11.49547         5.89427
     2020.87063         3.64043         5.72942
     2020.87337         6.89938         5.73929
     2020.87508         3.70060        11.85765
     2020.88158         7.39224         5.78371
     2020.88432         0.69220         5.77187
     2020.88706        -5.24485         5.77384
     2020.88980        -3.51489         5.65341
     2020.89253        -3.92194         5.57542
     2020.89527         5.75401         5.68204
     2020.89801         3.98097         5.89822
     2020.90075         5.29592         5.69586
     2020.90349         3.35187         5.61787
     2020.90622        -0.08617         5.56753
     2020.90896        -0.66022         5.76693
     2020.91170         0.95474         6.03247
     2020.91444        -0.95831         5.79457
     2020.91718        -7.07536         5.60504
     2020.91991        -7.13340         5.67710
     2020.92168       -10.49014        11.11432
     2020.92550        -6.00641         5.82912
     2020.92813        -9.13354         5.68993
     2020.93908        -6.63073         5.69487
     2020.94182        -6.53977         5.64156
     2020.94455        -6.86682         5.64452
     2020.94729        -8.77086         5.60208
     2020.95003       -13.46691         5.57444
     2020.95277       -18.28496         5.76101
     2020.95551       -14.21300         5.90316
     2020.95824       -14.07205         5.81431
     2020.96098        -8.90510         5.77088
     2020.96372        -7.09014         5.81925
     2020.96646        -2.06019         5.84492
     2020.96919         3.04777         5.76792
     2020.97193        -6.50728         5.57049
     2020.97467         2.10467         5.89131
     2020.97741        -8.21237         5.74916
     2020.98015        -8.22242         5.87947
     2020.98288        -6.08547         5.87058
     2020.98562        -2.73551         5.62083
     2020.98836        -0.69856         5.68598
     2020.99110         1.30740         5.65637
     2020.99384        -4.85965         5.47671
     2020.99657        -4.78970         5.61787
     2020.99931       -11.99274         5.63367
     2021.00205        -8.70479         5.67907
     2021.00479         7.25017         5.60306
     2021.00752         7.08112         5.65736
     2021.01026         3.80207         5.56851
     2021.01300         2.73503         5.59911
     2021.01574         7.11598         5.55765
     2021.01848         0.54393         5.48263
     2021.02121        -3.77211         5.53791
     2021.02395        -2.42316         5.56456
     2021.02669        -5.68120         5.56160
     2021.02943        -2.23525         5.51817
     2021.03216        -6.49630         5.60306
     2021.03450         1.66137         7.14302
     2021.04038        -9.47543         5.62774
     2021.04312        -3.67848         5.59023
     2021.04585         2.03147         5.73830
     2021.04859        -8.18657         5.53199
     2021.05133        -4.20862         5.60109
     2021.05407        -2.54567         5.76199
     2021.05681        -6.91971         5.77680
     2021.05954        -6.45176         5.57246
     2021.06776         6.62810         5.44709
     2021.07049        -0.76494         5.51027
     2021.07323         0.28401         5.55667
     2021.07597        -8.56804         5.53298
     2021.07871        -2.97808         5.56259
     2021.08145        -1.76013         5.50336
     2021.08418       -11.01317         5.45006
     2021.08692        -6.57522         5.54680
     2021.08966        -4.21527         5.53890
     2021.09240        -7.79731         5.59319
     2021.09514        -7.91936         5.64749
     2021.09787        -3.28140         5.73139
     2021.10061        -1.92945         5.48461
     2021.10335         5.08450         5.60701
     2021.10609        -5.79754         5.62577
     2021.10882        -0.87759         5.61688
     2021.11156        -6.98264         5.47375
     2021.11356       -10.84121         8.74714
     2021.11704        -9.54473         5.60899
     2021.11978       -10.66477         5.72942
     2021.12251       -17.55082         5.77976
     2021.12525       -21.02287         5.73830
     2021.12799         1.44209         5.90217
     2021.13073        -6.24696         5.75706
     2021.13347       -11.56801         5.58628
     2021.13620       -22.36105         5.68697
     2021.13894       -11.24610         5.74126
     2021.14168        -8.74614         5.85479
     2021.14442       -10.04319         5.88736
     2021.14715        -3.35124         5.60602
     2021.14989        -4.16628         5.55173
     2021.15166        -5.10702        12.55161
     2021.16358        -6.15851         5.60405
     2021.16632         5.65044         8.84684
     2021.16906         3.06739         5.43920
     2021.17180        -7.63465         5.47770
     2021.17453       -14.47370         5.66822
     2021.17727        -7.47774         5.74817
     2021.18001        -6.66379         5.56851
     2021.18275        -9.08084         5.84492
     2021.18548        -2.40088         5.49546
     2021.18822        -7.30093         5.48461
     2021.19079        -7.62110         6.05913
     2021.19370        -3.77102         5.57345
     2021.19644        -1.23607         5.52705
     2021.19917        -6.65011         5.45795
     2021.20191        -0.63416         5.49448
     2021.20465        -3.68621         5.52113
     2021.20739        -6.35425         5.49053
     2021.21013        -4.66730         5.68401
     2021.21286        -7.97534         5.66032
     2021.21560        -4.62739         5.45104
     2021.21834        -9.94444         5.49645
     2021.22108       -12.89548         5.50632
     2021.22381       -15.05353         5.52310
     2021.22655        -2.68558         5.43327
     2021.22929         2.64838         5.48559
     2021.23203        -5.38867         5.47276
     2021.23477       -10.22371         5.46190
     2021.23750        -9.58276         5.55173
     2021.24024         2.18219         5.54482
     2021.24298        -5.51885         5.48757
     2021.24572        -9.89290         5.40761
     2021.25119        -4.98799         5.56358
     2021.25393        -2.18604         5.46190
     2021.25667        -2.06008         5.47572
     2021.25941        -0.57013         5.54877
     2021.26214         0.51082         5.55667
     2021.26488        -0.72922         5.49448
     2021.26762        -0.72527         5.59813
     2021.27036        -0.95031         5.50336
     2021.27310         6.26864         5.49941
     2021.27583        -0.66841         5.49053
     2021.27857        -0.35345         5.61688
     2021.28131        -1.42450         5.50435
     2021.28405         1.40846         5.52310
     2021.28679         1.10841         5.54976
     2021.28952        -0.70564         5.64058
     2021.29226        -3.39168         5.55568
     2021.29500         2.19027         5.58826
     2021.29774         4.67622         5.83603
     2021.30047         0.14318         5.55864
     2021.30321         5.69213         5.52607
     2021.30595         6.15009         5.72646
     2021.30869        17.18204         5.66624
     2021.31143         4.13799         5.47572
     2021.31416         7.31295         5.56654
     2021.31690         6.61790         5.57542
     2021.31964        -1.82315         5.64156
     2021.32238        -0.65119         5.78667
     2021.32512       -10.43524         5.63959
     2021.32785        -0.89828         5.70968
     2021.33059         1.58067         5.66229
     2021.33333        -1.77938         5.57147
     2021.33607        -3.57042         5.58727
     2021.33880        -4.98847         5.64058
     2021.34154        -0.69951         5.55568
     2021.34428        -2.52656         5.69684
     2021.34702        -5.99261         5.62182
     2021.34976        -3.45465         5.53495
     2021.35249        -3.27770         5.55963
     2021.35523        -7.53575         5.48559
     2021.35797        -6.52879         5.55864
     2021.36071        -5.93584         5.58727
     2021.36344        -8.11788         5.60800
     2021.36618        -8.97593         5.68796
     2021.36892        -2.49798         5.53692
     2021.37166        -0.43302         5.51916
     2021.37440        -7.29707         5.63268
     2021.37616        14.64319        10.73526
     2021.37987         0.16184         5.62182
     2021.38261        -0.91321         5.84590
     2021.38535        -0.50925         5.74028
     2021.38809        -4.20030         5.75706
     2021.39082        -2.23635         5.65736
     2021.39356        -6.22239         5.61392
     2021.39630        -4.94744         5.62379
     2021.39904        -4.06848         5.57838
     2021.40177         1.22347         5.60306
     2021.40451         4.31442         5.76693
     2021.40725        -4.92962         5.59813
     2021.40999         3.64533         5.60109
     2021.41273        -1.85872         5.60800
     2021.41546        -1.53976         5.54581
     2021.41820        -5.01581         5.65242
     2021.42094        -3.23285         5.69882
     2021.42368        -1.44290         6.00385
     2021.42642         6.53605         5.69487
     2021.42915         4.84701         5.68895
     2021.43189         4.15096         5.72744
     2021.43463        -6.73208         5.74126
     2021.43737        -4.53113         5.75805
     2021.44010        -4.71918         5.80444
     2021.44284       -10.36622         5.76594
     2021.44558        -8.45427         5.84195
     2021.44832        -2.84032         5.79062
     2021.45106        -0.57436         5.93573
     2021.45379        -1.92541         5.85183
     2021.45653        -4.29745         5.86170
     2021.45927        -0.48350         5.82024
     2021.46201         0.27445         5.71461
     2021.46475        -5.27359         5.72251
     2021.46748        -2.89264         5.90118
     2021.47022        -3.02369         5.83899
     2021.47296        -1.42473         5.86268
     2021.47570        -3.30478         6.00385
     2021.47843         2.00018         5.85676
     2021.48117       -11.78487         5.74423
     2021.48391        -1.07292         5.76101
     2021.48665        -0.59196         5.71165
     2021.48939        -0.00501         5.70079
     2021.49212         4.38195         5.66920
     2021.49486        -0.35810         5.71659
     2021.49760         1.58885         6.04926
     2021.50034        -0.82119         6.02458
     2021.50308        -1.42224         5.75607
     2021.50581         6.13271         5.83406
     2021.50855        -0.99333         5.82813
     2021.51129        -7.45438         5.72350
     2021.51403        14.37158         5.77581
     2021.51676         6.10753         5.70671
     2021.51950         2.27848         5.82715
     2021.52224        -7.80556         5.69783
     2021.52498        -3.91761         5.69289
     2021.52772         7.97634         5.76101
     2021.53045         5.87730         5.69586
     2021.53319         4.32425         5.62774
     2021.53593        -0.25779         5.82813
     2021.53867         9.54016         6.03050
     2021.54141         2.30611         5.83011
     2021.54414        -2.73393         5.82320
     2021.54688        -3.30698         5.76693
     2021.54962         1.93098         5.73732
     2021.55509         5.99688         5.84097
     2021.55783        -1.30516         5.77878
     2021.56057         2.06479         5.70474
     2021.56331         3.75374         5.75706
     2021.56605         0.15170         5.78272
     2021.56878         0.43765         5.73830
     2021.57152         0.72961         5.76693
     2021.57426        -2.71344         5.90020
     2021.57700        -3.25049         6.32368
     2021.57974        -8.41553         5.74324
     2021.58247        -4.08558         5.89625
     2021.58521        -7.55762         5.87749
     2021.58795       -11.74767         5.99990
     2021.59069        -0.60272         5.89526
     2021.59342        -8.15576         5.82320
     2021.59616        -0.34681         6.18844
     2021.59890         5.04114         6.01174
     2021.60164         8.03810         6.02161
     2021.60438         0.39305         5.74719
     2021.60711        -0.92599         5.73435
     2021.60985         0.88296         5.72152
     2021.61259         2.50591         5.84294
     2021.61533        -0.91113         5.77187
     2021.61807        -0.80718         5.76101
     2021.62080         9.43777         5.75607
     2021.62354         0.54973         5.72053
     2021.62628        10.38368         5.91007
     2021.62902        -5.10436         5.83208
     2021.63175        -1.68541         5.81234
     2021.63449         1.23954         5.69586
     2021.63723         5.04250         6.16278
     2021.63997         7.72545         5.83406
     2021.64271         3.63341         5.93771
     2021.64544         4.95136         5.75015
     2021.64818         1.56731         5.70671
     2021.65074         2.55714         6.12823
     2021.65374         0.97028         6.72644
     2021.65660         2.03332         6.20819
     2021.65913        -2.52087         5.77878
     2021.66187        -1.12992         5.78963
     2021.66461         6.28604         5.79457
     2021.66735         4.14899         5.60602
     2021.67008         3.37794         5.81135
     2021.67282        -0.80610         6.01767
     2021.67556        -1.31815         6.09664
     2021.67830        -2.08819         5.85676
     2021.68104         9.18776         5.64946
     2021.68377         2.89171         5.61787
     2021.68651         2.15167         5.74225
     2021.68925         4.17462         5.80247
     2021.69199         8.37057         5.90316
     2021.69472         1.07953         5.86663
     2021.69746        -2.47952         5.60109
     2021.70020        12.72744         5.84097
     2021.70294         6.08239         5.83998
     2021.70568         8.91134         5.80740
     2021.70841         9.43230         5.77483
     2021.71115         4.50225         5.64452
     2021.71389         6.04620         5.81431
     2021.71663         8.81816         5.86466
     2021.71937         2.45011         5.77581
     2021.72210        -2.59693         5.65045
     2021.72484         0.14602         5.69388
     2021.72758        -1.78503         5.76792
     2021.73032        -4.53107         6.03642
     2021.73305         3.80388         5.60504
     2021.73579         9.70184         5.76397
     2021.73853         9.96679         5.65834
     2021.74127        -0.00126         5.70573
     2021.74401        -0.08830         5.66131
     2021.74674         4.58065         5.64058
     2021.74948         6.24460         5.69487
     2021.75222         7.17356         5.76792
     2021.75496         5.92751         5.67907
     2021.75770         6.58047         5.72448
     2021.76043         8.90042         5.68796
     2021.76317         6.58837         5.80938
     2021.76591         4.52933         5.74028
     2021.76865         3.26328         5.63959
     2021.77138        12.32823         5.84985
     2021.77412         7.01319         5.83208
     2021.77686         7.70314         5.73534
     2021.77960        10.14010         5.79556
     2021.78234         7.86605         5.84097
     2021.78507        11.60600         5.79654
     2021.78781         4.84396         5.68895
     2021.79009         5.12659         7.12130
     2021.79603        10.58682         5.69684
     2021.79876         2.21077         5.66229
     2021.80150         9.74573         5.77483
     2021.80424         4.56768         5.92882
     2021.80698         5.85663         5.91599
     2021.80971         0.51359         5.72350
     2021.81245        11.13854         5.81925
     2021.81519        10.43950         5.73534
     2021.81793         7.48545         5.62577
     2021.82067         1.22040         5.88539
     2021.82340         1.58336         5.85972
     2021.82614        -1.46969         5.83801
     2021.82888         7.12527         5.64354
     2021.83162        11.49522         5.86170
     2021.83436         9.76217         5.77878
     2021.83709         2.44413         5.74521
     2021.83983        -3.95392         5.84689
     2021.84234         2.99187         6.34639
     2021.84531         6.15499         5.79161
     2021.84804         4.78494         5.81629
     2021.85078         4.64590         5.69191
     2021.85352         0.01485         5.88638
     2021.85626         1.47580         5.71659
     2021.85900         1.14576         5.67907
     2021.86173        -1.73029         5.75015
     2021.86447        -1.05634         5.83801
     2021.86721        -5.74638         5.95449
     2021.86995        -2.16543         5.99595
     2021.87269        -2.46247         5.76002
     2021.87542        -1.42152         5.77384
     2021.87816        -0.98257         5.60504
     2021.88090        -2.85161         5.63169
     2021.88364        -2.39766         5.75607
     2021.88637        -7.82170         5.68993
     2021.88911       -10.98675         5.58924
     2021.89185        -7.36280         5.53594
     2021.89459        -2.93284         5.68993
     2021.89733       -10.22589         5.64749
     2021.90006        -7.83994         5.73830
     2021.90280        -2.27398         5.80839
     2021.90554        -4.56003         5.63465
     2021.90828        -0.58207         5.65538
     2021.91102         0.45788         5.72053
     2021.91375        -0.41617         5.69586
     2021.91649        -3.14021         5.71066
     2021.91923         1.75374         5.93178
     2021.92197        -8.80631         5.93277
     2021.92470        -8.23835         5.76890
     2021.92744         0.17460         5.88539
     2021.93018        -9.61344         5.91895
     2021.93292         0.27151         6.09960
     2021.93566         7.71446         5.96041
     2021.93839         8.79342         5.79457
     2021.94113         8.18937         5.91500
     2021.94387         8.84433         5.82517
     2021.94661        -8.51672         5.86071
     2021.94935         8.62623         5.82418
     2021.95208         7.91119         5.74620
     2021.95482        10.42714         5.85577
     2021.95756        12.54609         6.02853
     2021.96030        -2.03895         5.92586
     2021.96303         0.74800         5.95153
     2021.96577         6.68996         5.82320
     2021.96851         0.08091         5.99101
     2021.97125         6.17286         5.89921
     2021.97399         0.08782         5.89723
     2021.97672         7.57977         5.96732
     2021.97946        14.16373         5.91994
     2021.98220         2.10568         5.87848
     2021.98494        -2.04037         5.89032
     2021.98767        -7.74241         5.98509
     2021.99041        -8.75146         5.85084
     2021.99315       -12.07251         5.69684
     2021.99589       -10.69455         5.65834
     2022.00136       -13.28464         5.83603
     2022.00410       -17.16169         5.86861
     2022.00684       -22.23674         5.89329
     2022.00958       -17.64478         5.67216
     2022.01180       -15.02920         7.35624
     2022.01505        -4.81288         5.72448
     2022.01779         3.37208         5.86959
     2022.02053         9.20803         5.79556
     2022.02327        -8.91301         6.17758
     2022.02600       -13.12506         5.88243
     2022.02874        -6.72211         5.91402
     2022.03148       -11.72015         5.88638
     2022.03422        -8.83320         5.76101
     2022.03696        -9.33024         5.85972
     2022.03969       -10.45829         5.78272
     2022.04243         0.48966         5.77779
     2022.04517         0.20062         5.74126
     2022.04791         0.56257         5.81431
     2022.05065        -0.49248         5.68500
     2022.05338       -13.24452         5.70474
     2022.05612       -16.71257         5.72053
     2022.05886       -11.71761         5.82715
     2022.06160        -5.76366         5.78075
     2022.06433         1.97829         5.71264
     2022.06707        -9.45475         5.74423
     2022.06981        -0.39480         5.73633
     2022.07255       -12.45584         5.64749
     2022.07529        -5.67289         5.64058
     2022.07802        -9.29994         5.58036
     2022.08076        -0.49898         5.60306
     2022.08350        -0.12703         5.62675
     2022.08624        -6.58508         5.69980
     2022.08898        -0.44012         5.73139
     2022.09171        -9.09317         5.62478
     2022.09445        -9.12021         5.58233
     2022.09719       -10.24326         5.59615
     2022.09993       -13.94431         5.64551
     2022.10266       -13.47335         5.74225
     2022.10540        -3.05440         5.69586
     2022.10814        -1.20445         5.67414
     2022.11088        -2.30949         5.59813
     2022.11362        -4.88354         5.58529
     2022.11635        -4.73558         5.60701
     2022.11909        -6.34163         5.60109
     2022.12183         0.33732         5.59220
     2022.13278        -5.63586         5.59714
     2022.13552        -1.46691         5.56654
     2022.13826         1.31205         5.56851
     2022.14099        -4.52800         5.55173
     2022.14373        -5.05805         5.58135
     2022.14647        -0.86809         5.62182
     2022.14921         1.73986         5.77779
     2022.15195        -6.01818         5.80543
     2022.15468        -6.72523         5.51916
     2022.15742        -0.68228         5.59517
     2022.16016        -3.06532         5.51916
     2022.16290        -2.60737         5.57740
     2022.16564        -1.19142         5.61590
     2022.16837        -1.38246         5.55371
     2022.17111         2.17149         5.66525
     2022.17385        -0.79855         5.51225
     2022.17659        -1.47960         5.53495
     2022.17932        -9.05965         5.62379
     2022.18206        -4.93269         5.55469
     2022.18480        -0.90074         5.57838
     2022.18754        -2.51578         5.62675
     2022.19028        -7.24683         5.64452
     2022.19301         0.51912         5.62873
     2022.19575         5.39208         5.71362
     2022.19849        -3.32497         5.57049
     2022.20123        -2.71502         5.60800
     2022.20397         2.80094         5.60208
     2022.20670        -1.25811         5.75706
     2022.20944         1.07385         5.75508
     2022.21218         2.07180         5.56259
     2022.21492         0.70675         5.63761
     2022.21765        -4.24829         5.55469
     2022.22039        -4.74634         5.54087
     2022.22313        -5.71738         5.62281
     2022.22587        -9.04943         5.78569
     2022.22861        -5.94648         5.72350
     2022.23134         3.96948         5.56259
     2022.23408         3.69143         5.52113
     2022.23682         2.45938         5.67118
     2022.23956        -0.01966         5.68401
     2022.24230         1.61129         5.63860
     2022.24492         1.02516         5.87552
     2022.24798         7.17935         5.89032
     2022.25051        -1.85985         5.66427
     2022.25336         1.43919         5.66723
     2022.25598         8.50406         5.58431
     2022.25872         2.05701         5.65538
     2022.26146        -1.85803         5.56950
     2022.26420        -0.75908         5.52310
     2022.26694        -1.60112         5.63465
     2022.26967        -3.86317         5.62182
     2022.27241         4.17578         5.67513
     2022.27515         5.49974         5.78470
     2022.27789         3.62369         5.62873
     2022.28062        -1.47435         5.54186
     2022.28336        -6.46740         5.59911
     2022.28610         1.09755         5.81036
     2022.28884        -7.59549         5.84294
     2022.29158        -6.25854         5.69092
     2022.29431        -9.87059         5.58529
     2022.29705         3.69837         5.71362
     2022.29979         0.72132         5.61886
     2022.30253        -3.13172         5.76594
     2022.30527         1.01223         5.81431
     2022.30800        -8.97882         5.63465
     2022.31074        -5.20786         5.58628
     2022.31348        -8.75491         5.60208
     2022.31622        -9.97696         5.65538
     2022.31895       -18.38000         5.81826
     2022.32169         3.24695         5.83801
     2022.32443         0.19191         5.69289
     2022.32717       -10.18814         5.65538
     2022.32991        -5.89219         6.00385
     2022.33264       -10.55823         5.86367
     2022.33538       -10.31728         5.84393
     2022.33812        -8.16532         5.82122
     2022.34086        -5.69837         5.53989
     2022.34360        -6.03042         5.69684
     2022.34633        -1.38846         5.67216
     2022.34907        -2.80651         5.63465
     2022.35181         4.64044         5.55568
     2022.35455        -1.99160         5.55864
     2022.35728        -8.28465         5.53692
     2022.36002        -1.00269         5.45006
     2022.36276        -1.58274         5.54877
     2022.36550        -6.05279         5.60504
     2022.36824        -0.87983         5.60208
     2022.37097        -4.70088         5.55469
     2022.37371        -1.57592         5.58332
     2022.37645        -2.30097         5.53692
     2022.37919        -1.52502         5.85676
     2022.38193        -4.90406         5.76496
     2022.38466        -5.03111         5.60602
     2022.38740       -16.43316         5.57049
     2022.39014        -5.22520         5.62577
     2022.39288         3.71875         5.87256
     2022.39561        -6.24229         5.62083
     2022.39823        -6.14543         5.95054
     2022.40130        -2.38124         6.16080
     2022.40383         1.13457         5.55469
     2022.40657        -2.26648         5.48461
     2022.40930        -5.74453         5.68697
     2022.41204        -3.72157         5.68302
     2022.41478       -10.38362         5.59122
     2022.41752        -5.05566         5.58727
     2022.42026        -4.75871         5.67611
     2022.42299         3.30924         5.56259
     2022.42573         0.37220         5.67907
     2022.42847        -1.38185         5.69980
     2022.43121        -7.38389         5.65045
     2022.43394        -3.32394         5.63465
     2022.43668        -7.14399         5.80740
     2022.43942        -0.91403         5.73830
     2022.44216         0.38592         5.61293
     2022.44490         5.18087         5.93968
     2022.44763        -2.44317         5.78963
     2022.45037        -6.26422         5.57641
     2022.45311        -6.97826         5.55371
     2022.45585        -2.91431         5.59911
     2022.45859       -10.53236         5.54285
     2022.46132        -1.23140         5.67414
     2022.46406        -7.90845         5.54482
     2022.46680        -5.24649         5.52903
     2022.46954        -3.82454         5.56358
     2022.47227       -15.94659         5.52903
     2022.47501         4.83437         5.59911
     2022.47775        -1.76768         5.79654
     2022.48049        -4.16373         5.62083
     2022.48323        -1.88677         5.58036
     2022.48596         0.91518         5.71560
     2022.48870        -5.94286         5.69684
     2022.49144        -4.39091         5.69191
     2022.49418        -1.75396         5.66427
     2022.49692        -0.74700         5.47473
     2022.49965         4.64695         5.55568
     2022.50239       -14.63610         5.82715
     2022.50513         5.42586         5.88045
     2022.50787         8.08781         5.78075
     2022.51060        -0.21823         5.76496
     2022.51334        -2.85828         5.71757
     2022.51608        -7.44333         5.77779
     2022.51882        -3.65837         5.78963
     2022.52156         1.98858         5.63564
     2022.52429        -0.07846         5.54482
     2022.52703         5.65349         5.60701
     2022.52977         8.77644         5.78569
     2022.53251         2.04540         5.78766
     2022.53525         1.51035         5.73435
     2022.53798         3.28930         5.67710
     2022.54072        -0.23974         5.65834
     2022.54346         7.99621         5.81925
     2022.54620         5.00217         5.64255
     2022.54893         1.75712         5.67315
     2022.55167         9.40307         5.63268
     2022.55441         8.58203         5.57246
     2022.55715         8.86698         5.68598
     2022.55989         1.27893         5.81530
     2022.56262         2.50789         5.71856
     2022.56536        -6.98016         5.61688
     2022.56810         9.68980         5.82517
     2022.57084        -0.36025         5.73929
     2022.57357        13.68170         5.93869
     2022.57631         1.26566         5.55469
     2022.57905         8.07961         5.48461
     2022.58179        14.24857         5.59023
     2022.58453        24.89852         5.93376
     2022.58726         7.58347         5.74620
     2022.59000        24.07343         5.82320
     2022.59274         7.18838         5.58233
     2022.59548        10.59433         5.76397
     2022.59822        -0.34171         5.53199
     2022.60095        -2.36976         5.56753
     2022.60369         4.29920         5.68598
     2022.60643         7.71915         5.85874
     2022.60917         9.88110         5.77285
     2022.61190        13.91806         5.83307
     2022.61464        14.76301         5.64156
     2022.61738        16.69197         5.56160
     2022.62012         3.51392         5.62379
     2022.62286         4.92387         5.52508
     2022.62559         5.77183         5.53298
     2022.62833         6.20678         5.53001
     2022.63107        12.27773         5.59714
     2022.63381        15.54969         5.46684
     2022.63655        13.73564         5.61886
     2022.63928         6.66760         5.67809
     2022.64202        11.47555         5.95844
     2022.64476        12.42550         5.90217
     2022.64732        16.19133         6.20424
     2022.65042        24.55555         6.12329
     2022.65319        22.69752         6.19733
     2022.65571        19.46432         5.80049
     2022.65845        13.86227         5.96633
     2022.66119        12.76223         5.49448
     2022.66392        17.91318         5.58628
     2022.66666        14.60813         5.62379
     2022.66940        14.73609         5.50534
     2022.67214        14.75804         5.58332
     2022.67488        13.07100         5.58135
     2022.67761        19.11795         5.47473
     2022.68035        16.96690         5.53594
     2022.68309        20.43886         5.54186
     2022.68583        23.01281         5.87157
     2022.68856        17.92876         5.61392
     2022.69130        13.39572         5.57246
     2022.69404        13.35267         5.56259
     2022.69678        15.43163         5.61491
     2022.69952         9.01258         5.77581
     2022.70225        17.97953         5.80247
     2022.70499        19.63549         5.87453
     2022.70773        19.62244         5.72053
     2022.71047        12.13739         5.56259
     2022.71321        17.36135         5.63169
     2022.71594        21.27030         5.50139
     2022.71868        16.40526         5.52014
     2022.72142        23.01121         5.63959
     2022.72416        11.78116         5.63367
     2022.72689        15.34112         5.65045
     2022.72963        17.98107         5.46980
     2022.73237        13.56503         5.49843
     2022.73511        14.02098         5.50632
     2022.73785        14.65293         5.53495
     2022.74036        22.03972         6.18844
     2022.74684         9.44035         8.30193
     2022.74880        12.58075         5.57147
