# ================= DQRFIT RESULTS ================
# INPUT FILE: series/GHCL.rad
# OUTPUT: LDETRENDED
# FILTER FUNCTION: f(t)
# f(t)=+line(t)+annual(t)
# line(t)=+P 1+P 2*t
# annual(t)=+P 3*sin(2*pi*t+P 4)
# heav(t)=(t<0?0:1)
# TOTAL OBSERVATIONS MTOT= 1049
# INITIAL TIME INTERVAL= 2022.7488 - 2019.7728 =  2.9760
# TOTAL OBSERVATIONS AFTER PREFILTER M= 1041
# TIME-SPAN= 2022.7488 - 2019.7728 =  2.9760
# OBSERVATIONS: USED M=  1041 REJECTED MTOT-M=     8 %USED=   99.2374
# N=  4 PARAMETERS
# MAXSIG= 175.00000
# MAXRES=  23.29390
# SCALE FACTOR FOR LENGTHS: SCL=  10.00000
# SCALE FACTOR FOR SIGMAS: SCLSIG=   1.00000
# CHI^2=   1082.120 DOF=  1037 CHI^2/DOF=   1.04351
# RMS=      5.878 SDEV=      5.879 MEAN=    0.12239
#  P #       PARAMETER +-    SIGMA %error PARAMETER NAME
# P 1 =     -3269.56430 +-  427.524  13.08 YZERO                              
# P 2 =         1.62790 +-    0.212  12.99 SLOPE                              
# P 3 =         4.75209 +-    0.258   5.42 ANNUAL AMPLITUDE                   
# P 4 =        -2.90691 +-    0.075   2.56 ANNUAL PHASE                       
#       T            LDETRENDED       SIG_OBS
     2019.77275        10.58701         5.72257
     2019.77549         6.30255         5.66128
     2019.77823        15.01009         5.62451
     2019.78097        11.12963         5.67967
     2019.78371        13.91518         5.56730
     2019.78644        13.11872         5.76241
     2019.78918       -10.08474         5.87580
     2019.79192         7.35981         5.70214
     2019.79466        11.78635         5.84516
     2019.79739         9.74489         5.88193
     2019.80013         9.63744         5.57139
     2019.80287         5.80298         5.63574
     2019.80561        -2.85948         5.90032
     2019.80835         9.02307         5.52746
     2019.81108         9.11761         5.63677
     2019.81382        12.13015         5.79510
     2019.81656        13.89769         5.54483
     2019.81930         4.08124         5.54279
     2019.82203         3.62978         5.53768
     2019.82477         9.97332         5.59182
     2019.82751         7.23087         5.58875
     2019.83025        12.97541         5.65413
     2019.83299         2.61195         5.66435
     2019.83572         4.09150         5.61021
     2019.83846         9.49804         5.56117
     2019.84120        10.07558         5.53257
     2019.84394         3.63312         5.71849
     2019.84668         0.89667         5.55811
     2019.84941         4.83721         5.52338
     2019.85215         5.73175         5.66639
     2019.85489         6.26130         5.77569
     2019.85763        -4.61416         5.56117
     2019.86036         2.23438         5.62553
     2019.86310         0.15793         5.55198
     2019.86584        -0.85353         5.74505
     2019.86858         8.16701         5.74811
     2019.87132         5.81656         5.78182
     2019.87405         4.68410         5.52133
     2019.87679         7.26964         5.87580
     2019.87953        -0.09982         5.67967
     2019.88227        15.27973         5.61838
     2019.88501        10.55427         5.56219
     2019.88774        11.88681         5.65311
     2019.89048        11.74136         5.53972
     2019.89322         7.36490         5.83596
     2019.89596         2.05744         5.63881
     2019.89869        10.13899         5.55607
     2019.90143         8.86153         5.49886
     2019.90417        12.86007         5.63881
     2019.90691        16.25362         5.51010
     2019.90965         8.98616         5.50397
     2019.91238        15.00170         5.52440
     2019.91512        23.06224         5.59182
     2019.91786        10.90979         5.50499
     2019.92060        13.65233         5.45289
     2019.92334         9.33887         5.53870
     2019.92607         8.77042         5.51520
     2019.92881        12.95596         5.63983
     2019.93155        -1.04750         5.56628
     2019.93429         3.92305         5.55096
     2019.93702         4.54759         5.48762
     2019.93976        -2.82187         5.64800
     2019.94250        -2.96833         5.54585
     2019.94524        -9.26878         5.63983
     2019.94798        -2.39424         5.59693
     2019.95071         1.30030         5.79306
     2019.95345         2.77585         5.55198
     2019.95619         2.83539         5.52031
     2019.95893        -0.89107         5.64187
     2019.96167         7.17648         5.55504
     2019.96440        -1.68298         5.74300
     2019.96714        -9.60444         5.63370
     2019.96988        -8.87989         5.57956
     2019.97262        -4.18835         5.58569
     2019.97535        -3.31681         5.52644
     2019.97809        -4.03327         5.55913
     2019.98083        -1.06872         5.51623
     2019.98357        -4.35618         5.55504
     2019.98631        -5.53464         5.55402
     2019.98904        -4.05409         5.62859
     2019.99178        -2.89255         5.50703
     2019.99452        -4.05701         5.62962
     2019.99726        -2.39346         5.72257
     2020.00000         3.47708         5.66741
     2020.00273        -2.41038         5.58875
     2020.00547         4.17517         5.93301
     2020.00821        -5.05229         5.75424
     2020.01095         0.38625         5.71134
     2020.01368       -12.15521         5.64800
     2020.01642       -14.17866         5.66945
     2020.01916       -11.08812         5.81962
     2020.02190         0.49542         5.64290
     2020.02464        -6.14903         5.71542
     2020.02737         2.14251         5.52848
     2020.03011        -6.18495         5.53257
     2020.03285         6.84460         5.54687
     2020.03559         5.06614         5.47741
     2020.03833        19.22968         5.53155
     2020.04106         0.73522         5.70010
     2020.04380         1.63877         5.59591
     2020.04654       -10.44969         5.38751
     2020.04928       -12.43315         5.51010
     2020.05201       -10.44560         5.49171
     2020.05475        -3.43906         5.52542
     2020.05749        -7.08252         5.38036
     2020.06023        -8.52897         5.45493
     2020.06297        -9.63043         5.47843
     2020.06570       -11.61089         5.48558
     2020.06844        -9.10934         5.59591
     2020.07118        -1.49180         5.48149
     2020.07392        -1.16526         5.61225
     2020.07666        -9.12672         5.49477
     2020.07939        -7.79817         5.44268
     2020.08213        -4.92663         5.51520
     2020.08487       -12.48809         5.52133
     2020.08761         1.92946         5.49069
     2020.09034        -4.57800         5.45902
     2020.09308         2.23454         5.44165
     2020.09582        -3.92391         5.48047
     2020.09856        -6.37937         5.50908
     2020.10130       -13.39983         5.49580
     2020.10403         2.16472         5.59488
     2020.10677        -5.92274         5.57139
     2020.10951        -3.74820         5.41510
     2020.11225         0.61834         5.44370
     2020.11498        -5.65211         5.43042
     2020.11772        -4.50457         5.65311
     2020.12046        -3.51703         5.60918
     2020.12320       -10.81248         5.49988
     2020.12594        -4.05594         5.44676
     2020.12867        -8.45240         5.44778
     2020.13141        -2.98585         5.51725
     2020.13415        -2.37231         5.42940
     2020.13689         2.38523         5.53666
     2020.13963         1.07177         5.58365
     2020.14236        -2.65768         5.49784
     2020.14510         5.76386         5.60714
     2020.14784        -0.96060         5.45085
     2020.15058        -5.68305         5.47945
     2020.15331        -6.56351         5.47639
     2020.15605         0.15603         5.48660
     2020.15879        -2.44442         5.43757
     2020.16153        -4.01888         5.59386
     2020.16427         0.07066         5.42838
     2020.16700        -3.70879         5.46924
     2020.16974        -3.95625         5.59386
     2020.17248        -1.27971         5.73483
     2020.17522        -1.48717         5.44676
     2020.17796        -3.55962         5.44881
     2020.18069        -7.19508         5.41101
     2020.18343        -0.78554         5.43961
     2020.18617        -1.38499         5.42020
     2020.18891        -1.25945         5.55709
     2020.19164       -11.49391         5.61429
     2020.19438        -3.95036         5.52031
     2020.19712        -5.23582         5.49784
     2020.19986        -0.16628         5.53155
     2020.20260        -1.97273         5.64902
     2020.20533        -4.50919         5.54176
     2020.20807         0.49735         5.56526
     2020.21081        -6.76111         5.59386
     2020.21355        -3.12256         6.03822
     2020.21629        -1.40802         5.81758
     2020.21901        -3.31145         5.66639
     2020.22179       -12.20998         5.73892
     2020.22450        -7.76239         5.58569
     2020.22724        -8.95685         5.52338
     2020.22997        -4.12230         5.52746
     2020.23271         0.64324         5.57650
     2020.23545        -5.01422         5.49477
     2020.23819       -15.01668         5.51418
     2020.24093        -9.08013         5.56117
     2020.24366        -6.54859         5.62451
     2020.24640        -2.80605         5.61123
     2020.24914        -9.65050         5.58978
     2020.25188        -5.30596         5.52133
     2020.25462        -9.54442         5.52951
     2020.25735         0.02313         5.56935
     2020.26009         6.62467         5.51010
     2020.26283         3.62021         5.52338
     2020.26557         0.04676         5.53870
     2020.26830        -3.58970         5.59999
     2020.27104         1.05184         5.55504
     2020.27378        -3.71862         5.51725
     2020.27652        -0.54807         5.55811
     2020.27929         0.40842         5.77263
     2020.28199         0.35601         5.94424
     2020.28473        -7.07044         5.61736
     2020.28747        -6.68590         5.66435
     2020.29021        -1.96236         5.60714
     2020.29295        -1.48381         5.52848
     2020.29568         0.67373         5.64800
     2020.29842        -0.62473         5.52746
     2020.30116         0.18082         5.54279
     2020.30390         2.01636         5.54687
     2020.30663        -2.41510         5.58160
     2020.30937        -7.87356         5.64085
     2020.31211        -2.20601         5.62655
     2020.31485       -12.59747         5.70419
     2020.31759        -4.47493         5.47537
     2020.32032        -4.76238         5.72972
     2020.32306         0.91216         5.55504
     2020.32580        -1.80630         5.58263
     2020.32854        -4.68175         5.56015
     2020.33128       -11.10121         5.52746
     2020.33401        -8.16567         5.47741
     2020.33675         0.34687         5.51929
     2020.33949        -4.26858         5.51010
     2020.34223        -4.80504         5.67354
     2020.34496        -8.71750         5.68478
     2020.34770        -9.93195         5.48558
     2020.35044        -2.73141         5.62859
     2020.35318        -0.98787         5.62553
     2020.35592        -1.02332         5.59182
     2020.35865        -0.98678         5.55300
     2020.36139        -7.39524         5.49682
     2020.36413        -9.77469         5.58058
     2020.36687        -2.45915         5.58671
     2020.36961        -3.72761         5.49069
     2020.37234        -1.91007         5.47639
     2020.37508        -8.60452         5.57547
     2020.37782        -2.02798         5.50601
     2020.38056        -5.25244         5.49273
     2020.38329        -2.19089         5.48865
     2020.38603         1.95965         5.52542
     2020.38877         5.50719         5.57241
     2020.39151        -1.64226         5.47230
     2020.39425        -2.49872         5.48660
     2020.39698        -3.45918         5.57854
     2020.39972        -1.79263         5.52031
     2020.40246        -4.05909         5.55504
     2020.40520         2.14645         5.55504
     2020.40794        -2.96201         5.60306
     2020.41067        -2.80646         5.68478
     2020.41341        -0.14192         5.51112
     2020.41615         0.72462         5.46311
     2020.41889         1.59117         5.52440
     2020.42162        -3.00929         5.66843
     2020.42436        -0.23475         5.86150
     2020.42710        -4.51420         5.76752
     2020.42984        -7.53766         5.54483
     2020.43258         1.77088         5.61429
     2020.43531        -3.79258         5.59897
     2020.43805       -14.85203         5.74913
     2020.44079        -8.50149         5.57854
     2020.44353         2.06605         5.66537
     2020.44626        -9.29240         5.54687
     2020.44900        -5.85386         5.54074
     2020.45174        -1.82532         5.52133
     2020.45448       -12.42377         5.56015
     2020.45722        -9.37923         5.47843
     2020.45995         0.94331         5.45596
     2020.46269        -8.79714         5.53155
     2020.46543         0.13040         5.56322
     2020.46817        -2.21106         5.62144
     2020.47091        -2.05152         5.51418
     2020.47364        -3.48397         5.50090
     2020.47638         2.66057         5.55402
     2020.47912        -1.84789         5.62144
     2020.48186        -2.75334         5.57547
     2020.48459        -6.81680         5.77161
     2020.48733         4.11474         5.79408
     2020.49007        -4.28271         5.68273
     2020.49281         2.42183         5.56322
     2020.49555        -0.36363         5.70214
     2020.49828        -2.03408         5.54789
     2020.50102        -6.03854         5.47945
     2020.50376        -1.92300         5.56935
     2020.50650        -7.21446         5.54585
     2020.50924        -4.86991         5.47945
     2020.51197        -1.63537         5.55913
     2020.51471        -5.84183         5.50090
     2020.51745         0.11772         5.49580
     2020.52019         4.36426         6.00962
     2020.52292         0.32180         5.59999
     2020.52566        -1.85165         5.76650
     2020.52840        -4.27811         5.64800
     2020.53114         2.12343         5.55709
     2020.53388        -1.38803         5.62553
     2020.53661        -0.03948         5.70623
     2020.53935        -4.21394         5.75118
     2020.54209         0.46660         5.67456
     2020.54483         3.00215         5.63983
     2020.54757        -0.48031         5.63268
     2020.55030         2.27623         5.69295
     2020.55304         0.38878         5.71236
     2020.55578         4.66232         5.67661
     2020.55852         5.59586         5.56219
     2020.56125         6.44841         5.58671
     2020.56399         6.47295         5.61021
     2020.56673        -2.12851         5.62451
     2020.56947        -0.12597         5.64085
     2020.57221         3.95558         5.87580
     2020.57494        -1.63288         5.71849
     2020.57768         5.01966         5.71236
     2020.58042         0.83221         5.65822
     2020.58316        -4.47525         5.64290
     2020.58590        -1.45171         5.67150
     2020.58863         4.27584         5.58569
     2020.59137         2.45738         5.66945
     2020.59411         7.40092         5.63268
     2020.59685        -0.29753         6.07296
     2020.59958        -1.75799         5.83188
     2020.60232         2.62455         5.61531
     2020.60506         3.05909         5.62962
     2020.60780         6.59964         5.75526
     2020.61054         5.42018         5.66230
     2020.61327         7.19072         5.74811
     2020.61601         7.86927         5.65822
     2020.61875         4.91481         5.63574
     2020.62149        -2.29865         5.71440
     2020.62423         1.78790         5.83086
     2020.62696         2.17544         6.07193
     2020.62970        -0.71802         5.69806
     2020.63244         7.46052         5.64290
     2020.63518         0.20507         5.76650
     2020.63791        -7.07039         6.09032
     2020.64065        -3.25585         5.67150
     2020.64339        -1.44930         5.73381
     2020.64613         3.39724         5.73688
     2020.64887         5.50678         5.59591
     2020.65160         1.07733         5.59284
     2020.65434        -0.64613         5.63574
     2020.65708        -1.16359         5.76139
     2020.65982         1.23196         5.77059
     2020.66256         4.24650         5.62962
     2020.66529        11.97704         5.81758
     2020.66803        -0.72242         5.64902
     2020.67077        -6.78487         5.97080
     2020.67351         3.36467         5.69091
     2020.67624         5.88921         5.66230
     2020.67898        -1.40324         5.76956
     2020.68172        -1.17470         5.68784
     2020.68446         4.04384         5.91156
     2020.68720         4.04839         5.79612
     2020.68993         3.56593         5.68069
     2020.69267         6.59247         5.70827
     2020.69541         4.59702         5.87069
     2020.69815         6.71056         5.69193
     2020.70089         5.90510         5.58160
     2020.70362         8.70964         5.74709
     2020.70636         7.00019         6.18737
     2020.70910        -7.87827         6.29463
     2020.71184         6.53427         5.81655
     2020.71457        -2.04018         5.95548
     2020.71731        -2.97364         5.80634
     2020.72008        -7.16015         5.90338
     2020.72279         4.18245         5.69704
     2020.72553         8.35199         5.76548
     2020.72826        -2.88647         6.22312
     2020.73100        -4.00393         5.84209
     2020.73374        -4.41538         5.82881
     2020.73648         1.08016         5.80736
     2020.73921        -3.39030         5.70112
     2020.74195         4.08725         5.56832
     2020.74469         6.39279         5.66843
     2020.74743         2.90933         5.66333
     2020.75017         4.93488         5.71951
     2020.75290         2.44742         5.69499
     2020.75564        -0.56304         5.52338
     2020.75838         5.93651         5.67456
     2020.76112         0.82605         5.58978
     2020.76386        -1.63441         5.61327
     2020.76659         6.54713         5.59386
     2020.76933         9.74668         5.70929
     2020.77207         2.36922         5.58569
     2020.87611         1.91186         5.82677
     2020.87885         6.37940         5.87989
     2020.88158         7.99994         5.82677
     2020.88432         3.46949         5.61123
     2020.88706         2.75703         6.04742
     2020.88980         8.98057         5.68784
     2020.89253         6.30212         5.67252
     2020.89527        12.87766         6.20065
     2020.89801        14.66720         5.84516
     2020.90075         0.89474         5.75731
     2020.90349         8.04029         5.63268
     2020.90622         9.10183         5.61123
     2020.90896         3.38737         5.91666
     2020.91170         9.24392         6.07704
     2020.91444        10.20946         5.93199
     2020.91718         7.34400         5.72666
     2020.91991         5.12755         5.61225
     2020.92265         4.82509         5.65413
     2020.92539         2.41763         5.63779
     2020.92813        -3.97883         5.67048
     2020.93086        -3.80728         5.61123
     2020.93360         1.10326         5.66026
     2020.93634        -4.69220         5.62553
     2020.93908        -0.59965         5.63881
     2020.94182       -11.14111         5.62349
     2020.94455       -12.04057         5.66333
     2020.94729        -8.20702         5.61327
     2020.95003         0.35552         5.76752
     2020.95277       -10.86994         5.60306
     2020.95551        -3.36039         5.62962
     2020.95824        -6.03885         5.59795
     2020.96098        -2.26031         6.23640
     2020.96372        -3.89977         5.63779
     2020.96646        -1.25322         5.70112
     2020.96919        -5.36268         5.80532
     2020.97193        -1.91214         5.74607
     2020.97467        -4.16359         5.69193
     2020.97741        -7.53005         5.74505
     2020.98015        -0.89351         5.80430
     2020.98288         1.78904         5.76241
     2020.98562         1.46058         5.62144
     2020.98836         1.59612         5.59591
     2020.99110        -1.66733         5.56730
     2020.99384        -1.60779         5.54381
     2020.99657        -6.02825         5.66128
     2020.99931         2.30129         5.51418
     2021.00205        -8.39216         5.58978
     2021.00479         1.89838         5.57445
     2021.00752        -0.14808         5.59897
     2021.01026         3.16447         5.63064
     2021.01300        -0.21799         5.52031
     2021.01574        -5.84945         5.75220
     2021.01848        -2.43490         5.52951
     2021.02121        -3.17736         5.55709
     2021.02395         1.78818         5.60510
     2021.02669        -0.41528         5.78693
     2021.02943        -3.04773         5.55607
     2021.03216       -10.49819         5.58875
     2021.03490        -6.53465         5.66945
     2021.03764        -1.08510         5.56935
     2021.04038        -5.86356         5.65924
     2021.04312        -5.90302         5.53461
     2021.04585        -6.81147         5.73381
     2021.04859        -3.43893         5.56935
     2021.05133        -4.40939         5.57241
     2021.05367         8.14081         7.12002
     2021.05681         4.61070         5.73279
     2021.05954        -6.44876         5.53666
     2021.06228        -4.02522         5.59693
     2021.06502        -3.79167         5.64290
     2021.06776         1.67987         5.57956
     2021.07049        -2.98259         5.52133
     2021.07323        -4.29804         5.50601
     2021.07597       -11.30150         5.55913
     2021.07871        -7.96696         5.59284
     2021.08145        -7.64641         5.56935
     2021.08418       -13.41387         5.56628
     2021.08692       -10.40333         5.51316
     2021.08966       -11.19978         5.56424
     2021.09240       -14.89924         5.57241
     2021.09514        -6.89870         5.71134
     2021.09787        -5.00316         5.77876
     2021.10061        -0.38261         5.57650
     2021.10335        -2.35007         5.51214
     2021.10609        -6.81453         5.56832
     2021.10882        -4.04298         5.49375
     2021.11156        -6.54844         5.54687
     2021.11430        -8.71790         5.50703
     2021.11704         0.37865         5.45698
     2021.11978        -5.33881         5.54687
     2021.12251       -10.13127         5.57650
     2021.12525       -10.63573         5.56424
     2021.12799        -4.52118         5.49477
     2021.13073        -3.39964         5.46413
     2021.13347        -4.92010         5.63983
     2021.13620        -8.65555         5.68682
     2021.13894        -7.15501         5.55913
     2021.14168       -12.13147         5.62246
     2021.14442       -14.05292         5.59591
     2021.14715        -5.78938         5.51316
     2021.14989       -11.37984         5.51316
     2021.15263        -7.64029         5.71951
     2021.15537         1.09525         5.74913
     2021.15811        -5.56921         5.87478
     2021.16084        -7.08867         5.64187
     2021.16358        -4.13712         5.59182
     2021.16632         2.75942         5.68989
     2021.16906         3.80596         5.56117
     2021.17180        -2.30949         5.57854
     2021.17453       -16.99595         5.74403
     2021.17727        -7.28541         5.71542
     2021.18001        -5.89086         5.66537
     2021.18275        -9.25432         5.75833
     2021.18548        -9.53678         5.61123
     2021.18822       -10.24024         5.54994
     2021.19096        -1.03669         5.49069
     2021.19370        -2.44515         5.60203
     2021.19644       -11.37461         5.52338
     2021.19917       -15.37506         5.62655
     2021.20191        -2.10352         5.59591
     2021.20465         0.87102         5.58569
     2021.20739        -2.02443         5.54074
     2021.21013        -1.05889         5.78999
     2021.21286       -10.35135         5.71236
     2021.21560        -6.29980         5.55096
     2021.21834        -7.34826         5.61327
     2021.22108       -10.39572         5.50295
     2021.22381        -4.36418         5.56832
     2021.22655        -5.54563         5.53870
     2021.22929         1.87291         5.52848
     2021.23203         2.20745         5.53257
     2021.23477        -1.43200         5.53053
     2021.23750        -4.80046         5.52133
     2021.24024        -1.42392         5.57547
     2021.24298        -0.47537         5.50090
     2021.24572        -6.82583         5.51929
     2021.24846         0.32271         5.68273
     2021.25119         2.60326         5.52440
     2021.25393        -0.00120         5.65005
     2021.25667         0.21534         5.55811
     2021.25941        -2.16812         5.53053
     2021.26214         0.20743         5.54279
     2021.26488        -1.70803         5.52031
     2021.26762         2.71851         5.62757
     2021.27036         0.36406         5.68989
     2021.27310        -2.33440         5.62349
     2021.27583        -1.88086         5.52644
     2021.27857        -3.26431         5.65515
     2021.28131        -3.24077         5.60408
     2021.28405        -2.75723         5.66945
     2021.28679         2.25631         5.69601
     2021.28952         4.13186         5.74607
     2021.29226        -0.45360         5.81349
     2021.29500         2.85294         5.66435
     2021.29774        -3.42351         5.89215
     2021.30047         3.28803         5.79306
     2021.30321         4.09657         5.75833
     2021.30595         7.80212         5.84414
     2021.30869        12.40266         5.80123
     2021.31143         0.29020         5.55607
     2021.31416         0.02175         5.62757
     2021.31690         2.76329         5.57037
     2021.32021         2.15290         8.28558
     2021.32295         1.49045         7.75541
     2021.32569         2.10599         7.52250
     2021.32842         0.28853         7.35803
     2021.33116        17.43408         7.41830
     2021.33390         9.07762         7.50309
     2021.33664        -1.69784         7.42035
     2021.33937        -1.82730         7.40707
     2021.34211         4.90325         7.36314
     2021.34485        -4.75421         7.75847
     2021.34759       -12.11567         7.50002
     2021.35033        -2.80912         7.67879
     2021.35306        -4.87558         7.48777
     2021.35580         3.09296         7.36723
     2021.35854         2.96651         7.68288
     2021.36128         4.63005         7.53271
     2021.36402         4.43159         7.45814
     2021.36653        -3.43349         6.55205
     2021.36892        -1.91939         5.58365
     2021.37166         2.92915         5.54074
     2021.37440        -2.88931         5.62553
     2021.37770        -0.92069         7.56336
     2021.38044         5.10085         7.72885
     2021.38318         5.14739         7.92498
     2021.38592         7.17394         7.81568
     2021.38866        -2.07952         7.53578
     2021.39413        -0.00243         7.65019
     2021.39687        -4.38189         7.48368
     2021.39938         2.19402         6.58780
     2021.40177         5.89512         6.09237
     2021.40451         0.35467         5.71644
     2021.40782         0.18928         7.55519
     2021.41056         4.02782         7.45201
     2021.41330         6.22737         7.63180
     2021.41603         2.42191         7.66245
     2021.41877        -0.62255         7.56745
     2021.42151        -0.88200         7.65836
     2021.42425        12.08854         7.70637
     2021.42699         6.17908         7.46734
     2021.42972        -1.99837         7.56336
     2021.43246         0.84317         7.66040
     2021.43520        -2.35329         7.43056
     2021.43794        -9.05875         7.85654
     2021.44068         1.18280         7.41932
     2021.44341        -0.64966         7.41524
     2021.44615         1.85688         7.37233
     2021.44889        -3.65857         7.42443
     2021.45163        -0.28803         7.69514
     2021.45436         4.05851         7.68901
     2021.45710         1.39506         7.55723
     2021.45984         5.55460         7.42647
     2021.46258        10.22314         7.35701
     2021.46527        13.91575         7.68390
     2021.46805        10.01323         7.38664
     2021.47079         4.65177         7.47040
     2021.47353         4.26031         7.60422
     2021.47627         4.35386         7.40911
     2021.47901        11.51040         7.44997
     2021.48174         0.92594         7.49594
     2021.48448        -2.70751         7.63589
     2021.48722         0.07603         7.71761
     2021.48996         6.82057         7.70842
     2021.49269         8.06912         7.59605
     2021.49520        -1.19797         6.68996
     2021.49817        -9.20080         7.93724
     2021.50091        -5.56026         7.50207
     2021.50365         2.16029         7.36314
     2021.50638         1.26083         7.47959
     2021.50912        11.57037         7.52761
     2021.51186         6.36492         8.19466
     2021.51460         1.58446         7.61648
     2021.51733         9.19300         7.42750
     2021.52007         4.08855         7.75132
     2021.52281         9.57509         7.45508
     2021.52555        10.07463         7.50309
     2021.52829         4.47418         7.47040
     2021.53102         5.11072         7.38664
     2021.53376        11.73926         7.44384
     2021.53650         1.06480         7.71250
     2021.53924        11.17335         7.73089
     2021.54198         9.16389         7.47959
     2021.54471         1.41443         7.64508
     2021.54745        -1.00102         7.57766
     2021.55019         1.93152         7.41728
     2021.55293         7.54706         7.49594
     2021.55566         5.18361         7.65427
     2021.55840         1.97315         7.57766
     2021.56114         5.70669         7.40094
     2021.56388         4.59024         7.39992
     2021.56605         4.41771         5.65311
     2021.56878         3.36225         5.59182
     2021.57152        -4.29021         5.84209
     2021.57426        -0.12966         5.73483
     2021.57700        10.27188         6.11995
     2021.57974        -2.46158         5.67048
     2021.58247        -3.90104         5.63677
     2021.58521        -4.16749         5.67558
     2021.58795        -1.83995         5.84822
     2021.59069        -0.50841         5.70521
     2021.59342         0.35514         5.75016
     2021.59616         6.66968         5.97183
     2021.59890        -4.04378         5.78284
     2021.60164         4.42277         5.75628
     2021.60438         4.09131         5.64596
     2021.60711         2.19285         5.78999
     2021.60985         2.00940         5.66333
     2021.61259         1.09394         5.68376
     2021.61533        -2.28252         5.66435
     2021.61807         1.35902         5.60918
     2021.62080         5.31657         5.64596
     2021.62354         5.13711         5.65720
     2021.62628         4.82365         5.70419
     2021.62902         9.58120         5.58365
     2021.63175         9.36374         5.76752
     2021.63449         7.01328         5.85741
     2021.63723         6.00883         5.92484
     2021.63997         5.11237         5.82677
     2021.64271        10.41091         5.70827
     2021.64544         2.72646         5.65413
     2021.64818         7.08900         5.58773
     2021.65092         1.97254         5.80430
     2021.65366        -1.10992         5.63166
     2021.65639         2.68163         5.66128
     2021.65913        -2.21883         6.86157
     2021.66187         7.71171         5.62042
     2021.66461         4.42326         5.63268
     2021.66735         6.36180         5.61838
     2021.67008         2.34334         5.80225
     2021.67282         2.09689         6.02699
     2021.67556         8.77343         5.95242
     2021.67830         4.11597         5.91462
     2021.68104         8.16551         5.61736
     2021.68377         5.11906         5.80123
     2021.68651         5.18760         5.82677
     2021.68925         8.02714         5.64698
     2021.69199         7.03169         5.64085
     2021.69472         7.19923         5.65822
     2021.69746         5.12277         5.71236
     2021.70020         4.63032         5.69091
     2021.70294         3.80186         5.77671
     2021.70568         6.75940         5.86354
     2021.70841        12.20795         5.77774
     2021.71115         7.51649         5.75322
     2021.71389         7.02103         6.02597
     2021.71663         0.83557         5.80021
     2021.71937         1.67912         5.76037
     2021.72210        -0.86634         5.73892
     2021.72484         2.36220         5.80838
     2021.72758         2.29975         5.74505
     2021.73032         0.42329         6.12914
     2021.73305         7.76683         5.73994
     2021.73579        14.49338         5.99226
     2021.73855         9.59589         6.20065
     2021.74127         5.95746         5.73892
     2021.74401        -5.64199         5.91666
     2021.74674        -6.00745         5.99532
     2021.74948         2.57209         5.76343
     2021.75222         4.10863         5.82677
     2021.75496        10.07618         6.01882
     2021.75706         9.15076         7.98729
     2021.76043         6.91326         6.07398
     2021.76317        -2.53919         5.80225
     2021.76591        -0.59765         5.76139
     2021.76865         6.68889         5.80225
     2021.77138         9.00644         5.84618
     2021.77412         2.22198         5.97693
     2021.77686         9.17852         5.75220
     2021.77960         5.76806         5.75526
     2021.78234         0.19761         5.85435
     2021.78507         2.71715         5.74096
     2021.78781         7.82869         5.77569
     2021.79055        11.78624         5.73279
     2021.79329         2.85278         5.73381
     2021.79603         3.90732         5.73790
     2021.79876         2.44587         5.71747
     2021.80150         3.32941         5.98204
     2021.80424         7.86995         5.97898
     2021.80698        -2.71850         5.86865
     2021.80971        -0.81896         5.99736
     2021.81245         8.61058         5.99226
     2021.81519         3.78012         5.65413
     2021.81793         6.49867         5.78591
     2021.82067         0.11321         5.87580
     2021.82340         3.31775         5.91973
     2021.82614        -0.06070         5.76241
     2021.82888         2.96584         5.76548
     2021.83162         8.60038         5.83801
     2021.83436        11.22093         5.94527
     2021.83709        -2.44753         5.85231
     2021.83983        -1.25799         5.93403
     2021.84257       -14.36344         5.99430
     2021.84531        -6.84990         5.92892
     2021.84804         2.52364         5.91462
     2021.85078         3.09218         5.90849
     2021.85352        -0.76527         5.88193
     2021.85626         0.22927         5.93301
     2021.85900        -3.02619         5.87989
     2021.86447        -9.99410         5.94833
     2021.86721        -7.99556         6.11790
     2021.86995        -2.90701         6.09339
     2021.87269       -10.10047         6.17511
     2021.87542         3.01907         5.85537
     2021.87816        -0.68539         5.68273
     2021.88090         8.68616         5.91564
     2021.88364        -7.67130         5.90747
     2021.88637        -9.72776         5.79510
     2021.88911        -9.93021         5.71747
     2021.89185        -9.50767         6.06172
     2021.89459        -7.03413         5.76650
     2021.89733        -1.46258         5.70112
     2021.90006       -10.15704         5.88704
     2021.90280       -15.02150         5.79612
     2021.90554        -5.93295         5.76446
     2021.90828        -8.08241         5.93301
     2021.91102         0.23513         5.76446
     2021.91375        -5.38333         5.75322
     2021.91649        -8.71178         5.74709
     2021.91923        -1.18824         5.98613
     2021.92197        -3.50870         6.12301
     2021.92470        -7.68115         5.90134
     2021.92744         1.31239         5.86048
     2021.93018       -10.54907         6.04844
     2021.93292        -1.28752         5.96774
     2021.93566         6.99702         6.14855
     2021.93839        -2.12644         5.94935
     2021.94113         6.76011         6.09134
     2021.94387         1.95765         5.89010
     2021.94661         0.32219         5.97489
     2021.94935        -1.99627         5.92892
     2021.95208        -2.67972         5.92177
     2021.95482        -0.22518         5.87580
     2021.95756         4.12436         5.83903
     2021.96030         1.02691         5.83188
     2021.96303        -9.62855         5.89113
     2021.96577         0.76599         5.90441
     2021.96851        -2.11046         5.99226
     2021.97125         1.89808         5.84107
     2021.97399         3.10762         5.92790
     2021.97672         4.35916         5.92484
     2021.97946         0.40371         5.87172
     2021.98220         5.47325         5.88602
     2021.99863         5.35351         5.88091
     2022.00136         7.84105         5.82064
     2022.00410        -1.52540         5.83086
     2022.00684        -5.33886         5.91768
     2022.00958        -4.83532         6.00860
     2022.01232       -19.08578         5.88397
     2022.01505         2.49777         6.33753
     2022.01779         0.18431         5.87785
     2022.01937         1.32674        16.74992
     2022.02345       -10.48290         6.77883
     2022.02600       -15.72506         6.14548
     2022.02874       -13.55652         6.09849
     2022.03148       -14.35697         6.08521
     2022.03422       -13.91643         5.92688
     2022.03696        -4.81889         5.89521
     2022.03969        -8.43034         6.26602
     2022.04243        -1.53280         5.83698
     2022.04517         4.14774         5.89623
     2022.04791        -7.00572         5.83698
     2022.05065       -10.98217         5.83290
     2022.05338        -7.59263         5.88602
     2022.05612       -16.05309         5.86967
     2022.05886        -9.63354         5.82677
     2022.06160        -7.80500         5.85333
     2022.06433        -3.83746         5.81247
     2022.06707        -5.17991         5.86252
     2022.06981         0.72463         5.90236
     2022.07255       -11.40383         5.72972
     2022.07529        -2.40029         5.72155
     2022.07802        -0.67574         5.75118
     2022.08076        -0.01720         5.95037
     2022.08350        -1.80166         5.79408
     2022.08624        -0.76011         5.77569
     2022.08898         1.11043         5.77876
     2022.09171       -11.51403         5.75526
     2022.09445        -6.82248         5.77059
     2022.09719        -4.65794         5.82575
     2022.09993        -5.14240         5.96467
     2022.10266        -1.36085         5.99941
     2022.10540        -4.33131         5.73994
     2022.10814         1.15723         5.74198
     2022.11088         4.09577         5.76752
     2022.11362         6.93332         5.88500
     2022.11635         2.90986         5.76956
     2022.11909         2.21440         5.76139
     2022.12183        -0.61605         5.80532
     2022.12457         1.12549         5.87478
     2022.12731         1.28903         5.77467
     2022.13004        -7.74442         5.84311
     2022.13278        -3.73688         5.74505
     2022.13552        -1.11634         5.82064
     2022.13826         3.08421         5.77876
     2022.14099        -0.33125         5.75424
     2022.14373        -8.87871         5.75833
     2022.14647         0.97583         5.78999
     2022.14921         2.82638         5.97693
     2022.15195         0.59392         5.94731
     2022.15468         1.65346         5.72360
     2022.15742        -2.64999         5.82881
     2022.16016        -5.58545         5.78489
     2022.16290        -3.26791         5.81349
     2022.16564        -5.51136         5.75220
     2022.16837         0.75018         5.73177
     2022.17111        -4.29028         5.72360
     2022.17385        -2.74474         5.88295
     2022.17659        -3.21619         5.79102
     2022.17932        -5.96065         5.73892
     2022.18206        -4.56311         5.75935
     2022.18480        -2.16856         5.74096
     2022.18754         0.54898         5.89113
     2022.19028        -4.77348         5.88091
     2022.19301         8.35907         5.98715
     2022.19575         1.13861         5.78999
     2022.19849        -2.96385         5.79510
     2022.20123        -3.08330         5.96161
     2022.20397         2.37724         5.86661
     2022.20670         0.31178         5.96570
     2022.20944        -4.39468         5.88806
     2022.21218         2.99787         5.86457
     2022.21492       -10.84259         5.80838
     2022.21765        -8.78405         5.74811
     2022.22039        -7.40850         5.80123
     2022.22313         1.35904         6.10667
     2022.22587        -4.28042         5.82881
     2022.22861         3.61213         6.00554
     2022.23134         1.95667         5.79919
     2022.23408         2.98021         5.81860
     2022.23682         6.87676         5.91768
     2022.23956         0.41530         5.76548
     2022.24230        -2.44317         6.65114
     2022.24451         8.94524         9.81684
     2022.25325        -1.53799         6.68689
     2022.25598        -6.86644         5.85741
     2022.25872         5.39310         5.91462
     2022.26146        -3.54736         5.93914
     2022.26420         4.48819         6.03107
     2022.26694        -3.82027         6.23436
     2022.26967         2.11027         5.88908
     2022.27241        -0.25419         5.89419
     2022.27515        -2.86364         5.90032
     2022.27789        -1.60810         5.89521
     2022.28062        -3.02256         5.77978
     2022.28336        -6.36701         5.78897
     2022.28610        -4.92047         5.86967
     2022.28884        -4.80193         5.95548
     2022.29158       -11.00638         5.82473
     2022.29431        -6.63684         5.81042
     2022.29705       -11.82530         5.75118
     2022.29979         0.25725         5.78284
     2022.30253        -6.91921         5.94220
     2022.30527        -3.23267         5.85639
     2022.30800        -6.53513         5.82881
     2022.31074        -2.36558         5.83392
     2022.31348        -7.10404         5.91156
     2022.31622       -10.64750         5.77671
     2022.31895       -22.22495         5.93096
     2022.32169        -5.03341         5.94833
     2022.32443        -2.82287         5.75731
     2022.32717       -10.97332         5.83494
     2022.32991        -5.86378         5.82064
     2022.33264       -10.20324         5.91360
     2022.33538        -5.86669         5.89215
     2022.33812        -5.74315         6.07398
     2022.34086        -5.84561         5.81860
     2022.34360        -6.26107         5.81247
     2022.34633        -4.83952         5.78387
     2022.34907        -6.45898         5.86865
     2022.35181         4.01056         5.77569
     2022.35455        -4.58289         5.80736
     2022.35728        -4.73035         5.77569
     2022.36002        -6.94481         5.81655
     2022.36276        -4.65326         5.91360
     2022.36550        -4.33572         5.82983
     2022.36824        -4.93918         5.85333
     2022.37097       -11.03464         5.78387
     2022.37371       -12.64609         5.76548
     2022.37645        -9.66155         6.01882
     2022.37919        -0.65701         5.97898
     2022.38193        -7.02546         5.95344
     2022.38466        -6.72592         5.83392
     2022.38740       -18.14238         5.77876
     2022.39014        -0.12583         5.85741
     2022.39288        -1.11329         5.80634
     2022.39561        -6.29875         5.82268
     2022.39835        -3.95620         5.85639
     2022.40109         0.47034         5.98408
     2022.40383        -3.41612         5.69499
     2022.40657         2.87042         5.79204
     2022.40930        -4.03903         5.87682
     2022.41204         3.15051         5.85026
     2022.41478         1.07605         5.73075
     2022.41752         3.17460         6.04231
     2022.42026        -0.98786         5.98102
     2022.42299        -1.38632         5.70521
     2022.42573        -6.83077         5.80940
     2022.42847        -5.46223         5.72768
     2022.43121        -1.16469         5.95446
     2022.43394        10.82986         5.90951
     2022.43668        -3.49560         5.78897
     2022.43942        -2.66406         5.75322
     2022.44216        -1.82052         5.85231
     2022.44490         9.23103         5.87274
     2022.44763         6.10157         5.68376
     2022.45037        -2.42389         5.75322
     2022.45311        -5.64834         5.69908
     2022.45585        -3.78080         5.75526
     2022.45859       -12.60926         5.81451
     2022.46132        -5.24771         5.69499
     2022.46406        -5.12717         5.70827
     2022.46680        -2.59163         5.70623
     2022.46954        -4.62209         5.74096
     2022.47227       -13.42954         5.73381
     2022.47501         6.50000         5.77263
     2022.47775        -5.21246         5.87172
     2022.48049        -1.26291         5.73075
     2022.48323        11.43063         5.72870
     2022.48596        13.61517         5.83188
     2022.48870         0.39872         5.79306
     2022.49144        -6.76974         5.75322
     2022.49418         3.58080         5.86763
     2022.49692         2.30335         5.71032
     2022.49965        -3.87511         5.67354
     2022.50239       -17.39557         5.72360
     2022.50513        -2.75203         6.02392
     2022.50787        14.40352         6.08828
     2022.51060        -3.76894         5.93812
     2022.51334        -4.43740         5.81145
     2022.51608        -5.88285         5.85639
     2022.51882       -12.52631         5.80940
     2022.52156       -11.91777         5.75118
     2022.52429        -3.08622         5.79817
     2022.52703         5.68832         5.78693
     2022.52977        13.10286         5.78897
     2022.53251        -0.87459         5.82575
     2022.53525        -8.33705         6.34264
     2022.53798        -4.27551         5.89010
     2022.54072        -3.60197         5.74505
     2022.54347         0.77456         5.78387
     2022.54620         5.59912         5.78387
     2022.54893         1.25666         5.74096
     2022.55167         5.79221         5.77467
     2022.55441         0.18075         5.78897
     2022.55715        12.98029         5.77059
     2022.55989         0.16884         5.71644
     2022.56262        -0.08362         5.75731
     2022.56536       -16.98108         5.82473
     2022.56810        -3.62654         5.78795
     2022.57084         1.80901         5.75424
     2022.57357        10.96655         5.96978
     2022.57631        -4.58591         5.78182
     2022.57905        -3.92236         5.88908
     2022.58179         5.32118         5.76854
     2022.58453         9.63172         5.93505
     2022.58726         0.38027         5.68989
     2022.59000        -2.37719         5.89521
     2022.59274        -7.33565         5.69091
     2022.59548         1.42190         5.86457
     2022.59822        -7.20156         5.75016
     2022.60095        -2.81402         5.81349
     2022.60369         4.38352         5.74505
     2022.60643        11.58407         6.03925
     2022.60917         0.64061         5.89317
     2022.61190         8.07215         5.87989
     2022.61464         3.00970         5.78387
     2022.61738         8.45424         5.72053
     2022.62012         0.03678         5.67456
     2022.62286        -3.26367         5.78080
     2022.62559         3.27587         5.74505
     2022.62833         4.58341         5.78591
     2022.63107         6.33996         5.80838
     2022.63381        11.17750         5.71542
     2022.63655         6.38104         5.71338
     2022.63928         5.42558         5.78897
     2022.64202        14.79213         6.01882
     2022.64476         8.54967         6.10054
     2022.64750         8.37721         5.79306
     2022.65023         5.01476         5.85537
     2022.65297        19.02230         5.90134
     2022.65571        18.28384         5.96365
     2022.65845        14.15539         5.80532
     2022.66119        12.09093         5.62553
     2022.66392        12.83747         5.67048
     2022.66666        13.29401         5.64596
     2022.66940        13.67356         5.62655
     2022.67214         7.16510         5.68069
     2022.67488         8.31064         5.78489
     2022.67761         8.56219         5.72666
     2022.68035        11.60273         5.68376
     2022.68309        11.64227         6.09134
     2022.68583        15.42682         5.87785
     2022.68856        10.65136         5.77263
     2022.69130        15.13090         5.69908
     2022.69404         9.03745         5.87785
     2022.69678         9.49999         5.86354
     2022.69952         5.85653         5.73994
     2022.70225        14.04407         5.89215
     2022.70499        14.93362         5.84516
     2022.70773        16.85416         5.76752
     2022.71047         8.96670         5.70112
     2022.71321        22.02325         5.70623
     2022.71868         9.94333         5.60510
     2022.72142        18.57088         5.81655
     2022.72416         6.97242         5.76139
     2022.72689        11.85696         5.76139
     2022.72963        13.78551         5.71644
     2022.73238         2.89404         5.77059
     2022.73511        10.25659         5.71032
     2022.73785        11.25213         5.65107
     2022.74058        27.97268         6.57963
     2022.74332        16.12122         5.99123
     2022.74606        14.38676         5.69806
     2022.74880         7.12131         5.66026
