# ================= DQRFIT RESULTS ================
# INPUT FILE: series/GLWD.rad
# OUTPUT: LDETRENDED
# FILTER FUNCTION: f(t)
# f(t)=+line(t)+annual(t)
# line(t)=+P 1+P 2*t
# annual(t)=+P 3*sin(2*pi*t+P 4)
# heav(t)=(t<0?0:1)
# TOTAL OBSERVATIONS MTOT= 2787
# INITIAL TIME INTERVAL= 2022.7488 - 2011.8247 = 10.9241
# TOTAL OBSERVATIONS AFTER PREFILTER M= 2745
# TIME-SPAN= 2022.7488 - 2011.8247 = 10.9241
# OBSERVATIONS: USED M=  2745 REJECTED MTOT-M=    42 %USED=   98.4930
# N=  4 PARAMETERS
# MAXSIG= 175.00000
# MAXRES=  38.54525
# SCALE FACTOR FOR LENGTHS: SCL=  10.00000
# SCALE FACTOR FOR SIGMAS: SCLSIG=   1.00000
# CHI^2=   3205.794 DOF=  2741 CHI^2/DOF=   1.16957
# RMS=      7.450 SDEV=      7.448 MEAN=   -0.20087
#  P #       PARAMETER +-    SIGMA %error PARAMETER NAME
# P 1 =      3511.26595 +-   92.931   2.65 YZERO                              
# P 2 =        -1.74271 +-    0.046   2.64 SLOPE                              
# P 3 =         5.23054 +-    0.194   3.70 ANNUAL AMPLITUDE                   
# P 4 =         3.12700 +-    0.052   1.67 ANNUAL PHASE                       
#       T            LDETRENDED       SIG_OBS
     2011.82472         3.14431         7.69680
     2011.82745         3.16308         6.87597
     2011.83028        -1.95800         7.33559
     2011.83293         2.69962         7.02197
     2011.83567        -2.38261         7.17013
     2011.83841         6.21016         7.29233
     2011.84114        14.55694         6.94194
     2011.84388        10.16871         7.13660
     2011.84662         4.27848         7.11930
     2011.84936        -1.28875         7.05874
     2011.85209        -0.07198         7.28693
     2011.85483         0.22579         7.30207
     2011.85757         0.79256         7.34965
     2011.86031        10.99634         7.15499
     2011.86305         5.49311         7.74763
     2011.86579         3.00189         7.46212
     2011.86820       -15.89391         8.46356
     2011.87425       -10.14337         8.25592
     2011.87673       -12.69404         7.35398
     2011.87947        -7.47327         7.22528
     2011.88221        -0.79149         7.17013
     2011.88495         2.61528         7.04792
     2011.88769        -6.33395         7.13552
     2011.89042        -2.51218         7.04684
     2011.89316        -9.61241         7.18743
     2011.89590        -8.40464         7.09442
     2011.89864       -18.87487         7.16039
     2011.90138        -5.94810         7.07496
     2011.90411        -5.89732         7.15499
     2011.90685        -8.28355         7.04684
     2011.90959        -5.10778         6.93869
     2011.91233         1.54899         7.16472
     2011.91506         0.27376         6.93545
     2011.91780         1.96753         7.29450
     2011.92054       -10.11270         6.88895
     2011.92328        -7.20493         6.97330
     2011.92602       -12.16215         7.01223
     2011.92875         0.12962         7.03603
     2011.93149         3.87639         7.16039
     2011.93423        -1.15884         6.96357
     2011.93697        -3.23407         6.92247
     2011.93971        -5.34230         6.94410
     2011.94244         0.45747         6.99060
     2011.94518         7.02724         7.05765
     2011.94792         4.68602         6.99277
     2011.95066         1.26679         6.84028
     2011.95339        -4.05544         7.09442
     2011.95613         0.09133         7.13660
     2011.95887         0.89510         6.88354
     2011.96161         2.16887         6.93761
     2011.96444         2.23580         7.28693
     2011.96708        -9.08558         6.89976
     2011.96982         8.62319         6.84461
     2011.97256        -4.49404         6.82189
     2011.97530         4.26973         6.83595
     2011.97804         7.24750         6.88786
     2011.98077         2.35427         6.90517
     2011.98351        -1.26396         6.88678
     2011.98625         9.25881         6.85109
     2011.98899        -8.53841         7.07604
     2011.99172         0.61636         7.28368
     2011.99446        -2.35787         6.88895
     2011.99720         4.56290         6.88462
     2012.00268         3.80244         6.76782
     2012.00541         6.63221         6.95383
     2012.00815        -4.59002         6.97114
     2012.01089        -2.23724         6.96140
     2012.01363         5.78653         6.82189
     2012.01618         6.38397         7.53674
     2012.03376        -6.66438        12.47580
     2012.03553        -3.78830         6.84136
     2012.03827        -4.11353         6.74835
     2012.04101        -1.40076         6.77431
     2012.04374        -4.94999         6.71807
     2012.04579       -14.93842         9.96356
     2012.06582       -15.60352         7.43292
     2012.06838       -10.42305         6.75160
     2012.07112        -2.96428         6.61966
     2012.07386         4.88849         6.72024
     2012.07660        -7.26773         6.67698
     2012.07934         7.78104         6.79053
     2012.08207         9.22581         6.70293
     2012.08481        -6.83142         6.78404
     2012.08755        -0.72265         6.72024
     2012.09029        -5.06988         6.63264
     2012.09303         0.08689         6.65535
     2012.09576        -1.75633         6.67157
     2012.09850        -3.03256         6.69969
     2012.10124        -3.76079         6.91598
     2012.10332        -5.80516         9.57315
     2012.25730        -6.20283         6.90625
     2012.26003        -8.22806         6.89543
     2012.26277        -6.68829         6.90517
     2012.26551        -8.48252         6.83595
     2012.26825        -7.82274         6.83704
     2012.27099        -8.36097         6.91057
     2012.27372       -10.89420         6.96573
     2012.27646        -7.70443         6.98087
     2012.27920        -7.13866         7.21771
     2012.28194         0.00511         6.92139
     2012.28467        -2.85812         6.86840
     2012.28741        -4.83935         6.88029
     2012.29015       -11.96257         6.88895
     2012.29289        -7.77180         6.89219
     2012.29563        -1.79203         7.07604
     2012.29817        -3.20960         7.73465
     2012.33122        -0.82300         7.22744
     2012.33396        -0.22823         7.23718
     2012.33669        -8.44646         6.91166
     2012.33943        -5.81869         7.03819
     2012.34217       -17.93692         7.00683
     2012.34491       -17.57815         6.91706
     2012.34765       -15.02638         7.15499
     2012.35038       -11.93661         6.91706
     2012.35312       -11.73383         6.98411
     2012.35586        -7.62906         6.88138
     2012.35860        -8.17129         6.85866
     2012.36133        -6.11752         6.79161
     2012.36408       -11.37374         7.99204
     2012.36681        -6.04698         6.90949
     2012.36955        -7.96321         6.96249
     2012.37229       -12.42544         7.05333
     2012.37502        -6.79166         6.96465
     2012.37776        -8.96289         6.95492
     2012.38050        -9.24612         6.95924
     2012.38324        -1.22235         6.87813
     2012.38598        -0.92958         7.02845
     2012.38871        -3.87681         7.06414
     2012.39145         3.35796         7.07171
     2012.39419       -10.58027         6.81108
     2012.39693        -7.37049         7.01331
     2012.39966        -5.34372         6.86083
     2012.40240       -12.22195         7.18094
     2012.40514        -7.11818         7.02737
     2012.40788       -12.75241         6.97330
     2012.41062        -1.31164         6.94518
     2012.41335       -13.76587         7.06306
     2012.41609         1.49690         7.15390
     2012.41883         2.22268         7.17229
     2012.42157        -2.78655         7.03062
     2012.42431        -4.77278         6.78404
     2012.42704        -8.50201         6.86732
     2012.42978        -1.95324         6.80675
     2012.43252        -2.80247         6.96681
     2012.43526        -5.19470         6.84461
     2012.43799       -11.36293         6.96681
     2012.44073       -18.21415         6.83595
     2012.44347        -9.37438         6.93869
     2012.44621       -16.19161         6.98844
     2012.44895         4.03516         7.10956
     2012.45168        -5.48207         7.09875
     2012.45442        -9.77030         6.91706
     2012.45716        -8.30853         7.13444
     2012.45990        -1.89275         7.27827
     2012.46263         4.48702         7.04576
     2012.46537        -4.34321         7.14309
     2012.46811        -4.17744         6.98736
     2012.47085        -3.89767         6.84785
     2012.47359         0.07610         7.21879
     2012.47632        -8.56613         7.87741
     2012.47906         1.79364         6.96465
     2012.48180         0.63842         6.97330
     2012.48454         3.61419         6.94410
     2012.48728       -12.61404         6.81216
     2012.49001        -2.23927         6.95275
     2012.49275         6.88950         6.79918
     2012.49549       -10.24173         7.07388
     2012.49827       -19.32787         6.98195
     2012.50096        -4.93519         6.87813
     2012.50370        15.00559         7.07171
     2012.50644        -2.68964         6.82189
     2012.50918        -7.03187         7.17986
     2012.51192        -0.84310         7.16364
     2012.51465        -6.36633         6.84569
     2012.51739        -4.85356         7.01007
     2012.52013        -0.50779         6.96897
     2012.52287         4.23098         6.81973
     2012.52561        -1.75324         7.06739
     2012.52834         4.02753         6.84677
     2012.53108         1.14130         6.85542
     2012.53382         4.49907         6.83163
     2012.53656        -0.27216         7.06198
     2012.53929         5.32461         6.89111
     2012.54203        10.46738         6.88246
     2012.54477        12.06515         7.54107
     2012.54751         2.00093         6.86083
     2012.55025         9.95070         6.87921
     2012.55298        -3.37453         6.86083
     2012.55572         1.54124         7.09875
     2012.55846         4.20701         6.82946
     2012.56120         2.83678         7.27719
     2012.56394        -1.53545         6.96681
     2012.56667        -0.00767         6.93004
     2012.56941         6.79710         6.88138
     2012.57215        -8.03313         6.99709
     2012.57489         1.71364         6.93545
     2012.57762         3.72241         6.83163
     2012.58036         2.85418         7.71627
     2012.58276         0.59436         7.72925
     2012.61682        10.21672        12.88784
     2012.61869         7.65098         7.13011
     2012.62143        10.89275         7.06090
     2012.62417         6.22452         7.36479
     2012.62691         5.89829         7.14525
     2012.62964         8.01006         7.03819
     2012.63238         9.44784         7.19933
     2012.63512        -0.57139         7.73573
     2012.63786         4.39838         7.07604
     2012.64060        13.59515         7.08577
     2012.64333         8.30392         7.02197
     2012.64607         6.43569         6.92788
     2012.64881         8.30646         6.90733
     2012.65155        12.19923         6.94518
     2012.65428         7.85801         7.08902
     2012.65702        -0.78022         7.05008
     2012.65976        19.19455         7.08577
     2012.66250         4.77432         6.86083
     2012.66412       -10.82086        22.02732
     2012.67719         7.93192        16.85683
     2012.67893        12.60995         6.77864
     2012.68166        15.62272         6.84352
     2012.68440         5.09049         6.88138
     2012.68645        13.31207        10.12253
     2012.69033        17.66283         8.87776
     2012.69261        18.88680         7.69896
     2012.69535         6.50558         6.86083
     2012.69809         2.41935         6.93220
     2012.70083         2.66212         6.96249
     2012.70357         3.18889         6.83487
     2012.70630         6.69166         6.94194
     2012.70904         4.52243         6.74511
     2012.71178         7.45320         6.77107
     2012.71452        12.48097         6.84136
     2012.71726        15.09375         6.75917
     2012.71999        12.22652         6.78729
     2012.72273        12.88029         6.79161
     2012.72547         4.89106         6.76241
     2012.72821         4.04383         6.86191
     2012.73094         6.01360         6.92680
     2012.73368        16.06137         6.99060
     2012.73642         3.09314         6.91923
     2012.73916         9.98492         7.09334
     2012.74190        13.93969         7.16580
     2012.74441         4.22707         7.50214
     2012.75285        12.67277         7.05008
     2012.75559         8.44654         6.78188
     2012.75832         6.77131         6.77972
     2012.76106         9.98009         6.81000
     2012.76380        10.23686         6.83055
     2012.76654         9.77163         6.93112
     2012.76927        14.24240         7.03170
     2012.77201        14.43917         6.91815
     2012.77475        11.08994         6.88246
     2012.77749         9.78871         6.91274
     2012.78023        16.57148         7.16796
     2012.78296        14.00926         7.10956
     2012.78570        12.21303         7.08902
     2012.78844        16.40380         7.08577
     2012.79118         2.49357         7.52809
     2012.79391        13.32834         7.11389
     2012.79665         7.77811         6.98520
     2012.79939         2.23188         7.36695
     2012.80213        -2.11434         7.76385
     2012.80487        13.46443         8.01692
     2012.80760         7.49420         8.14128
     2012.81034         9.19497         7.97798
     2012.81308         7.52674         7.07496
     2012.81582         2.28351         7.03603
     2012.81856        -3.33772         7.20149
     2012.82129         1.13705         7.25448
     2012.82403        -5.32617         7.50863
     2012.82677        -9.33540         7.23069
     2012.82951         7.01537         7.34100
     2012.83209        11.85887         7.52052
     2012.83772         6.28068         7.09010
     2012.84023        14.06906         7.79521
     2012.84320        -1.61678         7.23177
     2012.84593        -8.46000         7.35398
     2012.84867        -4.73123         7.31613
     2012.85141       -13.64346         7.42860
     2012.85415         3.26531         6.98303
     2012.85689         1.35208         7.18959
     2012.85962         2.61385         7.17013
     2012.86237        -8.11237         7.04792
     2012.86510        -9.67061         8.33487
     2012.86784         1.44017         7.22204
     2012.87057         4.66294         6.99168
     2012.87297         0.40211         8.24835
     2012.87605        10.24548         7.23393
     2012.87879         7.80525         6.90192
     2012.88153         6.92202         6.81649
     2012.88426         9.03079         7.08577
     2012.88700         4.94156         7.11497
     2012.88974        -0.70466         7.10091
     2012.89248        -4.91889         6.87380
     2012.89522         1.26288         6.81973
     2012.89795        -4.16735         6.89111
     2012.90069        -1.48858         7.00034
     2012.90343        -2.00481         7.01007
     2012.90617         1.50596         6.76350
     2012.90890         1.60373         6.94518
     2012.91164        -0.11649         9.41525
     2012.91438        -1.23472         9.66940
     2012.91712         4.56905         9.19571
     2012.91986        -1.85518         9.66723
     2012.92259        -8.81841        10.14524
     2012.92533         5.86636         9.44986
     2012.92810       -10.52681        10.29773
     2012.93081       -12.15709         9.15678
     2012.93355        -6.66732         8.78476
     2012.93628         7.23145         7.64057
     2012.93902         0.72722         7.75087
     2012.94176         4.37399         8.39110
     2012.94453        13.39382        10.31395
     2012.94727         1.74959        10.67732
     2012.94997         6.77530        11.10883
     2012.95271         8.23408         7.94338
     2012.95533        10.79965         8.06558
     2012.96366         7.78116         6.96681
     2012.96640         8.89293         6.84028
     2012.96914         7.65470         8.31865
     2012.97188        -0.29053         7.40156
     2012.97461         1.98525         6.93329
     2012.97735         3.85302         6.95492
     2012.98009       -10.29621         7.59839
     2012.98283        -2.42844         6.78621
     2012.98556         4.22133         6.86407
     2012.98830        -0.76690         6.73754
     2012.99104         5.97787         6.62615
     2012.99378         4.12664         6.74511
     2012.99652         2.93642         6.66833
     2012.99925        -3.35581         6.79269
     2013.00199         2.65796         6.71050
     2013.00473        -2.15127         6.63805
     2013.00747        -3.46550         6.55477
     2013.01021        -3.88273         6.69104
     2013.01294        -2.94296         6.76998
     2013.01568        -5.39119         6.76566
     2013.01842        -3.54141         6.87489
     2013.02116        -3.83564         6.73105
     2013.02389       -15.02887         6.84461
     2013.02663         2.15290         6.95816
     2013.02937        -1.48333         6.65751
     2013.03211        -6.08756         6.62290
     2013.03485       -10.57079         6.50178
     2013.03758       -13.49701         6.49529
     2013.04032       -14.39724         6.66724
     2013.04306        -8.01947         6.68671
     2013.04580       -12.62870         6.74511
     2013.04854        -7.29893         6.78404
     2013.05127        -6.49516         6.67914
     2013.05401        -9.86939         6.61858
     2013.05675        -1.68762         6.59803
     2013.05949        -2.06084         6.63372
     2013.06222       -10.04107         6.81000
     2013.06468        -7.60280         7.78981
     2013.07044         3.72024         6.87272
     2013.07318         4.33101         7.65895
     2013.07591         0.49078         6.79053
     2013.07865         5.81355         6.88895
     2013.08413       -13.51990         6.74078
     2013.08686        -9.54613         6.84569
     2013.08960       -11.01236         6.78729
     2013.09234        -3.95859         6.80784
     2013.09508        -0.58382         6.97763
     2013.09782         0.44095         7.22204
     2013.10055        -0.98628         7.37669
     2013.10329        -6.18950         7.10740
     2013.10594       -10.78888         7.35938
     2013.11714       -17.38637         7.50106
     2013.11972       -10.39788         7.35073
     2013.12246        -9.87111         7.20041
     2013.12519       -14.20333         6.86515
     2013.12793        -7.63256         6.85866
     2013.13067         0.08821         6.99385
     2013.13341        -8.29202         6.95059
     2013.13615         2.94275         6.94843
     2013.13888        -3.97348         6.80027
     2013.14162         0.81629         6.96032
     2013.14436       -11.20594         7.04468
     2013.14710        -7.61216         7.09659
     2013.14984       -13.16038         6.94302
     2013.15257       -10.87362         7.01115
     2013.15531        -9.11485         6.90409
     2013.15805        -7.74408         6.85109
     2013.16079       -14.37131         7.01115
     2013.16352        -6.95754         6.98303
     2013.16626       -13.23176         7.04251
     2013.16900        -6.83699         7.13011
     2013.17174        -6.84522         6.76782
     2013.17448        -8.29445         6.98195
     2013.17721       -15.59868         7.54323
     2013.17995        -5.23491         7.16364
     2013.18269        -6.95614         6.92463
     2013.18543        -9.32137         6.81108
     2013.18817        -9.01959         7.03927
     2013.19090        -9.48782         7.04684
     2013.19364        -9.34505         7.06631
     2013.19638        -1.98928         7.00358
     2013.19912        -5.09851         7.04792
     2013.20185        -5.83474         7.09010
     2013.20459        -2.96497         7.03819
     2013.20733        -0.12420         6.96573
     2013.20902        -6.52725        14.63549
     2015.95893        -4.29196         7.10416
     2015.96167       -13.05319         7.22744
     2015.96440         6.56558         6.76998
     2015.96714        -0.00165         6.85001
     2015.96988         3.69412         6.98628
     2015.97262        17.19490         8.79341
     2015.97535         5.70967         6.91382
     2015.97809         1.18844         6.95167
     2015.98083        -2.25979         6.88678
     2015.98357       -12.13502         6.75160
     2015.98631       -16.14125         7.14309
     2015.98904       -11.88948         6.87705
     2015.99178        -3.13971         6.86732
     2015.99441        -2.77813         7.13011
     2016.00000        -5.04739         6.72240
     2016.00273        -3.93162         6.74295
     2016.00547        -7.13885         6.70834
     2016.00821       -20.05908         6.75052
     2016.01095         7.01069         6.93653
     2016.01368       -19.82554         6.94734
     2016.01642        -1.21976         7.02088
     2016.01916         0.02401         7.14309
     2016.02190        -3.24522         7.19067
     2016.02464        -4.70345         6.94734
     2016.02737       -13.25468         7.14850
     2016.03011       -11.15791         6.81973
     2016.03285        -5.83914         7.00574
     2016.03559         4.20663         6.87813
     2016.03833        -8.51059         7.16364
     2016.04106        -8.76582         7.03711
     2016.04380        -0.86705         7.17445
     2016.04654         2.18072         6.85001
     2016.04928        -3.45351         6.85218
     2016.05201        -8.44874         7.03062
     2016.05475        -4.41497         7.19716
     2016.05749       -11.91719         7.36587
     2016.06023       -11.64242         7.19067
     2016.06297        -3.21265         7.08902
     2016.06570        -0.97288         7.01007
     2016.06844        -8.91211         7.16905
     2016.07118        -8.17834         7.29882
     2016.07392        -6.15357         7.26854
     2016.07666        -1.26180         7.24259
     2016.07939        10.80298         7.17878
     2016.08213        -5.24625         6.96681
     2016.08487       -10.19748         6.72889
     2016.08761        -9.04971         6.93437
     2016.09034       -14.35794         7.29233
     2016.09308       -18.65617         7.45131
     2016.09582        -2.10040         7.02521
     2016.09856       -10.19163         7.07063
     2016.10130       -16.87885         6.92680
     2016.10403       -16.61008         6.98736
     2016.10677       -14.22431         6.90733
     2016.10951        -7.16354         7.02197
     2016.11225        -8.74877         7.19716
     2016.11498       -12.15200         7.08037
     2016.11772       -19.72923         7.11822
     2016.12046         7.08954         7.35289
     2016.12320       -24.85668         7.28476
     2016.12594       -10.52691         6.98952
     2016.12867         3.47986         6.91166
     2016.13141         5.56563         6.97546
     2016.13415        -0.93460         6.94086
     2016.13689        -8.52783         6.97546
     2016.13958        -5.88013         7.11389
     2016.14239       -11.51924         7.02088
     2016.14510       -10.49751         7.01331
     2016.14784       -13.75474         7.07712
     2016.15058       -10.07297         6.86732
     2016.15331        -4.70520         7.21230
     2016.15605        -4.40343         6.95492
     2016.15879       -16.53766         7.17986
     2016.16153       -12.41389         7.39940
     2016.16425        -7.73115         7.17121
     2016.16715       -10.34810         7.60920
     2016.16974       -18.05457         7.20906
     2016.17248       -12.93780         7.16364
     2016.17522        -7.09303         7.07712
     2016.17796         4.45674         7.13336
     2016.18069        -4.67549         7.00683
     2016.18343       -12.29972         7.25016
     2016.18617        -8.99794         6.93329
     2016.18891        -6.90217         6.95492
     2016.19164        -5.34140         6.63588
     2016.19438        -2.73563         6.76025
     2016.19712       -22.90986         6.80784
     2016.19986       -13.02909         7.09442
     2016.20260       -20.22332         7.03062
     2016.20533       -12.29955         7.13336
     2016.20807        -6.46077         6.89868
     2016.21081       -10.41700         6.85001
     2016.21355        -9.61423         6.79378
     2016.21629       -12.28846         6.96465
     2016.21902        -9.78969         6.73970
     2016.22176         0.47508         6.74727
     2016.22450        -3.86315         6.90625
     2016.22707       -25.13667         7.34100
     2016.22997        -2.39360         6.67157
     2016.23271        -4.59183         6.66292
     2016.23545        -7.89206         6.78296
     2016.23819        -8.37529         6.56775
     2016.24093        -6.24752         6.75484
     2016.24366        -8.04475         6.66508
     2016.24640        -9.86298         6.69753
     2016.24914       -10.26421         6.61858
     2016.25188        -8.54943         6.77323
     2016.25462       -20.23366         6.90733
     2016.25735       -11.04289         6.76350
     2016.26009       -13.55912         6.74727
     2016.26283        -7.78335         6.75593
     2016.26557       -11.00358         6.73430
     2016.26830        -3.46981         6.82406
     2016.27104        -4.37404         6.77323
     2016.27378        -3.51526         6.74944
     2016.27652        -9.90349         6.70401
     2016.27926         6.09528         6.88246
     2016.28199        -7.17395         7.07928
     2016.28473        -1.54318         6.79810
     2016.28747        -8.11041         7.02629
     2016.29021       -11.81564         6.79918
     2016.29295        -8.20086         6.63156
     2016.29568        -5.56609         6.95600
     2016.29842        -5.04132         6.93437
     2016.30116        -4.86255         6.94410
     2016.30390       -11.60078         6.86083
     2016.30663        -2.44901         6.84461
     2016.30937        -9.15324         6.86191
     2016.31211        -3.79347         6.82298
     2016.31485        -3.26569         6.76674
     2016.31759        -2.05592         6.75160
     2016.32032        -3.51715         6.81757
     2016.32306       -13.08138         6.83595
     2016.32580       -11.81061         6.79161
     2016.32854        -7.50384         6.68779
     2016.33128        -1.78707         6.82730
     2016.33401        -6.82130         6.84461
     2016.33675        -7.26752         6.86732
     2016.33949        -4.30275         6.92139
     2016.34223        -4.92598         6.95708
     2016.34496        -0.07221         7.07820
     2016.34770        -1.27144         6.94843
     2016.35044        -9.07567         7.27178
     2016.35318         0.86210         6.76458
     2016.35592        -8.96113         6.78188
     2016.35865       -10.46735         6.77107
     2016.36139         2.19342         6.81757
     2016.36413         6.56419         6.78188
     2016.36687         7.67596         6.89868
     2016.36961         7.05873         6.69212
     2016.37230         8.81942         6.76133
     2016.37508        -7.28173         6.76782
     2016.37782       -13.65796         7.07279
     2016.38056        -2.37018         7.17337
     2016.38329        -2.66641         6.73862
     2016.38603        -0.15964         6.59046
     2016.38877        11.01013         6.74078
     2016.39151        -0.31910         6.75809
     2016.39425        -7.32133         6.90949
     2016.39698         4.22444         6.69753
     2016.39972         4.75421         6.64670
     2016.40246        -4.41801         6.87921
     2016.40520         0.50276         6.75160
     2016.40794         2.21053         6.86732
     2016.41067        -7.08170         6.84136
     2016.41341        -7.37593         6.79810
     2016.41615        -3.60116         6.88786
     2016.41889        -5.27439         6.94734
     2016.42162         6.05339         6.87272
     2016.42436        -0.84584         6.86299
     2016.42710        -7.23407         6.86407
     2016.42984        -0.19430         6.82838
     2016.43258         2.77147         6.90625
     2016.43531         8.84024         7.06414
     2016.43805        14.12101         6.74078
     2016.44079         3.79278         6.81216
     2016.44354        -0.57542         6.91057
     2016.44626        -5.07467         6.78404
     2016.44900        16.43610         6.86840
     2016.45174        11.22287         7.00899
     2016.45448        -4.91636         7.01980
     2016.45722        -1.09359         6.84785
     2016.45995         3.12118         6.75917
     2016.46269         0.79495         7.01223
     2016.46543         0.93373         6.76458
     2016.46817         1.54050         6.89435
     2016.47091        -1.58173         6.77539
     2016.47364        -1.86696         6.77972
     2016.47638        14.06281         7.09118
     2016.47912         7.87158         6.99385
     2016.48186         1.17835         7.02197
     2016.48459        -6.56088         6.68671
     2016.48733         0.04190         6.77647
     2016.49007         6.20367         6.82622
     2016.49281         2.77144         6.74835
     2016.49555         0.67221         6.80784
     2016.49828         0.80898         6.81649
     2016.50102        -6.37225         6.93437
     2016.50376        15.08252         6.81865
     2016.50650        -3.79571         6.87921
     2016.50924         1.06607         6.58938
     2016.51197        -5.44916         6.68130
     2016.51471        12.96261         6.71375
     2016.51745         4.30438         6.93653
     2016.52019         4.52615         6.91598
     2016.52292        -2.07708         6.72456
     2016.52566        -2.00431         6.77755
     2016.52840        -2.92953         6.71483
     2016.53114        -1.76876         6.73321
     2016.53388         0.12001         6.86191
     2016.53661         8.44778         6.94626
     2016.53935         3.05355         6.70185
     2016.54209         7.02932         6.63913
     2016.54483        -3.21191         6.66400
     2016.54757         0.61486         6.79810
     2016.55030         1.67064         7.01331
     2016.55304         5.24441         6.80675
     2016.55578         3.63918         6.99926
     2016.55852        -0.56505         6.66292
     2016.56125         2.17472         6.73754
     2016.56399         6.98149         6.68996
     2016.56673         5.24526         7.03927
     2016.56947         3.97903         7.13119
     2016.57221        11.89781         6.80027
     2016.57494         4.80858         7.14093
     2016.57768        14.75135         6.88895
     2016.58042        19.47612         6.69212
     2016.58316         5.58489         6.81649
     2016.58590        18.02866         6.82730
     2016.58863         3.92543         6.78945
     2016.59047         0.80963        11.56629
     2016.59497       -13.10052        12.90731
     2016.59685        11.04275         6.77323
     2016.59958        -0.89348         6.88678
     2016.60232        -5.65471         6.73430
     2016.60506        -0.64394         7.06955
     2016.60780         3.70083         6.67373
     2016.61054         3.25660         6.78080
     2016.61327         3.94237         6.73430
     2016.61601         6.94115         6.79594
     2016.61875         0.39592         6.84028
     2016.62149         5.27369         6.81973
     2016.62423        13.14346         6.85758
     2016.62696        12.27723         6.65859
     2016.62970         0.20400         6.61101
     2016.63244         3.57777         6.81000
     2016.63518         6.35154         6.60560
     2016.63791         1.77732         6.81649
     2016.64065        18.35509         6.89760
     2016.64339        10.31786         6.74511
     2016.64613         7.76263         6.66400
     2016.64887         4.60640         6.72456
     2016.65183         3.60457         7.46212
     2016.65434        13.18194         6.81324
     2016.65708         9.58872         6.97979
     2016.65982         1.89649         6.87597
     2016.66529         8.74703         6.65102
     2016.66803        -0.91220         7.06847
     2016.67077        14.79457         6.86191
     2016.67351         6.38234         6.74835
     2016.67624        10.76311         6.66833
     2016.67898         5.54489         6.71699
     2016.68172        19.34566         6.69428
     2016.68446         2.94943         6.89760
     2016.68720         4.05820         7.31288
     2016.68993         4.00197         6.72456
     2016.69267        11.07974         6.79918
     2016.69541         6.81551         6.88895
     2016.69815        15.24728         6.70293
     2016.70089         8.47106         6.71375
     2016.70362        13.11883         7.56811
     2016.70609         7.60712         7.84713
     2016.71814        23.84713        11.43543
     2016.72005        16.25345         6.65859
     2016.72279        15.10623         8.48952
     2016.72553        13.82800         6.84893
     2016.72826        16.55577         6.99709
     2016.73100         9.12154         6.90841
     2016.73374         1.26531         6.77539
     2016.73588         9.72604         8.73285
     2016.74022        16.13660        15.28221
     2016.74195         1.85562         6.83379
     2016.74441         3.47192         7.53891
     2016.74824         0.09058        11.40083
     2016.75017        19.96194         6.83595
     2016.75290        12.75271         6.72024
     2016.75513         6.85959         8.32405
     2016.76489         1.93059        14.88639
     2016.76659         1.76357         6.92572
     2016.76933         9.16334         6.79810
     2016.77207         1.90911         6.78296
     2016.77481        -4.83412         8.11533
     2016.77754         7.93665         6.66400
     2016.78028        10.91242         6.68022
     2016.78302         5.88719         6.79269
     2016.78576        17.06097         6.92788
     2016.78850        12.89074         6.78945
     2016.79123         8.63051         6.83595
     2016.79397        11.21628         8.97401
     2016.79671        16.85805         6.71699
     2016.79945         2.80882         6.82081
     2016.80219        -2.65241         6.90192
     2016.80492        -1.59164         7.02845
     2016.80766        12.61214         6.72456
     2016.81040         1.10591         6.69644
     2016.81314         8.10668         6.67698
     2016.81587        -2.54555         6.77539
     2016.81861         3.34322         6.82298
     2016.82135         4.55799         6.93761
     2016.82409         4.56876        10.16904
     2016.82683         0.99553         6.68671
     2016.82956         6.17431         6.65751
     2016.83230        11.25808         6.71050
     2016.83504         8.83085         6.65319
     2016.83778         1.73762         6.72240
     2016.84052        -0.12661         6.79702
     2016.84325         2.61516         6.66292
     2016.84599        -0.27407         6.73213
     2016.84873         9.29670         8.52412
     2016.85147         2.29748         6.83487
     2016.85416         2.65417         6.90949
     2016.86884         4.31774        11.95994
     2016.86982         0.12746        10.62001
     2016.88433         0.57674         6.72564
     2016.88706         7.06250         6.70401
     2016.88980         6.73327         6.76241
     2016.89253         0.12405         6.75160
     2016.89527         4.09182         6.72132
     2016.89773         1.29210         7.54431
     2016.90983        -6.61482        11.36297
     2016.91170         2.60244         6.80027
     2016.91444         5.08022         8.10451
     2016.91718         4.79499         7.11605
     2016.91991        -1.78924         6.79810
     2016.92265         5.04353         6.76998
     2016.92539       -15.92970         6.69428
     2016.92813         1.95807         6.72781
     2016.93086        -2.79316         6.77323
     2016.93360        -1.40339         6.80243
     2016.93606         2.68289         7.68382
     2016.94001        -1.36622        12.23464
     2016.94065        -6.94510        17.57060
     2016.94581        40.36189        42.90288
     2016.94729         5.70247         6.95924
     2016.95003         0.21624         8.02773
     2016.95333        19.18099        22.74974
     2016.95957        -3.39612       126.39539
     2016.96098         3.24733         6.71050
     2016.96372         0.15710         6.64886
     2016.96646        -6.30013         6.83920
     2016.96919        -9.43236         7.04900
     2016.97193        -2.72659         6.64021
     2016.97438         0.78069         7.49024
     2016.99220        15.73274        15.98517
     2016.99384        -0.35442         6.84028
     2016.99657        -0.44565         6.83055
     2016.99931        -1.22488         6.70185
     2017.00425        -4.84827         8.86154
     2017.01226        -3.55531        10.96175
     2017.01560        -4.58249         6.84569
     2017.03029       -10.49188        11.04070
     2017.03216       -10.26662         6.85109
     2017.03437         0.72322         9.07783
     2017.05238        16.05060        14.13153
     2017.05407        10.37355         6.92355
     2017.05681         2.35732         6.79702
     2017.05954       -13.53091         6.90841
     2017.06228         5.26386         6.89868
     2017.06502        -4.59936         6.87272
     2017.06776        -6.50359         6.82946
     2017.07049        -3.83982         6.94843
     2017.07323        -6.23505         6.75593
     2017.07597       -13.94828         6.81541
     2017.07871        -3.97651         6.87272
     2017.08145        -8.56774         6.84893
     2017.08418       -14.37797         6.84785
     2017.08692        -3.43219         6.79161
     2017.08962        -7.34449         6.88354
     2017.09357       -24.70261        18.64233
     2017.09787        -6.40311         6.99168
     2017.10061       -11.53234         6.90733
     2017.10335       -12.59257         6.94410
     2017.10609       -16.55680         8.16832
     2017.10882       -11.65502         9.03998
     2017.11156         0.94675         7.08577
     2017.11430       -13.94748         6.81541
     2017.11652       -14.80461         8.78584
     2017.12066        -6.39640        11.55331
     2017.12251       -15.36117         6.81865
     2017.12525        -3.73340         7.07712
     2017.12799        -5.88962         7.01115
     2017.13073         7.16615         7.00250
     2017.13347        -9.69908         6.92680
     2017.13620       -10.97931         6.94951
     2017.13894       -24.06254         7.22744
     2017.14168        -0.43877         7.01223
     2017.14442       -15.98000         6.96681
     2017.14715       -10.77723         6.81757
     2017.14989        -9.69945         6.64670
     2017.15263        -5.41868         6.72348
     2017.15537        -2.24791         6.78188
     2017.15811        -1.03214         6.93004
     2017.16084       -13.14137         6.90084
     2017.16358       -13.94760         6.78621
     2017.16632        -8.80983         6.78296
     2017.16906        -5.44806         6.88786
     2017.17180        -6.78428         6.84893
     2017.17453        -5.68551         6.86515
     2017.17727        -0.85874         6.93977
     2017.18001       -11.63497         6.80351
     2017.18275       -24.88320         6.90625
     2017.18548       -15.73043         6.82514
     2017.18822       -26.02766         7.07820
     2017.19096       -20.05089         7.02629
     2017.19370       -11.29411         7.07712
     2017.19644        -8.86434         7.03603
     2017.19917        -5.48057         6.94302
     2017.20191       -10.95280         7.04576
     2017.20465       -10.57403         6.93220
     2017.20734       -42.44635        50.11843
     2017.21013        -5.70949         6.92031
     2017.21286        -6.15272         6.83595
     2017.21560        -8.58694         6.82946
     2017.21834         0.43983         6.78512
     2017.22080        -3.61688         7.76818
     2017.22769        -1.76788        17.22453
     2017.22929         2.48791         6.74078
     2017.23203        -4.44532         6.81649
     2017.23477        -1.70955         6.74295
     2017.23750        -6.82777         6.86840
     2017.24024        -8.64300         6.90733
     2017.24298       -12.07623         8.42247
     2017.24572        -9.54046         6.77215
     2017.24846        -6.51569         6.93653
     2017.25119        -3.56592         6.88786
     2017.25393       -11.67715         6.81649
     2017.25667        -7.42437         6.79594
     2017.25941       -11.54060         6.83487
     2017.26214        -2.81383         6.80351
     2017.26488        -0.05006         7.05008
     2017.26762         0.18271         6.82189
     2017.27036        -3.24452         6.88462
     2017.27310        -8.40575         7.20473
     2017.27583        -4.21698         6.84677
     2017.27857        -7.57020         6.88570
     2017.28131       -13.99343         6.86623
     2017.28405        -9.71966         6.72781
     2017.28679        -6.67789         6.72564
     2017.28944        -4.64226         7.05441
     2017.29321         0.29230        11.89181
     2017.29500        -6.71858         6.84136
     2017.29774        -7.94781         6.74944
     2017.30047        -2.14103         6.68563
     2017.30321        -9.20626         6.75917
     2017.30595       -10.49249         6.82406
     2017.30869        -6.94972         6.88029
     2017.31143        -6.04695         7.01115
     2017.31416       -12.59018         6.78404
     2017.31690        -1.26641         6.98195
     2017.31964        -3.21364         7.02737
     2017.32238       -11.69386         7.02521
     2017.32512        -9.56109         6.84893
     2017.32785        -9.60532         6.75917
     2017.33059        -9.14655         6.66184
     2017.33333        -4.79278         6.73862
     2017.33607       -11.09401         6.77431
     2017.33880       -10.72024         7.84821
     2017.34154        -1.83047        10.66867
     2017.34428        -7.31269         6.71158
     2017.34702        -5.87492         6.76458
     2017.34976        -6.66315         6.76998
     2017.35249       -11.53138         6.76025
     2017.35523       -14.53661         7.04035
     2017.35797       -15.81284         6.91057
     2017.36071        -9.18307         6.63588
     2017.36344        -2.01229         6.74835
     2017.36618       -13.92152         6.83379
     2017.36892       -11.41675         6.85975
     2017.37166        -1.29298         6.80351
     2017.37440        -7.64821         6.70510
     2017.37713       -10.99044         6.83055
     2017.37987       -12.15867         6.93869
     2017.38261       -12.08090         6.87489
     2017.38535        -9.87212         6.84136
     2017.38809        -9.47335         6.82406
     2017.39082        -7.52858         6.83920
     2017.39356        -2.06081         6.80675
     2017.39630        -3.90904         6.71158
     2017.39904        -1.82427         6.86623
     2017.40177        -4.50350         6.73970
     2017.40451        -9.42473         6.84461
     2017.40725        -7.33095         6.89976
     2017.40999        -2.50018         6.94302
     2017.41273        -5.50141         7.40156
     2017.41546         0.05036         7.13336
     2017.41820        -1.67187         7.06306
     2017.42094       -11.46410         6.82081
     2017.42368       -10.09533         6.85326
     2017.42642        -2.05756         6.80243
     2017.42915        -0.04678         6.96249
     2017.43189        -7.93401         6.96032
     2017.43463        -3.34424         7.10199
     2017.43737        -2.18747        10.40263
     2017.44010         0.18030         6.73970
     2017.44284         2.51707         6.93977
     2017.44558        -1.61216         6.85326
     2017.44832         0.14861         6.84028
     2017.45106         6.47839         6.79594
     2017.45379         2.03816         7.00466
     2017.45653        -3.53007         7.12254
     2017.45927        -5.59130         6.90192
     2017.46201        -9.89553         7.02737
     2017.46475        -5.24376         6.72997
     2017.46748         7.40901         7.18959
     2017.47022        -8.04222         6.85758
     2017.47296        -2.50244         6.90949
     2017.47570        -5.04467         6.85218
     2017.47843        -5.37890         6.71158
     2017.48117        -7.52813         6.94194
     2017.48391         0.62364         7.00683
     2017.48665         7.21641         6.94843
     2017.48939        -0.10582         6.97546
     2017.49212        -2.52604         6.81649
     2017.49486        -6.35927         6.72997
     2017.49760         2.79750         7.04576
     2017.50034         2.89327         7.17013
     2017.50308         7.87704         6.93977
     2017.50581        -0.59419         6.84461
     2017.50855         7.79558         6.95816
     2017.51129        -4.68165         6.93545
     2017.51403        -1.65587         6.96032
     2017.51676        -0.67110         7.13228
     2017.51950        -4.92333         7.08794
     2017.52224         7.82544         6.76025
     2017.52498        11.05521         6.69428
     2017.52772         3.61998         7.10956
     2017.53045        -2.98925         6.88354
     2017.53319         3.77952         6.95816
     2017.53593         8.74630         6.95167
     2017.53867        19.10307         6.88895
     2017.54141         3.59084         6.83271
     2017.54414         1.41661         6.96140
     2017.54688         3.32338         6.87380
     2017.54962        17.30015         6.93329
     2017.55236        -3.26108         6.93653
     2017.55509         5.04469         6.81108
     2017.55783         5.80347         6.90625
     2017.56057         2.23824         7.11930
     2017.56331         8.64301         7.04576
     2017.56605         2.50078         7.16256
     2017.56878         4.15955         7.06198
     2017.57152         4.41432         6.81649
     2017.57426        -0.49791         6.96897
     2017.57700        -2.12414         6.89003
     2017.57974         2.39864         6.91382
     2017.58247        -1.61959         6.81649
     2017.58521        -0.22482         6.72132
     2017.58795        -3.20805         6.95275
     2017.59069         0.14672         7.07712
     2017.59342         6.28249         6.99601
     2017.59616         6.78526         6.78837
     2017.59890         6.08104         6.81324
     2017.60164         4.47381         6.81108
     2017.60438         1.44158         6.93220
     2017.60711         0.03035         6.74511
     2017.60985         2.23112         7.02088
     2017.61259         8.56889         6.92896
     2017.61533         3.13566         7.19825
     2017.61807         2.52443         7.17986
     2017.62080        -1.38179         6.83487
     2017.62354         9.48798         6.93653
     2017.62628         3.76375         7.48267
     2017.62902        17.48052         7.17553
     2017.63175         0.80929         7.23069
     2017.63449        -2.81294         6.99385
     2017.63723        -0.27617         6.76782
     2017.63997         7.01960         7.09551
     2017.64271         7.60738         6.96140
     2017.64544         9.42615         7.00466
     2017.64818         5.58992         7.04251
     2017.65092         2.45269         6.88029
     2017.65366         8.32046         6.77972
     2017.65639        17.93523         6.98952
     2017.65913        12.57500         7.27936
     2017.66188        -0.23120         7.10632
     2017.66461         0.01555         7.24691
     2017.66735         8.83132         7.14201
     2017.67008        11.96609         6.75484
     2017.67282         6.87886         7.17986
     2017.67556         8.49563         6.98195
     2017.67830         1.53140         6.80675
     2017.68104        10.43817         6.82622
     2017.68377         9.95294         7.05441
     2017.68651        15.11072         7.11497
     2017.68925         5.33149         6.97114
     2017.69199        15.47126         8.91345
     2017.69472         9.51203         6.78080
     2017.69746         9.65080         7.05117
     2017.70020        17.12857         7.19067
     2017.70294        15.99334         7.05657
     2017.70568         2.72011         7.07279
     2017.70841        11.77189         6.75160
     2017.71115         9.92066         7.03494
     2017.71389         4.93143         7.11930
     2017.71663        12.06520         6.68671
     2017.71937        10.25497         7.10308
     2017.72210         6.15974         6.90084
     2017.72484         4.84051         6.93437
     2017.72758         2.17029         6.85326
     2017.73032         5.42406         6.84136
     2017.73305         9.71383         6.75593
     2017.73579        -0.93440         6.82838
     2017.73853         5.00937         7.17662
     2017.74127         5.23414         6.96032
     2017.74401         8.71291         6.97222
     2017.74674        10.90068         6.89435
     2017.75222         5.53723         6.88678
     2017.75496         2.81800         6.98303
     2017.75770         0.82277         7.05982
     2017.76317         7.76931         6.75917
     2017.76591        14.72808         6.97654
     2017.76865         0.04385         6.86191
     2017.77138         6.19863         6.83704
     2017.77332         7.01801        10.43724
     2017.77686        17.84617         6.78945
     2017.77960        14.23594         7.05549
     2017.78234        -1.38929         6.94843
     2017.78507         2.72748         6.97979
     2017.78781         1.99525         6.81000
     2017.79055         6.07202         6.71591
     2017.79329         8.41980         6.92788
     2017.79603        10.17057         6.95059
     2017.79876        15.75834         6.99277
     2017.80150        11.56311         6.93220
     2017.80424         6.35888         6.85758
     2017.80698        -8.55835         7.29017
     2017.80971        -3.86158         6.78512
     2017.81245         3.86119         6.81108
     2017.81519         2.10297         7.66436
     2017.81793         5.27074         7.08685
     2017.90554         5.86142         7.07928
     2017.90828         7.32719         6.89543
     2017.91102        17.73796         7.07604
     2017.91375         6.28873         6.92572
     2017.91649         6.37650         6.78512
     2017.91923        10.92027         6.77647
     2017.92197        17.71605         6.91382
     2017.92470         5.68082         6.76458
     2017.92744        -3.27141         6.73862
     2017.93018        -0.81064         6.80892
     2017.93292        -0.47987         6.64562
     2017.93566         0.88990         6.70185
     2017.93839         3.66467         6.72240
     2017.94113         5.16144         6.67590
     2017.94387         9.96522         6.66184
     2017.94661         3.42999         6.65967
     2017.94935         5.02676         6.75917
     2017.95208         7.04953         6.76674
     2017.95482         6.19430         6.73430
     2017.95756         3.88007         6.93545
     2017.96030        16.00484         6.72889
     2017.96303        18.44062         6.91598
     2017.96577        12.16439         6.94410
     2017.96851        12.12816         6.81216
     2017.97125        -0.17007         6.59911
     2017.97399        -0.21730         6.78621
     2017.97672         0.58547         6.73538
     2017.97946         6.73424         6.55153
     2017.98220        -8.61799         6.64237
     2017.98494         2.33779         6.68671
     2017.98767         2.63356         6.69212
     2017.99041         4.81133         6.75593
     2017.99315         0.97510         6.79810
     2017.99589         5.30687         7.04576
     2017.99863         1.37264         6.62399
     2018.00136        -3.91859         6.81757
     2018.00410        -4.19782         6.70726
     2018.00684        -0.80804         6.73970
     2018.00958         2.45173         6.77864
     2018.01232         2.77850         6.86299
     2018.01505         3.52927         6.91274
     2018.01779         3.06504         6.86732
     2018.02053         1.19681         6.93653
     2018.02327        11.66258         6.85109
     2018.02600         5.29835         6.83271
     2018.02874         6.29313         7.00358
     2018.03148        -2.40910         6.94518
     2018.03422         1.53567         6.90517
     2018.03696        -3.81556         6.76350
     2018.03969        -2.18279         6.83055
     2018.04243       -10.51402         6.97114
     2018.04517        -5.85625         6.86299
     2018.04791        -3.52148         6.82730
     2018.05065         7.56430         6.88029
     2018.05338        10.00507         6.79161
     2018.05612         7.10284         6.87380
     2018.05886        -0.74339         6.87921
     2018.06160         3.63838         6.77431
     2018.06433        22.31815         7.05982
     2018.06707         4.35192         6.94302
     2018.06981        -0.72730         6.96465
     2018.07255       -18.24853         7.30207
     2018.07529        -2.58876         6.98195
     2018.07802       -14.27799         7.03603
     2018.08076       -25.67922         7.39291
     2018.08350        -1.81945         7.02737
     2018.08624        -4.05268         6.97871
     2018.08898        -3.05591         7.48483
     2018.09171        -8.49613         7.47943
     2018.09445        -8.27136         7.38534
     2018.09719        10.05741         7.29990
     2018.09993        -5.99982         7.04576
     2018.10266        -8.90305         7.05657
     2018.10540        -0.03328         7.27611
     2018.10814         4.35349         6.84785
     2018.11088        -6.41274         6.95924
     2018.11362         5.35604         6.98195
     2018.11635         0.63081         6.89652
     2018.11909        -4.14942         7.05008
     2018.12183        11.30535         7.03711
     2018.12457        -0.05388         6.84028
     2018.12731        -2.66411         7.02088
     2018.13004        -5.51734         7.17013
     2018.13278         4.12743         7.14201
     2018.13552        11.39021         6.79810
     2018.13826        -2.53002         6.67482
     2018.14099        -0.87225         6.79486
     2018.14373        -4.84148         6.67157
     2018.14647         0.49929         7.06847
     2018.14921        -0.43594         7.08469
     2018.15195         5.36783         7.09659
     2018.15468         6.59960         6.94194
     2018.15742         5.17538         6.88462
     2018.16016         3.15115         6.89111
     2018.16564         9.05969         7.33775
     2018.16837        -0.65454         6.80135
     2018.17111         0.02623         6.95275
     2018.17385        -5.44000         6.97871
     2018.17659        -1.91923         6.79269
     2018.17932        -4.10145         7.15715
     2018.18206         5.46032         6.96789
     2018.18480         2.57609         7.26313
     2018.18754         0.17586         6.97871
     2018.19028        -5.32037         8.72960
     2018.19301         1.98040         6.80135
     2018.19575         5.67217         6.92572
     2018.19849         7.64395         7.02521
     2018.20123        16.04172         6.98303
     2018.20397         3.37349         6.99060
     2018.20670         6.70126         6.96357
     2018.20944        -2.43097         6.78296
     2018.21218         1.68080         6.87380
     2018.21492       -19.49043         6.82730
     2018.21765         4.81034         6.82730
     2018.22039         7.53512         6.80351
     2018.22313         3.57589         6.68671
     2018.22587        -2.10934         6.75593
     2018.22861         2.35443         6.79702
     2018.23134         5.85820         6.73105
     2018.23408        -8.22003         7.03819
     2018.23682        -9.81126         6.86948
     2018.23956        -1.30849         6.74835
     2018.24230         0.55829         6.93220
     2018.24503        -4.64594         6.86515
     2018.24777        -0.08817         6.86948
     2018.25051       -11.78840         6.95059
     2018.25325         1.42437         6.72997
     2018.25598         7.83014         6.78621
     2018.25872         7.06791         6.79810
     2018.26146         7.35368         6.92788
     2018.26420        -4.17554         6.93437
     2018.26694        -4.33977         6.84136
     2018.26967        -0.46800         6.65427
     2018.27241        -6.95123         6.90300
     2018.27515        14.42654         6.72024
     2018.27789         6.49531         7.11497
     2018.28062        -9.17592         7.09334
     2018.28336        -0.74215         6.65535
     2018.28610         3.17063         6.72781
     2018.28884         7.47440         6.79053
     2018.29158         5.29217         7.06414
     2018.29431         4.46694         6.78188
     2018.29705        -2.26929         6.72240
     2018.29979        -2.22752         6.68671
     2018.30253        -8.62475         6.74619
     2018.30527        -2.62498         6.67590
     2018.30800        -1.83420         6.69644
     2018.31074        -4.92243         6.68239
     2018.31348        -0.17266         6.75701
     2018.31622        -2.81889         6.85326
     2018.31895         0.81888         6.80135
     2018.32169        -5.06035         6.70293
     2018.32443        -8.40958         6.76890
     2018.32717        -0.84580         6.72348
     2018.32991         3.22997         6.95383
     2018.33264         0.25774         6.61858
     2018.33538        -7.57949         6.89976
     2018.33812        -3.07572         7.07820
     2018.34086        -6.70495         6.84244
     2018.34360        -2.38418         6.88570
     2018.34633        -4.18341         6.65210
     2018.34907         0.83437         6.72889
     2018.35181        -2.22886         7.01872
     2018.35455         5.40191         6.67265
     2018.35728         2.29968         6.70185
     2018.36002         4.62145         6.56559
     2018.36276        -0.45978         6.74511
     2018.36550         2.25099         6.70185
     2018.36824        -7.04824         6.72889
     2018.37097        -1.33546         6.93977
     2018.37371        -0.15669         6.84244
     2018.37645        -2.67492         7.07604
     2018.37919        -1.97015         6.77431
     2018.38193         0.74862         6.83271
     2018.38466         0.15739         6.86840
     2018.38740         2.20016         6.78512
     2018.39014         8.01293         6.75376
     2018.39288         2.74871         6.80027
     2018.39561         4.78148         6.70293
     2018.39835        12.24225         7.08253
     2018.40109         7.26302         6.82946
     2018.40383        -5.13321         6.74944
     2018.40657         7.28856         6.72348
     2018.40930        11.48733         6.96681
     2018.41204         9.56710         6.77215
     2018.41478         1.60688         6.88029
     2018.42299         4.91719         6.75809
     2018.42573         6.01896         6.85434
     2018.42847         2.67273         6.67698
     2018.43121        -6.66550         6.81541
     2018.43394        -3.31072         6.82081
     2018.43668         5.85305         6.76458
     2018.43942         7.81582         6.84785
     2018.44216         3.90459         6.72132
     2018.44490         3.91836         6.68887
     2018.44763         8.43613         6.69320
     2018.45037         7.30990         6.80351
     2018.45311         3.83767         6.69212
     2018.45585         6.16245         6.72024
     2018.45859        11.28822         7.03386
     2018.46132         0.10699         6.70618
     2018.46406        -3.12524         6.67806
     2018.46678         6.81951         6.68887
     2018.47227         9.37507         6.84244
     2018.47501         8.88984         6.86840
     2018.47775         6.12162         6.63372
     2018.48049        10.44439         7.25340
     2018.48323        13.73116         6.75484
     2018.48596         0.03293         6.72781
     2018.48870        -3.95630         7.16364
     2018.49144         8.01747         6.72348
     2018.49418         1.14524         6.99817
     2018.49692         7.90101         6.99277
     2018.49965         6.63779         6.77107
     2018.50239         7.03056         6.74619
     2018.50513        -0.71967         6.81649
     2018.50787         9.76610         6.77972
     2018.51060         1.46387         6.90300
     2018.51334         4.97564         6.94518
     2018.51608         0.81541         6.90192
     2018.51882        19.77918        10.18634
     2018.52156        17.07396         6.92355
     2018.52429         3.82573         6.67373
     2018.52703         2.06150         6.74619
     2018.52977         4.50627         6.78729
     2018.53251        -0.53096         6.82946
     2018.53525         0.81881         6.64670
     2018.53798        -0.75142         6.78945
     2018.54072         8.70835         6.89327
     2018.54346        11.91113         6.95600
     2018.54620         3.23290         6.79269
     2018.54893         2.97467         6.71699
     2018.55167         4.98244         6.76998
     2018.55441         3.38021         6.76133
     2018.55715        -2.04902         6.92572
     2018.55989        -0.04125         6.88246
     2018.56262        -1.46347         6.94843
     2018.56536         1.87630         6.89543
     2018.56810         4.74207         6.89760
     2018.57084         2.96584         6.78729
     2018.57357         4.54161         6.94086
     2018.57631         6.72738         7.08685
     2018.57905         4.00315         7.10199
     2018.58179         6.92192         7.13876
     2018.58453        16.39070         7.14093
     2018.58726        14.61147         6.74295
     2018.59000        10.83224         6.67482
     2018.59274        10.15901         6.65102
     2018.59548         1.10478         6.82406
     2018.59822        -0.76345         6.63480
     2018.60095         1.38732         6.68779
     2018.60369         4.35209         6.63047
     2018.60643         5.21987         6.69969
     2018.60917         4.95064         7.01331
     2018.61190         3.06741         6.72997
     2018.61464         6.09518         6.69644
     2018.61738         6.22795         6.59479
     2018.62012         9.52672         6.50719
     2018.62286         4.92049         6.86623
     2018.62559         9.53926         6.79269
     2018.62833         0.30004         6.60452
     2018.63107         2.90881         6.80243
     2018.63381         6.23458         6.82946
     2018.63655         2.67935         6.81108
     2018.63928         7.87912         7.40372
     2018.64202         5.29689         6.92896
     2018.64476        10.47366         6.71807
     2018.64750        15.41543         6.70185
     2018.65023        10.93821         6.72456
     2018.65297         9.80098         6.70510
     2018.65571         4.70475         6.77107
     2018.65845         1.63852         6.67914
     2018.66119        17.44229         6.90192
     2018.66392        13.76406         6.64778
     2018.66666        12.88283         6.63372
     2018.66940         7.77461         6.60776
     2018.67214        -2.99962         6.74944
     2018.67488         4.45515         6.69428
     2018.67761         9.80092         6.77539
     2018.68035         2.78769         6.84677
     2018.68309         2.75146         6.80675
     2018.68583         3.85723         6.94086
     2018.68856         2.37400         6.88246
     2018.69130        14.58778         6.86515
     2018.69404         8.91455         6.95924
     2018.69678        12.26632         6.73646
     2018.69952         6.94209         6.72997
     2018.70225        -2.60614         6.84461
     2018.70499        10.17663         6.61750
     2018.70773         3.26740         6.65751
     2018.71047         9.17017         6.76350
     2018.71321        10.36095         6.62831
     2018.71594         4.80972         6.68996
     2018.71868         3.07949         6.65967
     2018.72142         2.33126         6.59587
     2018.72416         6.44603         6.85758
     2018.72689        10.44880         6.73862
     2018.72963         5.20057         6.57856
     2018.73237        -1.86866         6.65859
     2018.73511         3.72012         6.60885
     2018.73785         4.50489         6.65751
     2018.74058         2.66966         6.63805
     2018.74332        10.05343         6.56559
     2018.74606        10.55120         6.66724
     2018.74880         2.96897         6.93329
     2018.75154        15.13774         6.63372
     2018.75427        13.38851         6.69104
     2018.75701         7.89229         6.97222
     2018.75975         4.98106         6.68671
     2018.76249         4.07083         6.72889
     2018.76522         8.98160         6.82730
     2018.76796         3.89337         6.59587
     2018.77070        14.78814         6.53855
     2018.77344         1.13891         6.54504
     2018.77618         4.18768         6.78729
     2018.77891         7.69446         6.64021
     2018.78165         5.07023         6.81649
     2018.78439         6.39100         6.55045
     2018.78713         3.30077         6.67806
     2018.78987         0.58154         6.87489
     2018.79260         6.40831         6.65967
     2018.79534        10.33408         6.78404
     2018.79808         7.93686         6.61425
     2018.80082         4.70363         6.57532
     2018.80355         5.26440         6.56126
     2018.80629         6.16717         6.85218
     2018.80903        10.63494         6.51800
     2018.81177         5.86271         7.19284
     2018.81451        18.71148         6.82081
     2018.81724         3.28125         6.63480
     2018.81998        11.86103         6.86083
     2018.82272        11.75480         6.68347
     2018.82546        25.89157         6.65535
     2018.82820         6.11634         6.71807
     2018.83093        16.97711         6.85866
     2018.83367        22.71188         6.70401
     2018.83641        -6.38635         7.06522
     2018.83915        13.61442         6.76998
     2018.84188        -4.50180         6.88246
     2018.84462        17.13897         6.76350
     2018.84736         9.25374         6.60019
     2018.85010         9.14551         6.59479
     2018.85284         0.53228         6.53531
     2018.85557         1.99605         6.60560
     2018.85831         6.74282         6.53422
     2018.86105         9.02659         6.61101
     2018.86379         4.60437         6.73862
     2018.86653         7.14814         6.72132
     2018.86926        -3.16309         6.68239
     2018.87200        10.79868         6.62507
     2018.87474        12.04745         6.56342
     2018.87748         9.31722         6.90841
     2018.88021         3.20099         7.09875
     2018.88295         6.45376         6.75484
     2018.88569        13.33054         6.80675
     2018.88843        15.35731         6.77972
     2018.89117        16.01408         6.91274
     2018.89390         3.38085         6.98520
     2018.89664         5.26662         7.05874
     2018.89938         2.20539         6.79918
     2018.90212         8.05616         6.80243
     2018.90485        17.26494         6.80892
     2018.90759        16.87071         6.83487
     2018.91033         7.76148         6.78729
     2018.91307        11.26025         7.01331
     2018.91581        20.50402         6.95059
     2018.91854        15.66779         6.81216
     2018.92128        18.72656         6.83271
     2018.92402         8.24333         6.72024
     2018.92676         9.64111         7.53134
     2018.92950        12.84988         6.83271
     2018.93223        12.54665         7.00034
     2018.93497        11.83242         6.87056
     2018.93771        13.08619         6.70077
     2018.94045        16.50596         6.92031
     2018.94318         4.69773         6.87380
     2018.94592        12.31350         6.73213
     2018.94866         7.71928         6.85650
     2018.95140        22.51905         6.86840
     2018.95414        14.00382         6.79053
     2018.95687         6.82459         6.79594
     2018.95961        15.07936         6.76241
     2018.96235         9.37013         6.89435
     2018.96509        -7.44410         6.74835
     2018.96783         3.16867         6.79269
     2018.97056         4.33445         6.87489
     2018.97330         1.86522         6.81649
     2018.97604         2.63199         6.76025
     2018.97878        19.32976         6.71267
     2018.98151        -2.13247         6.71916
     2018.98425        17.02030         6.90192
     2018.98699         6.14507         6.93869
     2018.98973         3.93884         6.86623
     2018.99247         2.28962         7.00574
     2018.99520        -5.91361         6.89760
     2018.99794        -4.58784         6.80135
     2019.00068        -6.67207         6.73862
     2019.00342        -1.14630         6.78729
     2019.00616         0.85347         6.91166
     2019.00889         5.23724         6.76782
     2019.01163         3.87701         6.77647
     2019.01437        10.58479         7.67517
     2019.01711        21.45256         6.83271
     2019.01984         2.60833         6.72889
     2019.02258         3.15610         6.74511
     2019.02532         6.50887         6.96465
     2019.02806         2.58464         6.86732
     2019.03080         4.29741         6.81541
     2019.03353        -4.05981         6.70077
     2019.03627        -3.88204         6.69753
     2019.03901         5.61673         6.51908
     2019.04175         1.02450         6.69861
     2019.04449        16.09327         6.82622
     2019.04722         6.23204         7.00034
     2019.04996        10.30281         7.13119
     2019.05270        -8.74742         7.12362
     2019.05544        -0.41064         6.84785
     2019.05817         4.25913         7.19392
     2019.06091        -0.29710         7.12687
     2019.06365         0.53367         6.90409
     2019.06639         1.23444         6.86083
     2019.06913        -4.46479         6.83812
     2019.07186         1.24598         7.02413
     2019.07460         2.53575         6.71699
     2019.07734         2.79453         6.54720
     2019.08008         6.36830         6.75593
     2019.08282         2.20007         6.86948
     2019.08555         8.54484         6.72997
     2019.08829         5.92661         6.60128
     2019.09103        13.99838         6.77215
     2019.09377         4.60515         6.59587
     2019.09650         4.10392         6.60128
     2019.09924         2.84870         6.54936
     2019.10198        -3.06653         6.52233
     2019.10472         0.15324         6.50286
     2019.10737         4.80186         6.90841
     2019.11410        24.94959        18.08862
     2019.11567        -8.98668         7.09226
     2019.11841        15.24809         6.93869
     2019.12115        19.06287         6.86732
     2019.12388        16.86864         6.90192
     2019.12662         9.79041         7.09334
     2019.12936         6.20518         6.84785
     2019.13210         5.01795         6.77864
     2019.13483         0.46672         6.81000
     2019.13757         7.83249         6.74511
     2019.14031         5.59127         6.76782
     2019.14305        -3.42596         6.83704
     2019.14579         6.28681         6.79378
     2019.14852        -3.37742         6.73213
     2019.15126         7.51835         6.65210
     2019.15400        -2.50088         6.50611
     2019.15674        -0.45911         6.55477
     2019.15948        -2.77934         6.57640
     2019.16221        -3.21156         7.08145
     2019.16495         3.95621         6.56234
     2019.16769        -7.37102         6.46285
     2019.17043        -6.34225         6.74835
     2019.17316        -6.30348         6.51800
     2019.17590         6.84829         6.53422
     2019.17864         7.56506         6.78296
     2019.18138         2.38283         6.70401
     2019.18412        -5.19039         6.68130
     2019.18685        -5.94762         6.74944
     2019.18959         0.94015         6.74727
     2019.19233         5.60892         6.77215
     2019.19507        -4.03331         6.77864
     2019.19780        -4.97654         6.74727
     2019.20054        -3.47477         6.86515
     2019.20328       -11.65700         6.66508
     2019.20602       -11.96522         7.13011
     2019.20876        -6.61645         6.70618
     2019.21149       -10.72068         6.77539
     2019.21423         1.91009         6.70293
     2019.21697        -0.39214         6.88354
     2019.21971        -0.35737         6.93653
     2019.22245         0.78440         6.64453
     2019.22518        -3.33283         6.67265
     2019.22792        -0.37705         6.77647
     2019.23066        -6.16028         6.65643
     2019.23340        -8.11951         6.78080
     2019.23613        -8.22774         6.61858
     2019.23887        -1.10197         6.71050
     2019.24161        -5.52520         6.87164
     2019.24435        -9.80543         6.96789
     2019.24709        -7.13166         6.72889
     2019.24982        -0.63988         6.69428
     2019.25256        -3.02711         6.93869
     2019.25530        -0.87234         6.66508
     2019.25804        -0.70757         6.90192
     2019.26078         6.28020         6.96140
     2019.26351         0.61097         7.03494
     2019.26625        -4.96126         6.71375
     2019.26899         6.38952         6.91382
     2019.27173        -2.39571         7.17229
     2019.27446        -4.34894         6.81432
     2019.27720         0.53683         6.74511
     2019.27994        -3.98140         6.70510
     2019.28268         2.25937         6.79486
     2019.28542         3.41414         6.63264
     2019.28815         0.24191         6.68996
     2019.29089         3.54869         6.81432
     2019.29363        -0.72054         6.66292
     2019.29637        -0.15277         6.90517
     2019.29911         0.87400         6.78945
     2019.30184        -2.94323         6.72889
     2019.30458         3.35954         6.69644
     2019.30732       -16.33569         6.92031
     2019.31006        -2.01192         6.77972
     2019.31279        -6.89114         6.86407
     2019.31553         6.35463         6.82622
     2019.31827         0.72840         6.81973
     2019.32101         2.33717         6.68563
     2019.32375       -15.91306         6.73862
     2019.32648        -8.38229         6.71158
     2019.32922        -6.06752         6.77215
     2019.33196        -7.67175         6.96789
     2019.33470        -1.18197         7.04792
     2019.33744        -2.38520         6.77539
     2019.34017        -7.01443         6.80027
     2019.34291        -7.07666         6.64453
     2019.34565        -7.03589         6.92788
     2019.34839        -6.31212         6.91382
     2019.36598       -10.81745        20.64845
     2019.36755        -0.49472         6.70942
     2019.37029         2.34505         6.77755
     2019.37303         1.39182         6.92680
     2019.37577         1.18860         6.91815
     2019.37850        -2.12463         6.84785
     2019.38124         4.58814         6.83271
     2019.38398         0.21991         6.71699
     2019.38672         4.18868         6.81541
     2019.38945        -0.02455         6.67806
     2019.39219        11.70922         7.07496
     2019.39493        -4.15001         6.76782
     2019.39767         1.95177         6.72997
     2019.40041        -0.64546         6.75376
     2019.40314         4.88031         6.75052
     2019.40588         9.82108         6.78404
     2019.40862         2.61485         6.73105
     2019.41136         2.06462         6.72024
     2019.41410         4.00039         6.74078
     2019.41683         8.87716         6.97871
     2019.41957         1.35494         6.87705
     2019.42231         5.22971         6.82189
     2019.42505         1.56948         6.82946
     2019.42778         4.51925         7.03278
     2019.43052         5.41502         7.08361
     2019.43326         1.31279         6.79702
     2019.43600        -2.13144         6.86191
     2019.43874        -2.14867         6.92031
     2019.44147       -11.80089         6.93220
     2019.44421        -3.89612         6.99493
     2019.44695        -9.86835         7.18743
     2019.44969        -2.82258         6.93329
     2019.45243        -0.53481         7.06739
     2019.45516        -4.67904         6.93004
     2019.45790        -3.16827         7.08253
     2019.46064        -1.12250         7.12362
     2019.46338         0.83828         7.26313
     2019.46611         3.95505         7.22312
     2019.46885         1.10882         7.07171
     2019.47159         6.22359         7.01115
     2019.47433        14.80136         8.21915
     2019.47707         1.30613         7.04684
     2019.47980         7.48990         6.90409
     2019.48254        -5.10133         7.04035
     2019.48528         5.04045        18.58826
     2019.48802        -2.39578         6.94734
     2019.49076        -4.83001         6.88354
     2019.49349        -2.65124         6.81649
     2019.49623         1.71753         6.73754
     2019.49897        -3.66870         6.77539
     2019.50171         4.86207         6.70510
     2019.50444         3.13985         7.10416
     2019.50718         3.92562         6.88786
     2019.50992       -11.20061         6.88029
     2019.51266         0.92716         6.79702
     2019.51540         3.72393         6.69969
     2019.51813         3.71670         6.73105
     2019.52087         2.25747         6.95383
     2019.52361        -6.40976         7.08577
     2019.52635        -8.35498         6.79053
     2019.52908         1.88179         7.10740
     2019.53182         0.89656         7.08361
     2019.53456        -5.01867         7.13228
     2019.53730        -0.84590         7.12795
     2019.54004         4.77987         7.12146
     2019.54277        -0.53636         6.93545
     2019.54551        14.35641         7.05874
     2019.54825         6.65619         6.77972
     2019.55099        -0.50004         7.07496
     2019.55373        -8.67927         7.14850
     2019.55646         6.62050         7.20365
     2019.55920         0.50027         7.13011
     2019.56194         3.83604         6.74078
     2019.56468        -9.64619         6.89003
     2019.56741         3.41158         6.97763
     2019.57015        -2.83564         6.79269
     2019.57289         0.53013         7.02845
     2019.57563         0.87390         6.76458
     2019.57837       -10.73933         7.17121
     2019.58096        -4.15382         7.13876
     2019.59837        -4.84647        12.53637
     2019.60027        -5.67516         7.03170
     2019.60301        -7.07039         6.81757
     2019.60574         5.64038         7.00791
     2019.60848         1.38215         6.99601
     2019.61122        -3.24207         6.75593
     2019.61396        -6.75630         7.07171
     2019.61670        -0.52853         6.91057
     2019.61943        13.26124         6.94626
     2019.62217        10.92901         6.89111
     2019.62491         7.45878         6.81432
     2019.62765         6.14855         6.79378
     2019.63039         4.47332         6.91166
     2019.63268        -4.75168         7.93689
     2019.63637         7.32875         9.88137
     2019.63860        -8.03936         7.04468
     2019.64134         2.42341         7.01872
     2019.64407        -4.88682         7.68058
     2019.64681         1.71295         6.78080
     2019.64955        -1.03428         6.85218
     2019.65229         6.46149         6.80675
     2019.65503         3.21127         6.86515
     2019.65776        -6.89196         7.04468
     2019.66050        -4.61919         7.07279
     2019.66324        -7.03342         6.94302
     2019.66598         7.33135         6.99709
     2019.66872        12.56612         6.81108
     2019.67145         1.96889         6.92355
     2019.67419         7.91066        35.12821
     2019.67695        -3.83353         6.92031
     2019.67967         0.29621         6.97546
     2019.68240         1.80498         6.91274
     2019.68514         8.05775         7.74222
     2019.68788         5.61652         6.84352
     2019.69062        12.14429         6.79269
     2019.69336         2.61706         6.59803
     2019.69609         8.23183         6.80243
     2019.69883        -0.64539         6.98195
     2019.70157        11.32738         6.78729
     2019.70431         0.28815         6.91057
     2019.70705         7.08892         6.82189
     2019.70978         4.14669         6.86407
     2019.71252        -5.60954         6.80351
     2019.71526         7.78123         6.80027
     2019.71800        -2.89600         7.13011
     2019.72073         6.00878         7.24367
     2019.72347        -0.88945         6.76241
     2019.72621        11.94232         6.79161
     2019.72895        -2.89691         6.94086
     2019.73169         6.06086         6.83704
     2019.73441         5.92862         6.98844
     2019.73720         6.76347         6.79702
     2019.73990         4.73518         7.06522
     2019.74264        10.86495         6.82622
     2019.74538         3.60972         6.68779
     2019.74811         9.65349         7.00791
     2019.75085         3.67926         6.90409
     2019.75359         3.58903         7.06739
     2019.75633        -2.00020         6.95708
     2019.75906         8.22657         6.76025
     2019.76180         6.00235         6.71807
     2019.76454        -1.20388         6.91274
     2019.76728       -10.64211         7.16256
     2019.77002        -1.60834         6.78621
     2019.77275         1.90843         7.06522
     2019.77549         7.28420         6.91382
     2019.77823         6.38797         6.89327
     2019.78097         5.37274         6.93004
     2019.78371         5.02052         6.76350
     2019.78644         3.10129         6.85109
     2019.78918         6.15406         6.92896
     2019.79192         9.50083         6.90949
     2019.79466        15.78960         7.47943
     2019.79739        12.35237         6.93004
     2019.80013        12.15914         6.86299
     2019.80287        10.13191         7.03170
     2019.80561         2.21769         7.16039
     2019.80835         7.99246         6.82189
     2019.81108         0.13623         6.97222
     2019.81382         5.79500         7.07063
     2019.81656         1.70077         7.03819
     2019.81930         5.94654         6.85218
     2019.82203         3.54131         6.78837
     2019.82477         5.93408         6.83271
     2019.82751        -0.96414         6.75809
     2019.83025        -3.59537         7.10632
     2019.83299         5.96140         7.18310
     2019.83572         6.99117         6.70618
     2019.83744        11.93317        12.42930
     2019.84227        21.89858        14.67443
     2019.84394         9.43048         7.08253
     2019.84668         4.21525         6.82406
     2019.84941         9.82203         6.83595
     2019.85215         6.97880         6.76998
     2019.85489        15.46157         7.73573
     2019.85763        19.15834         6.89976
     2019.86036        -0.05589         6.80675
     2019.86310         5.43888         7.04143
     2019.86584         7.91965         6.97763
     2019.86858        12.39743         6.87489
     2019.87132         5.51520         7.00466
     2019.87405        11.10397         6.90192
     2019.87679        18.70174         7.34965
     2019.87953        12.26551         6.86623
     2019.88227        20.76828         6.95924
     2019.88501        12.49405         6.92680
     2019.88774        10.27982         7.02305
     2019.89048        17.64160         6.82730
     2019.89322        12.11537         7.11173
     2019.89596         7.83714         6.93653
     2019.89869         9.22991         6.80459
     2019.90143         8.64868         6.68455
     2019.90417        11.99845         6.85975
     2019.90691         8.21522         6.87056
     2019.90965         8.73199         6.71050
     2019.91238         6.36377         6.68671
     2019.91512        14.68454         6.89111
     2019.91786        21.39831         6.74187
     2019.92060        10.64708         6.76241
     2019.92607        15.09462         7.03170
     2019.92881         8.18139         6.86948
     2019.93155        11.13216         6.83163
     2019.93429        10.89394         6.82189
     2019.93702         5.55971         6.65859
     2019.93976         4.77748         6.84677
     2019.94250        11.62025         6.92788
     2019.94524        -4.50598         6.94626
     2019.94798        -5.25221         6.94626
     2019.95071         9.25656         7.03278
     2019.95345         7.91733         6.76133
     2019.95619         8.87811         6.69644
     2019.95893         4.59688         6.76674
     2019.96167        11.42665         6.88246
     2019.96440        12.60542         7.08685
     2019.96714        -1.55881         7.08361
     2019.96988         0.63696         6.72132
     2019.97262         1.89373         6.88462
     2019.97535         5.87051         6.75268
     2019.97809         0.98328         6.66400
     2019.98083         4.11805         6.82189
     2019.98357        -5.32518         6.83271
     2019.98631         1.16659         6.95924
     2019.98904         3.21836         6.83163
     2019.99178         7.28813         6.82622
     2019.99452         5.19290         6.91598
     2019.99698        14.81419         8.11317
     2020.09160        25.10109        31.17113
     2020.09308        -2.44033         6.81541
     2020.09582        13.92544         6.82946
     2020.09732       -20.25495        22.70973
     2020.10132         5.62603         7.10524
     2020.10403        -6.63224         6.78621
     2020.10677        -5.86547         6.92139
     2020.10951       -10.64770         6.63156
     2020.11225        -5.37193         6.78621
     2020.11498        -3.20216         6.74403
     2020.11772        -8.09239         6.92896
     2020.12046        -1.09362         6.91274
     2020.12320         2.85615         6.63156
     2020.12594        -5.53207         6.68022
     2020.12867        -4.98330         6.77972
     2020.13141        -9.45653         7.07712
     2020.13415        -1.32376         7.03062
     2020.13689        -2.29099         6.93329
     2020.13963         1.03778         6.83271
     2020.14236        -6.37645         6.82081
     2020.14510         5.81332         6.77755
     2020.14784         3.18010         6.97763
     2020.15058        -4.48113         6.76782
     2020.15331        -2.20736         6.81541
     2020.15605        -3.28659         6.88678
     2020.15879        -4.19282         6.98520
     2020.16153        -3.26905         6.88895
     2020.16427        -4.44328         6.68887
     2020.16700         9.73449         6.78512
     2020.16974         6.13327         6.94518
     2020.17248       -12.49396         7.69788
     2020.17522        -2.83019         7.00142
     2020.17796        -3.68942         6.98736
     2020.18069        -5.53065         6.84677
     2020.18343        -0.99088         6.81541
     2020.18617        -6.57611         6.86948
     2020.18891        -4.36934         7.02197
     2020.19164         1.31244         7.20582
     2020.19438        -3.09079         7.41670
     2020.19712        -5.62302         7.17445
     2020.19986        -3.36725         6.96140
     2020.20260        -5.24748         7.26746
     2020.20533         0.98429         7.01872
     2020.20807         3.56506         7.47726
     2020.21081        -3.55916         7.35289
     2020.21355        -1.00539         7.88281
     2020.21629        -4.37761         7.33018
     2020.21902        -9.23885         7.29774
     2020.22179        -4.58303         7.10956
     2020.22450        -1.86531         7.05982
     2020.22724         2.37946         7.15282
     2020.22997        -2.51477         7.02305
     2020.23271         0.27701         7.09226
     2020.23545        -0.36822         6.87705
     2020.23819         4.46155         6.98952
     2020.24093         0.42132         6.97114
     2020.24366        -4.50891         7.05549
     2020.24640         2.15086         6.99601
     2020.24914       -11.14537         7.10308
     2020.25188        -1.53060         6.89543
     2020.25462        -3.47082         7.14093
     2020.25735         1.64795         7.44915
     2020.26009         7.90172         7.14093
     2020.26283         4.33149         7.92715
     2020.26557        -3.49374         7.07820
     2020.26830        -3.49697         7.07496
     2020.27104         0.87680         6.92031
     2020.27378        -4.36443         7.08685
     2020.27652        -1.71765         7.30207
     2020.27929        -1.04182         7.29017
     2020.28199        -7.02411         7.24907
     2020.28473         0.77966         7.18419
     2020.28747        -8.17857         7.15282
     2020.29021         1.87420         7.08145
     2020.29295        -2.76503         7.01115
     2020.29568         8.36674         7.15715
     2020.29842        -0.94948         7.03819
     2020.30116        -3.43871         7.05874
     2020.30390        -1.89794         7.03819
     2020.30663        -5.78517         7.11930
     2020.30937         5.30660         7.52052
     2020.31211         0.15437         7.30964
     2020.31485        -3.08486         7.29990
     2020.31759         5.87991         6.95167
     2020.32032       -10.42431         7.08794
     2020.32306        -2.63554         7.15823
     2020.32580         4.14623         6.93869
     2020.32854         6.86600         7.01331
     2020.33128        -6.73923         6.99709
     2020.33401         1.37254         7.22636
     2020.33675         7.13031         6.84028
     2020.33949        -1.74791         6.89976
     2020.34223        -1.89714         7.22853
     2020.34496        -2.55937         6.94086
     2020.34746        -7.10003         7.69139
     2020.35984        -8.83344        24.86401
     2020.36139         0.15626         7.06955
     2020.36413         6.92403         7.08037
     2020.36687         4.36680         7.11605
     2020.36961         3.02657         7.13011
     2020.37234         2.18334         6.90409
     2020.37508         2.16311         7.00899
     2020.37782         0.67288         7.05765
     2020.38056        -4.44135         6.99601
     2020.38329         0.45743         7.07928
     2020.38603        -2.06680         7.15823
     2020.38877        -5.42403         7.22204
     2020.39151        -3.88226         6.94734
     2020.39425         0.66051         6.89111
     2020.39698         4.78928         7.09118
     2020.39972        -7.68695         7.21879
     2020.40246         2.33582         6.85975
     2020.40520        -2.29940         7.17121
     2020.40794        -2.76163         6.81108
     2020.41066        -5.37089         7.06847
     2020.41341        -9.56009         7.86984
     2020.41615         5.27368         6.93220
     2020.41889        -5.46755         6.91598
     2020.42162       -11.66378         7.34749
     2020.42436         0.10399         7.58433
     2020.42710        -2.25523         7.45780
     2020.42984        -8.77446         7.44698
     2020.43256       -10.93972         7.08794
     2020.43530        -9.75994         7.15607
     2020.43806        -0.76514         7.34965
     2020.44079        -8.98338         7.28584
     2020.44353        -3.30161         7.33667
     2020.44626        -1.53283         7.14093
     2020.44900        -6.76406         6.86732
     2020.45174         9.75271         7.24042
     2020.45448         0.99548         7.00034
     2020.45722        -1.94375         6.94410
     2020.45996        -4.59897         6.84677
     2020.46270        -9.57419         6.85542
     2020.46543        -8.54444         6.92788
     2020.46817         7.41934         7.02088
     2020.47091         8.37611         7.19825
     2020.47364        -1.56212         6.89003
     2020.47639        -0.11434         6.92680
     2020.47912         5.55442         7.08469
     2020.48186        -5.73781         6.98411
     2020.48459        -2.07704         7.44374
     2020.48733       -11.10427         7.43617
     2020.49007        -1.69049         7.33235
     2020.49281       -11.31872         7.22204
     2020.49555        -2.65395         7.08577
     2020.49828        -3.53818         7.01764
     2020.50102       -10.07241         7.04576
     2020.50376        -7.07064         6.89652
     2020.50650        -5.75487         6.80784
     2020.50924        -9.82310         6.80567
     2020.51197        -4.50832         6.75701
     2020.51471       -25.74955         7.32802
     2020.51745         2.96122         6.86840
     2020.52019        -3.09101         6.99060
     2020.52292        -6.54024         7.10524
     2020.52566        -4.70447         7.08253
     2020.52840         2.92930         7.46429
     2020.53114        -5.27593         7.10524
     2020.53388        -4.73215         7.00899
     2020.53661        -3.69338         7.12146
     2020.53935       -12.62961         7.24259
     2020.54209        -2.38284         7.44049
     2020.54483        -7.12707         7.06198
     2020.54757        -4.35030         6.99277
     2020.55030        -6.92553         7.33127
     2020.55304       -13.32776         7.21122
     2020.55577        -8.01399         7.81036
     2020.55852        -0.21621         7.84604
     2020.56125        -2.43244         7.90336
     2020.56400        -3.44966         7.42319
     2020.56673         5.00310         7.10740
     2020.56947         1.50287         7.39615
     2020.57221        -6.19636         7.18310
     2020.57494        -3.78858         7.03278
     2020.57768        -1.34781         7.07928
     2020.58042        -4.54804         7.35181
     2020.58316        -4.70627         7.30315
     2020.58590        -8.79150         7.15066
     2020.58863         3.98127         7.26313
     2020.59137        -3.31396         7.25124
     2020.59411         0.92381         7.17770
     2020.59685        11.90759         7.95635
     2020.59958        -9.53264         7.19716
     2020.60232         0.50713         6.98087
     2020.60506        -2.68010         6.96789
     2020.60780        -3.45833         7.25989
     2020.61054        12.30444         7.52160
     2020.61327        13.65721         7.17986
     2020.61601        -0.15702         7.04251
     2020.61875        -8.67724         7.08253
     2020.62149        -9.16347         7.13336
     2020.62423         5.39231         7.34965
     2020.62696        -2.51593         7.37885
     2020.62970         2.82984         7.36804
     2020.63244        -9.98139         7.24691
     2020.63518         9.09938         7.33992
     2020.63791        18.07715         7.97906
     2020.64065        -2.80907         7.35181
     2020.64339        -2.60830         7.13985
     2020.64613         7.79147         7.27395
     2020.64886         3.85622         7.30639
     2020.65160         6.76001         7.37561
     2020.65434        -0.09822         7.23285
     2020.65708         4.82755         7.19176
     2020.65982        -4.43268         7.13552
     2020.66256        -0.87990         7.82117
     2020.66529         1.67587         7.23934
     2020.66803        -3.19736         7.11281
     2020.67077        10.16441         7.12687
     2020.67351        -0.00382         7.09334
     2020.67624        -2.07805         7.40372
     2020.67898       -15.98128         7.16148
     2020.68172        -4.49950         7.09442
     2020.68446        -6.45573         7.25340
     2020.68720       -10.87996        10.58107
     2020.68993        -0.89919         6.96140
     2020.69267        -6.71042         7.46753
     2020.69541        -3.56465         7.17121
     2020.69815         8.13412         7.40805
     2020.70089        -1.34811         7.08685
     2020.70362        -4.98333         7.08037
     2020.70636         3.85744         7.77467
     2020.70910        -6.29279         7.33343
     2020.71184         1.33999         7.56054
     2020.71457        -0.58825         7.59190
     2020.71732        -3.17347         7.09334
     2020.72008        -4.38465         7.42319
     2020.72279         6.72406         7.30639
     2020.72553         0.10884         7.21339
     2020.72826        -2.44439         7.51511
     2020.73100        -1.89162         7.22312
     2020.73374         2.67415         7.20041
     2020.73648        -7.87508         7.14093
     2020.73921        -8.63231         7.50106
     2020.74195         0.14446         7.17229
     2020.74469         5.98523         7.17013
     2020.74743         0.25301         7.05008
     2020.75017        -3.80422         7.09226
     2020.75290         0.82355         7.26097
     2020.75564        -7.06768         7.02737
     2020.75838       -12.67191         7.00899
     2020.76112         0.35986         8.80963
     2020.76386        -2.55837         6.95816
     2020.76659         1.73040         7.12687
     2020.76933         1.79418         7.16905
     2020.77207         0.32295         7.11173
     2020.77481         6.15272         7.21663
     2020.77754       -10.72751         7.39724
     2020.78028        -9.28974         7.40589
     2020.78302         0.84503         7.52377
     2020.78576        -6.53620         7.37777
     2020.78850         1.30357         7.15715
     2020.79123        13.06535         7.26854
     2020.79397         5.85312         7.22744
     2020.79671         4.58289         7.42860
     2020.79945       -18.15234         7.22420
     2020.80219         6.87343         7.39507
     2020.80492        -5.33580         7.00791
     2020.80766        -1.91403         7.29990
     2020.81040        -2.44525         7.30747
     2020.81314        10.82052         7.06090
     2020.81587        -8.22871         7.12362
     2020.81861         1.90706         7.33884
     2020.82135         3.62483         6.90949
     2020.82409         1.91060         7.01548
     2020.82683         9.36437         7.20473
     2020.82956         0.34114         7.42860
     2020.83230         5.81792         7.25881
     2020.83504         4.38369         7.40697
     2020.83778         6.46146         7.07171
     2020.84051         5.39422         7.42752
     2020.84325        -0.91500         7.26313
     2020.84599       -11.05223         7.20365
     2020.84873         5.33054         7.19176
     2020.85147         3.89131         7.27178
     2020.85420         7.21509         7.08361
     2020.85694        14.62086         7.49673
     2020.85968        15.09663         7.20365
     2020.86242        14.02740         7.10416
     2020.86516         8.48917         7.28368
     2020.86789        30.52194         7.66219
     2020.87063        -0.26229         7.11714
     2020.87337         4.68748         7.07712
     2020.87611        12.10526         7.18310
     2020.87885         2.88303         7.16256
     2020.88158         3.90080         7.61028
     2020.88432         9.63557         7.09983
     2020.88706         0.84934         7.36804
     2020.88980         5.46011         7.19284
     2020.89253         4.52388         7.33667
     2020.89527         6.38965         7.20257
     2020.89801         7.68943         7.39075
     2020.90075         4.09320         7.10956
     2020.90349         4.46097         7.03927
     2020.90622         2.07674         6.89543
     2020.90896         8.24251         7.44049
     2020.91170         0.04928         7.56486
     2020.91444         5.51105         7.23610
     2020.91718        -5.31117         7.12471
     2020.91991        -3.00240         7.04360
     2020.92265        -2.23563         7.07604
     2020.92539        -4.63986         7.17770
     2020.92813        -8.19209         7.05765
     2020.93086         0.63968         7.09767
     2020.93360        -1.49555         7.17662
     2020.93634        -0.22978         7.32586
     2020.93908        -0.52900         7.30098
     2020.94182        -8.74623         7.06414
     2020.94455        -1.13446         7.10524
     2020.94729         1.70131         7.40913
     2020.95003        -5.16592         7.04900
     2020.95277       -14.82915         7.16905
     2020.95551        -2.49538         7.09334
     2020.95824         4.22439         7.52052
     2020.96104       -10.50574         9.06810
     2020.96372        -5.37106         7.26205
     2020.96646        -2.13229         7.75196
     2020.96919       -12.16352         7.38534
     2020.97193        -8.23375         7.27936
     2020.97467         1.76902         8.34893
     2020.97741        -6.61321         7.04900
     2020.98015        -8.44144         7.50538
     2020.98288        -1.46366         7.34316
     2020.98562       -20.83289         7.12471
     2020.98836         8.09788         7.21339
     2020.99110         6.68965         7.14958
     2020.99384         1.76842         7.16796
     2020.99657        11.35019         7.07496
     2020.99931        10.65596         7.19933
     2021.00205        -0.38427         7.18743
     2021.00479        11.40951         7.11605
     2021.00752        -3.20672         7.09010
     2021.01026        -0.86295         7.20257
     2021.01300         1.10582         6.94518
     2021.01574        -1.07941         7.86659
     2021.01848         0.41336         6.92572
     2021.02121        -2.31787         7.52377
     2021.02395         0.23990         6.87813
     2021.02669       -13.51632         7.49240
     2021.02943        -5.23155         7.22961
     2021.03216         1.97722         7.00034
     2021.03490        -2.88201         7.27178
     2021.03764        -6.67024         7.02197
     2021.04038        -8.27247         7.31829
     2021.04310        -5.85073         7.05008
     2021.04585        -4.08993         6.98520
     2021.04859        -6.35515         7.09010
     2021.05133        -4.47838         7.22528
     2021.05407        -7.15160         7.21339
     2021.05681        -2.25284         7.25773
     2021.05954        -8.05207         7.11605
     2021.06228        -8.00030         6.86515
     2021.06502        -1.05153         7.09551
     2021.06776         7.51625         6.88895
     2021.07049        -4.16998         7.44806
     2021.07323        -0.99621         7.56703
     2021.07597        -5.20744         6.90192
     2021.07871         0.98534         6.76674
     2021.08145        -1.19790         8.17048
     2021.08418        -9.41613         6.90841
     2021.08692        -4.78536         6.82406
     2021.08966        -6.96258         6.89760
     2021.09240        -2.84781         7.01656
     2021.09514        -9.15004         7.18202
     2021.09786        -2.13130         7.20690
     2021.10061        -2.98851         7.32478
     2021.10335        -8.43772         7.40697
     2021.10609        -5.00996         6.92680
     2021.10882        -1.92619         6.84677
     2021.11156        -6.95641         7.11497
     2021.11430        -8.06064         7.13552
     2021.11704        -2.13887         6.84677
     2021.11978        -5.58710         6.91815
     2021.12251       -11.22033         6.81432
     2021.12525        -5.46456         7.15066
     2021.12799         3.77921         7.29990
     2021.13073         3.59698         6.89652
     2021.13347       -12.40524         7.51187
     2021.13620       -11.16747         7.26638
     2021.13894        -8.85170         6.81432
     2021.14168        -5.76393         6.77539
     2021.14442       -14.27116         7.31829
     2021.14715       -14.56639         7.12038
     2021.14989       -12.46862         7.01440
     2021.15263       -22.59584         7.50971
     2021.15537       -11.18707         7.50322
     2021.15811        -6.19530         7.41886
     2021.16084        -6.75353         7.39183
     2021.16358       -10.13976         7.19392
     2021.16632         8.01701         7.61569
     2021.16906         0.45578         7.32910
     2021.17180        -2.81845         7.10308
     2021.17453        -6.21667         7.26313
     2021.17727        -7.99990         7.35398
     2021.18001       -11.91613         7.31829
     2021.18275        -3.73336         7.40048
     2021.18548       -15.80759         7.11605
     2021.18822        -9.66782         7.02629
     2021.19096       -11.39405         7.07604
     2021.19370       -13.96228         7.09983
     2021.19644        -6.82850         7.05982
     2021.19917        -7.83673         7.08361
     2021.20191        -9.86896         7.11822
     2021.20465       -10.51119         7.21339
     2021.20739        -4.46942         7.26854
     2021.21013        -5.25265         7.47510
     2021.21286        -3.53688         7.29990
     2021.21560       -10.92611         7.14309
     2021.21834        -8.55133         7.30964
     2021.22108        -8.13156         7.37452
     2021.22381        -9.24579         7.25016
     2021.22655        -3.67702         7.20149
     2021.22929        -0.06325         7.10848
     2021.23203        -8.70348         6.86299
     2021.23477        -8.89471         7.12254
     2021.23750       -14.21494         7.09551
     2021.24024       -10.12416         7.28909
     2021.24298        -1.75339         7.24907
     2021.24572       -13.98662         7.51187
     2021.24846       -12.80685         7.68599
     2021.25119        -5.94408         7.49673
     2021.25393        -6.55431         7.09875
     2021.25667         1.69346         7.11497
     2021.25941       -11.42477         7.10740
     2021.26214        -0.62199         7.53566
     2021.26488         0.41078         7.28801
     2021.26762        -1.55445         7.33235
     2021.27036        -2.71668         7.31504
     2021.27310        -1.38291         7.11389
     2021.27583       -15.09414         7.04360
     2021.27857        -9.48737         7.25881
     2021.28131        -5.88659         7.39075
     2021.28405        -4.58482         7.32694
     2021.28679        -9.45705         7.28476
     2021.28952       -16.93028         7.22636
     2021.29226       -14.34851         7.21987
     2021.29500         1.98026         7.20041
     2021.29774       -10.48397         7.28044
     2021.30047        -1.59820         7.10416
     2021.30321         0.16458         7.34424
     2021.30595        -9.28865         7.80279
     2021.30869         6.17412         7.52052
     2021.31143        -3.01011         7.00358
     2021.31416         5.84666         7.14201
     2021.31690        -1.39557         7.06522
     2021.32021         3.21020         9.67156
     2021.32295       -11.03703         9.04647
     2021.32569       -15.17326         9.22924
     2021.32842        -2.01549         9.97329
     2021.33116         1.40728         9.23357
     2021.33390        -5.71795         9.41201
     2021.33664        -8.08118         9.02268
     2021.33937        -4.26740         9.59369
     2021.34211        -1.75763         9.26277
     2021.34485         0.46814        10.30854
     2021.34759       -16.44309         9.28764
     2021.35032        -2.69933         9.35469
     2021.35306        -5.58855         9.25303
     2021.35580        -7.94378         9.47690
     2021.35854       -12.48401         9.51475
     2021.36128       -11.43023         9.49744
     2021.36402       -16.57946         9.39579
     2021.36653       -17.72609         9.02268
     2021.36892       -16.55691         7.01764
     2021.37166       -13.61714         7.24150
     2021.37440        -0.79437         7.22853
     2021.37770        -4.49561         9.24006
     2021.38044        -3.14483         9.72563
     2021.38318        -7.64206        10.60595
     2021.38591         3.59270         9.95815
     2021.38866         3.12048         9.82297
     2021.39413         3.43102         9.53097
     2021.39687         0.94479         9.57531
     2021.39938        -1.12083         8.44626
     2021.40177        -7.49967         7.67193
     2021.40451        -2.76589         7.28801
     2021.40782        -7.41812         9.47473
     2021.41055         8.56963         9.93868
     2021.41330         6.07942         9.67372
     2021.41603        -8.73681         9.59045
     2021.41877        -6.58104         9.71806
     2021.42151        -3.43727        10.08901
     2021.42425         9.45351         9.73861
     2021.42699         7.88628         9.83919
     2021.42971         4.12903         9.95058
     2021.43246         7.21582         9.58180
     2021.43520        -8.20141         9.85108
     2021.43794        -8.00364         9.86190
     2021.44068       -16.12087         9.52989
     2021.44341        -5.21710         9.74077
     2021.44615        -0.33632         9.56882
     2021.44889       -11.91255        10.54430
     2021.45163       -12.71778        10.01547
     2021.45436         7.98899         9.99600
     2021.45710       -16.71224        10.35072
     2021.45984         4.99353         9.68670
     2021.46258       -13.18470         9.91381
     2021.46528        -8.88898         9.92571
     2021.46805         1.66685         9.80350
     2021.47079       -18.65938         9.87812
     2021.47353        -3.46961         9.83054
     2021.47627        -6.39684         9.78728
     2021.47901       -14.50707         9.92679
     2021.48174       -11.76230         9.81431
     2021.48448       -16.59853        10.13875
     2021.48722        -7.67275         9.95274
     2021.48996       -16.64798         9.70184
     2021.49269       -18.72421         9.70076
     2021.49520       -15.01584         8.28620
     2021.49817       -22.54667        10.81251
     2021.50091       -15.06790         9.72563
     2021.50365       -17.04113        10.02844
     2021.50638        -5.19736         9.78079
     2021.50912        -9.70158        10.55404
     2021.51186       -10.90681        10.78547
     2021.51459        19.81295        11.46031
     2021.51733       -24.56727        10.10198
     2021.52007        -7.42351        10.51943
     2021.52281       -20.19973         9.70076
     2021.52555       -14.58896        10.12794
     2021.52829        -2.52819         9.79701
     2021.53102       -13.02641         9.67156
     2021.53376       -11.82164         9.95166
     2021.53650        -3.62588        10.43832
     2021.53924       -21.62110        10.10415
     2021.54198        -4.16933         9.73537
     2021.54471       -15.80256        10.13551
     2021.54745       -14.35379        10.04359
     2021.55015       -13.65809        10.46536
     2021.55293       -14.75524         9.63695
     2021.55566        -0.56147        11.12830
     2021.55840       -18.78170        10.14632
     2021.56114       -15.22893        10.21770
     2021.56388        -9.01916         9.89218
     2021.56605        -5.37038         7.43292
     2021.56878       -11.68861         7.44049
     2021.57152        -1.39984         7.32802
     2021.57425        -1.06009         7.75087
     2021.57700        -3.07430         8.10776
     2021.57974        -7.09753         7.44806
     2021.58247       -12.38375         7.35506
     2021.58521        -0.57698         7.73357
     2021.58795       -15.82621         7.26205
     2021.59069        -9.61544         7.33667
     2021.59342       -14.28967         7.77142
     2021.59616       -16.08790         7.89904
     2021.59890         7.34487         7.49673
     2021.60164        14.02564         7.49781
     2021.60438        -7.27858         7.25881
     2021.60711        -5.60081         7.14417
     2021.60985        -0.75604         7.13660
     2021.61259        -9.73427         7.47186
     2021.61533        -4.97450         7.22204
     2021.61807         6.22527         7.33018
     2021.62080        -6.32296         7.24150
     2021.62354         2.20481         7.34316
     2021.62628        -2.94641         7.48808
     2021.62902        -3.64564         7.26421
     2021.63175         1.62113         7.30531
     2021.63449        -6.43910         7.56811
     2021.63723        -4.65233         7.72816
     2021.63996         3.72643         7.74006
     2021.64271         1.56621         7.45347
     2021.64545         0.07699         7.34965
     2021.64818         6.04376         7.44915
     2021.65092       -10.97047         7.48267
     2021.65366        -5.25970         7.15931
     2021.65639        -2.44293         7.10416
     2021.65913        -4.75116         7.17013
     2021.66187         3.24661         7.35398
     2021.66461        -5.74362         7.36047
     2021.66735         5.31316         7.25016
     2021.67008        -4.76008         7.25340
     2021.67284        -2.25028         7.65138
     2021.67556        -9.22653         7.46429
     2021.67830         9.43224         7.36912
     2021.68104        12.06301         7.71410
     2021.68378        -3.63420         6.93977
     2021.68651        -0.14245         7.25340
     2021.68925        -6.88067         7.12579
     2021.69199         8.38210         7.43400
     2021.69472        -3.27513         7.54215
     2021.69746        -3.14636         7.41995
     2021.70020        -5.09459         7.33775
     2021.70294         2.00118         7.25773
     2021.70568        -6.82005         7.59623
     2021.70841         2.90572         7.34208
     2021.71115        -2.25450         7.25989
     2021.71389        -1.44273         7.90877
     2021.71663         5.30304         7.65138
     2021.71937        -0.48819         7.42427
     2021.72210        -9.11342         7.44266
     2021.72485        -4.23764         7.53134
     2021.72758         0.10212         7.47943
     2021.73032        -6.22911         7.74871
     2021.73305         3.07867         7.26421
     2021.73579         6.00444         7.62326
     2021.73855       -14.31876         7.73465
     2021.74127        18.71098         7.60704
     2021.74401        -3.20325         7.56378
     2021.74674        13.08852         7.36155
     2021.74948        -3.20971         7.69248
     2021.75222        -4.63493         7.53134
     2021.75496         1.04484         7.41995
     2021.75706         5.91050        10.01655
     2021.76043        12.79038         7.49565
     2021.76317         2.55415         7.76602
     2021.76591        -6.55108         7.36371
     2021.76865        -2.66731         7.36047
     2021.77138         8.73846         7.28801
     2021.77412        -0.14876         7.92607
     2021.77686         6.45501         7.24475
     2021.77960         6.73278         7.23718
     2021.78234         6.42355         7.51079
     2021.78507         5.35232         7.40805
     2021.78781        14.48709         7.40264
     2021.79055         8.35586         7.49997
     2021.79329        10.65863         7.38318
     2021.79603         5.60941         7.30315
     2021.79876         3.51518         7.23393
     2021.80150        12.51195         7.44049
     2021.80424         6.87572         7.69464
     2021.80698        11.55949         7.46861
     2021.80971        12.06626         7.66544
     2021.81244        18.74401         7.62002
     2021.81519        11.35680         7.50322
     2021.81793        13.44458         7.49781
     2021.82067       -10.99865         7.49457
     2021.82340        -1.45588         7.58217
     2021.82614         1.82589         7.66544
     2021.82888         1.38666         7.40481
     2021.83162         5.66043         7.46212
     2021.83436        10.41620         7.48592
     2021.83709        -1.24003         7.73357
     2021.83983        -1.51325         7.45888
     2021.84257         5.86252         7.71194
     2021.84531         3.15329         7.86551
     2021.84804         5.07006         7.26962
     2021.85078         3.41783         7.42752
     2021.85352         4.11760         7.23934
     2021.85626         4.31437         7.54431
     2021.85900        -1.39686         7.49349
     2021.86447       -11.53531         7.45672
     2021.86721        -2.63454         7.85361
     2021.86995        -8.97677         7.79954
     2021.87269        -2.13500         7.80170
     2021.87542         3.89877         7.57351
     2021.87816         2.02854         7.14958
     2021.88090         6.60532         7.23285
     2021.88364         7.84609         7.30964
     2021.88637        -1.82114         7.31613
     2021.88911       -13.40037         7.29774
     2021.89185        -7.91360         7.21663
     2021.89459        -6.34683         7.57676
     2021.89733       -10.86206         7.51620
     2021.90006        -9.12429         7.46320
     2021.90280       -19.78651         7.73249
     2021.90554       -12.56674         7.56054
     2021.90828        -6.93397         7.62975
     2021.91102         2.64880         7.85145
     2021.91375         0.07357         7.47726
     2021.91649       -17.21466         7.53999
     2021.91923        -9.83189         7.91850
     2021.92197        -6.14512         7.78656
     2021.92470       -19.97734         7.59406
     2021.92744         2.02543         7.55405
     2021.93018        -8.24980         9.64236
     2021.93292         6.10297         7.43184
     2021.93566        -2.44226         7.85470
     2021.93839         2.95951         7.68382
     2021.94113         8.11628         7.72492
     2021.94387        14.58405         7.66219
     2021.94661         4.20983         7.63408
     2021.94935        15.02960         7.58649
     2021.95208        -1.01563         7.21987
     2021.95482         0.59114         7.48267
     2021.95756         3.93391         7.86551
     2021.96030        -2.29032         7.34749
     2021.96303        -2.65255         7.37561
     2021.96577         8.68822         7.66111
     2021.96851        10.59700         7.45888
     2021.97125         5.31977         7.37128
     2021.97399         3.44654         7.46104
     2021.97672         6.22831         7.58865
     2021.97946         4.15608         7.53242
     2021.98220        11.86185         7.51403
     2021.98494        20.53662         7.43617
     2021.98767        12.16240         7.54864
     2021.99041        11.63817         7.65246
     2021.99315         7.11494         7.64489
     2021.99589        10.82071         7.50646
     2021.99863         6.90448         7.30531
     2022.00136         9.18325         7.49240
     2022.00410        -0.50698         7.35398
     2022.00684       -23.92521         7.60704
     2022.00958        -6.68243         7.91309
     2022.01237       -10.40156         7.78224
     2022.01446       -14.73393        10.04899
     2022.02345       -12.55526         8.78368
     2022.02600       -17.27181         7.77467
     2022.02874        -3.11404         7.57784
     2022.03148       -10.21526         7.49889
     2022.03422       -13.54949         7.50214
     2022.03696       -17.90072         7.52377
     2022.03969       -17.98395         8.02449
     2022.04243        -9.33218         7.43400
     2022.04517        -5.18341         7.41238
     2022.04791        -5.16864         7.50538
     2022.05065       -12.72487         7.64165
     2022.05338        -8.61909         7.60380
     2022.05612       -16.42032         7.45131
     2022.05886        -8.95955         8.30242
     2022.06160        -6.11478         7.42211
     2022.06433       -12.86501         7.31288
     2022.06707       -14.67824         7.32478
     2022.06981        -5.36647         7.50538
     2022.07255        -9.68470         7.15174
     2022.07529         0.03508         7.22204
     2022.07802         0.41385         7.17662
     2022.08076        -2.19038         7.60704
     2022.08350       -10.80361         7.23826
     2022.08624       -13.04084         7.24691
     2022.08898         1.73793         7.36155
     2022.09171       -12.76130         7.33992
     2022.09445        -5.74853         7.19067
     2022.09719        -9.77175         7.25124
     2022.09993       -11.76698         7.61894
     2022.10266       -10.97021         7.40156
     2022.10540        -6.39544         7.22636
     2022.10814        -5.84267         7.33451
     2022.11088        -3.49490         7.24583
     2022.11362        -3.21313         7.23393
     2022.11635        -1.25535         7.40264
     2022.11909        -4.57858         7.28584
     2022.12183        -6.00081         7.36695
     2022.12457        10.53696         7.56162
     2022.12731        -6.81327         7.41778
     2022.13004        -8.72550         7.29233
     2022.13278        -6.74773         7.39291
     2022.13552        -3.59196         7.34857
     2022.13826        -5.07418         7.51079
     2022.14099        -6.99941         7.17337
     2022.14373       -15.68064         7.32478
     2022.14647        -9.65787         7.10524
     2022.14921        -8.47110         7.61785
     2022.15195       -10.67733         7.49024
     2022.15468        -8.61956         7.29341
     2022.15742         0.13821         7.35506
     2022.16016       -10.04401         7.45455
     2022.16290        -9.94624         7.59623
     2022.16564        -8.29547         7.26421
     2022.16837        -2.24570         7.27827
     2022.17111        -4.05993         7.26097
     2022.17385       -11.70816         7.33559
     2022.17659        -3.64339         7.23610
     2022.17932       -13.04962         7.24475
     2022.18206       -14.22584         7.31829
     2022.18480        -4.81107         7.43400
     2022.18754       -10.21930         7.29341
     2022.19028       -14.67353         7.33451
     2022.19301        -9.66876         7.31396
     2022.19575        11.81301         7.38966
     2022.19849        -3.46322         7.44266
     2022.20123        -9.08645         7.40481
     2022.20397        -4.47867         7.40048
     2022.20670        -8.04590         7.38426
     2022.20944         2.24087         7.49457
     2022.21218         4.22564         7.36047
     2022.21492        -7.02259         7.26205
     2022.21765        -2.06282         7.26638
     2022.22039        -3.79305         7.25124
     2022.22313        -4.63827         7.40156
     2022.22587        -3.91050         7.64705
     2022.22861        -7.16873         7.55837
     2022.23134        -1.37496         7.29774
     2022.23408        -3.17019         7.32694
     2022.23682         1.15658         7.55513
     2022.23956        -4.03365         7.24475
     2022.24230         5.87612         8.20401
     2022.24452        -0.80200        12.49419
     2022.24778        -1.90433         8.29161
     2022.25051         1.16844         9.26817
     2022.25325        -1.08179         7.92499
     2022.25598        -3.97002         7.21663
     2022.25872       -15.15125         7.41995
     2022.26146        -2.31748         7.28693
     2022.26420        -3.30271         7.32261
     2022.26694       -21.74193         7.75520
     2022.26967         1.01483         7.62975
     2022.27242        18.31762         7.30207
     2022.27515         0.01438         7.43833
     2022.27789        -2.86285         7.32153
     2022.28062        -3.75908         7.45239
     2022.28336       -12.33831         7.26205
     2022.28610        -9.93854         7.40589
     2022.28884        -4.66576         7.43292
     2022.29158       -11.64399         7.41238
     2022.29431        -7.98622         7.23069
     2022.29705        -7.92945         7.39507
     2022.29979         0.65132         7.35722
     2022.30253        11.36809         7.36804
     2022.30527        -8.14614         7.37236
     2022.30800       -11.65837         7.44806
     2022.31074        -3.32359         7.59082
     2022.31348        -0.25681         7.39832
     2022.31622        -3.82705         7.59514
     2022.31895       -20.32628         7.67734
     2022.32169         1.71749         7.48700
     2022.32443        -6.93474         7.18094
     2022.32717        -6.44897         7.34641
     2022.32991        -1.28820         7.34100
     2022.33264        -3.54442         7.45239
     2022.33538        -4.09965         7.72168
     2022.33812         5.42512         7.55297
     2022.34086         5.81789         7.46861
     2022.34360         3.85166         7.60596
     2022.34633         4.20243         7.33343
     2022.34907        -0.43180         7.28801
     2022.35181         5.82498         7.28693
     2022.35455         2.47675         7.40697
     2022.35728        -1.58048         7.26962
     2022.36002         4.09429         7.29017
     2022.36276         4.55106         7.27719
     2022.36549        -1.46118         7.42427
     2022.36824        -5.00740         7.25124
     2022.37097        -9.60963         7.28044
     2022.37371        -6.30785         7.21771
     2022.37645       -21.31708         7.47294
     2022.37919        -6.20131         7.58108
     2022.38193         0.01446         7.54864
     2022.38466        -5.12677         7.55405
     2022.38740       -17.69600         7.39075
     2022.39014        -9.23223         7.40805
     2022.39288        -2.54946         7.77575
     2022.39561        -2.41268         7.50214
     2022.39835        -3.11991         7.35830
     2022.40109        -8.13014         7.68382
     2022.40383         3.49163         7.25664
     2022.40657         3.08640         7.31288
     2022.40930        -5.54583         7.50646
     2022.41204         2.63194         7.37236
     2022.41478         1.14571         7.31072
     2022.41752        -4.11851         7.44374
     2022.42026         0.92426         7.54323
     2022.42299        -2.39397         7.34316
     2022.42573        -0.62620         7.40913
     2022.42847         8.48157         7.20690
     2022.43121       -12.22166         7.64273
     2022.43394        16.53411         7.47510
     2022.43668        -7.89212         7.34424
     2022.43942        -8.96834         7.45888
     2022.44216        -1.44157         7.63083
     2022.44490        11.49620         7.62434
     2022.44763        14.20197         7.10524
     2022.45037         3.14474         7.24042
     2022.45311       -10.54749         7.25881
     2022.45585       -14.86472         7.25881
     2022.45859       -11.69594         7.21230
     2022.46132        -4.94517         7.23285
     2022.46406        -3.24040         7.30855
     2022.46680        -1.04963         7.55729
     2022.46954         3.30214         7.27503
     2022.47227       -16.70309         7.39075
     2022.47501        23.81468         7.44049
     2022.47775        -7.19855         7.67409
     2022.48049        -2.93877         7.37885
     2022.48323         6.45400         7.09551
     2022.48596         4.98277         7.13444
     2022.48870        -5.98546         7.67301
     2022.49144       -15.68369         7.73682
     2022.49418        -5.53492         7.37561
     2022.49692       -12.41415         7.48592
     2022.49965       -13.73938         7.49240
     2022.50239       -25.91760         7.33775
     2022.50513       -14.58183         7.52701
     2022.50787         4.66594         7.75736
     2022.51060       -17.04829         7.55513
     2022.51334         3.12648         7.47726
     2022.51608       -12.74075         7.65895
     2022.51882        -5.58598         7.71735
     2022.52156        -7.83421         7.66760
     2022.52429        -4.37343         7.44698
     2022.52703        -3.91666         7.43725
     2022.52977         5.87411         7.48267
     2022.53251        -6.32212         7.58000
     2022.53525        -6.94035         7.52377
     2022.53798        -8.77458         7.80170
     2022.54072        -3.10981         7.28584
     2022.54347        -7.52902         7.39832
     2022.54620        -7.49226         7.35398
     2022.54893        -0.06449         7.43076
     2022.55167        -5.61372         7.45023
     2022.55358        -1.96940        12.55151
     2022.59114       -20.26394        18.91486
     2022.59274       -16.65315         7.18743
     2022.59548        -3.09638         7.29558
     2022.59822       -11.44261         7.25232
     2022.60095       -14.64184         7.61028
     2022.60369       -11.74607         7.71843
     2022.60643         1.37270         7.43725
     2022.60917        -0.40552         7.36912
     2022.61190         5.45625         7.49997
     2022.61464         4.32002         8.04503
     2022.61738        -1.16021         7.60163
     2022.62012        -5.01244         7.44158
     2022.62286         4.30533         7.24150
     2022.62559        -6.42490         7.20149
     2022.62833         3.91087         7.25016
     2022.63107        -1.69035         7.27936
     2022.63381        -0.16658         7.24799
     2022.63655         3.21219         7.21122
     2022.63928        -3.20104         7.41454
     2022.64202        -1.84727         7.75412
     2022.64476         9.50050         7.73573
     2022.64750         5.74027         7.40589
     2022.65023         2.66304         7.49889
     2022.65297         9.65582         7.40589
     2022.65572        13.49460         7.32802
     2022.65845        15.37736         7.17662
     2022.66119         9.09013         7.27070
     2022.66392         3.30490         7.55405
     2022.66666        11.17567         7.50754
     2022.66940         9.60444         7.24475
     2022.67214         8.78721         7.35722
     2022.67488         5.23099         7.30423
     2022.67761         8.12176         7.52593
     2022.68035         7.06253         7.24150
     2022.68309         0.45530         7.36804
     2022.68583         2.55807         7.65462
     2022.68856        21.81984         7.26530
     2022.69130         9.78861         7.39183
     2022.69404         1.09838         7.32045
     2022.69678        13.10316         7.77359
     2022.69952         6.77093         7.41995
     2022.70225        10.73270         7.49132
     2022.70499         9.37947         7.77683
     2022.70773        -0.09276         7.51079
     2022.71047         7.88401         7.60055
     2022.71321        13.83978         7.67734
     2022.71868         9.81933         7.29341
     2022.72142         8.58510         7.26746
     2022.72416         7.63287         7.52701
     2022.72689         0.61264         7.44806
     2022.72962        18.16740         7.47402
     2022.73238        18.23521         7.38101
     2022.73511        10.72995         7.19392
     2022.73785        12.04473         7.27287
     2022.74058         7.98650         7.50430
     2022.74332        14.68527         7.35398
     2022.74606         8.52204         7.11281
     2022.74880         5.29381         7.17445
