# ================= DQRFIT RESULTS ================
# INPUT FILE: series/GRAN.rad
# OUTPUT: LDETRENDED
# FILTER FUNCTION: f(t)
# f(t)=+line(t)
# line(t)=+P 1+P 2*t
# heav(t)=(t<0?0:1)
# TOTAL OBSERVATIONS MTOT=  491
# INITIAL TIME INTERVAL= 2017.8946 - 2004.7885 = 13.1061
# TOTAL OBSERVATIONS AFTER PREFILTER M=  491
# TIME-SPAN=    0.0000 -    0.0000 =  0.0000
# OBSERVATIONS: USED M=   491 REJECTED MTOT-M=     0 %USED=  100.0000
# N=  2 PARAMETERS
# MAXSIG= 175.00000
# MAXRES=  17.55912
# SCALE FACTOR FOR LENGTHS: SCL=  10.00000
# SCALE FACTOR FOR SIGMAS: SCLSIG=   1.00000
# CHI^2=    499.469 DOF=   489 CHI^2/DOF=   1.02141
# RMS=      5.895 SDEV=      5.900 MEAN=    0.07166
#  P #       PARAMETER +-    SIGMA %error PARAMETER NAME
# P 1 =       840.94242 +-  137.904  16.40 YZERO                              
# P 2 =        -0.41605 +-    0.069  16.49 SLOPE                              
#       T            LDETRENDED       SIG_OBS
     2004.78851         9.47003         6.01538
     2004.79124         7.07717         5.91532
     2004.79398         7.59531         5.99618
     2004.79672        12.00445         5.93149
     2004.79946        10.23759         5.92341
     2004.80220         7.95973         5.79809
     2004.80493         7.32487         5.90016
     2004.80767        10.47200         5.92038
     2004.81041         3.54914         5.79304
     2004.81315         3.71328         5.79304
     2004.81588         6.41642         5.89410
     2004.81862         8.00856         6.06288
     2004.82136         6.91970         5.98910
     2004.82410        11.21884         5.75160
     2004.82684         7.39698         5.82335
     2004.82957        17.55912         6.05681
     2004.83231        12.12126         5.91027
     2005.20740       -11.01969         5.95676
     2005.21013         0.02245         5.95474
     2005.21287       -10.96141         5.90926
     2005.21561        -4.36827         5.96788
     2005.21835        -6.09614         5.93756
     2005.22109        -7.37900         5.92644
     2005.22382        -7.62886         5.83952
     2005.22656        -0.52672         5.84357
     2005.22930         0.75142         5.89814
     2005.23204        -2.77944         5.96282
     2005.23478        -8.06230         6.05884
     2005.23751         9.07884         6.03357
     2005.24025         4.80998         6.16192
     2005.24299        -5.11488         5.89410
     2005.24573        -0.09674         6.05985
     2005.24846        -1.62161         5.94463
     2005.25120         3.89653         5.90825
     2005.25394         6.01267         6.21448
     2005.25668         0.39881         6.17506
     2005.25942        -0.90905         6.00729
     2005.26215        -0.30991         6.06894
     2005.26489        -0.04577         6.07602
     2005.26763        -0.50563         6.08309
     2005.27037         3.71551         6.04064
     2005.27311         6.36065         5.97091
     2005.27584         0.45179         6.05580
     2005.27858         0.28592         6.06086
     2005.28132         4.85406         6.11846
     2005.28406         1.01820         6.12453
     2005.28679        -0.29766         6.06995
     2005.28953         3.00048         5.92442
     2005.29227        -3.37738         6.11644
     2005.29501        -0.43024         5.97697
     2005.29775         1.56490         5.87288
     2005.30048         3.35304         5.93453
     2005.30322         1.02818         5.85570
     2005.30596         2.26831         5.89713
     2005.30870         6.85445         5.84054
     2005.31144         4.07559         5.85570
     2005.31417         1.94373         5.88905
     2005.31691         0.70287         5.90117
     2005.31965        -4.19899         5.96586
     2005.32239         2.77215         6.09522
     2005.32512        -2.56271         5.96383
     2005.32786        -3.52457         5.87692
     2005.33060        -1.23543         5.97798
     2005.33334         5.02171         6.08713
     2005.33608        -1.34116         6.03458
     2005.33881        -4.56902         5.93554
     2005.34155        -0.93388         5.79202
     2005.34429         1.65826         5.72936
     2005.34703         1.15640         5.82942
     2005.34977        -1.92346         5.90623
     2005.35250        -1.93332         5.99112
     2005.35524         0.55282         6.11139
     2005.35798         3.33496         6.00123
     2005.36072        -5.79690         6.00527
     2005.36345        -5.82076         6.12049
     2005.36619         0.78337         6.07602
     2005.36893        -0.37549         6.18112
     2005.37167         5.24765         6.07602
     2005.37441         8.06079         6.03054
     2005.37714         5.54893         6.17102
     2005.37988        -4.92093         6.34182
     2005.38262        -6.77879         6.35394
     2005.38536         0.35335         5.99921
     2005.38810        -4.03351         5.97293
     2005.39083         3.09363         6.05075
     2005.55237         3.63283         6.06086
     2005.55510         5.43197         6.15889
     2005.55784         1.94911         5.99618
     2005.56058         9.41325         6.13666
     2005.56332         3.38139         6.16495
     2005.56606         6.12953         6.15485
     2005.56879         1.31267         6.23772
     2005.57153         2.84680         6.32969
     2005.57427         3.52694         6.30139
     2005.57701        -1.34492         6.21448
     2005.57974        -5.35178         6.25591
     2005.58248         5.18936         6.12958
     2005.58522        13.41550         6.13666
     2005.58796         7.74964         5.94261
     2005.59070         3.30478         5.94362
     2005.59343         7.37392         5.93857
     2005.59617         8.94606         6.00628
     2005.59891         3.81920         5.96080
     2005.60165         4.25833         5.94059
     2005.60439         2.23947         6.00931
     2005.60712         0.92761         5.98506
     2005.60986         5.84675         6.09522
     2005.61260         5.51089         6.06389
     2005.61534         9.60203         5.95373
     2005.61807         8.98517         5.92947
     2005.62081         8.76331         5.98203
     2005.62355         1.57745         6.17607
     2005.62629         3.57659         6.02447
     2005.62903         6.80373         6.06591
     2005.63176         4.23486         5.97798
     2005.63450         5.36100         5.97697
     2005.63724        11.88314         6.02245
     2005.63998         5.43528         5.89208
     2005.95209        -0.04286         5.92947
     2005.95483        -1.05773         6.01336
     2005.95757         4.71441         5.90825
     2005.96031         8.39955         5.84357
     2005.96304        -3.12931         5.75160
     2005.96578        13.61583         6.54193
     2005.96852        -2.56603         6.06793
     2005.97126         1.11611         6.08309
     2005.97400        -6.36875         6.02346
     2005.97673        -6.98561         6.06894
     2005.97947        -3.06847         5.99516
     2005.98221         1.01267         6.93709
     2006.66667        -0.27057         6.28623
     2006.66941        -7.54643         6.26299
     2006.67215        -4.99629         6.27410
     2006.67488         3.28585         6.38932
     2006.67762        -5.63301         6.37517
     2006.68036        -4.04087         6.31049
     2006.68310         7.83127         6.61368
     2006.68584         0.49741         6.49746
     2006.68857         6.12855         6.14474
     2006.69131         1.28668         6.08511
     2006.69405         2.61982         6.07905
     2006.69679        -0.62104         6.08814
     2006.69953         8.61010         6.10937
     2006.70226         8.11624         6.29230
     2006.70500        -3.64062         6.30543
     2006.70774         2.88152         5.92543
     2006.71048         3.52566         5.95878
     2006.71321         4.61380         6.07602
     2006.71595         6.79694         6.04974
     2006.71869        -2.60792         5.99719
     2006.72143        15.73621         6.16697
     2006.72417        12.86835         6.30341
     2006.72690         6.48849         6.11745
     2006.72964         5.72263         6.16495
     2006.73238         5.44377         5.97091
     2006.73512         3.68591         5.97596
     2006.73786        -3.23395         5.94665
     2006.74059         4.41219         5.96282
     2006.74333         8.70333         6.05378
     2006.74607         7.68247         6.03761
     2006.74881         7.04461         6.12655
     2006.75154         5.62474         6.35496
     2006.75428         4.09988         6.10229
     2006.75702         7.08302         6.10735
     2006.75976         4.83816         6.10533
     2006.76250         2.69430         6.00224
     2006.76523         1.66144         6.08309
     2006.76797         5.25058         6.03256
     2006.77071        -2.18128         5.97293
     2006.77345        -0.99014         6.07804
     2006.77619         6.64100         6.03054
     2007.25810        -4.13550         6.05075
     2007.26079        -5.09039         5.99719
     2007.26352       -12.18325         5.86479
     2007.26626        -7.72111         5.84963
     2007.26900         4.96403         6.05277
     2007.27174        -5.19583         6.01639
     2007.27447        -2.78669         5.88197
     2007.27721         5.47745         5.80617
     2007.27995         2.15459         5.80314
     2007.28269         5.66772         5.81224
     2007.28543         0.26786         5.78394
     2007.28816         2.50700         5.83043
     2007.29090        -3.48686         5.91128
     2007.29364        -9.57172         5.84054
     2007.29638        -1.78758         5.82942
     2007.29911        -3.57944         5.88197
     2007.30185         4.85470         5.88096
     2007.30459         0.34684         5.82942
     2007.30733         4.34598         5.81426
     2007.31007        -3.10489         5.93958
     2007.31280         2.43725         5.89814
     2007.31554        -1.98961         5.85974
     2007.31828        -5.86247         5.85266
     2007.32102        -1.46733         5.82335
     2007.32376       -11.24319         5.86883
     2007.32649        -0.73705         5.84357
     2007.32923        -7.74391         5.81729
     2007.33197       -14.22177         6.01134
     2007.33471        -9.95463         6.07400
     2007.33744        -3.28449         5.79304
     2007.34018        -0.16236         5.91532
     2007.34292        -8.45822         5.83851
     2007.34566        -4.99208         5.85266
     2007.34840        -3.65294         5.81931
     2007.35113       -10.82580         5.91734
     2007.35387        -5.48166         6.30745
     2007.35661        -9.48052         6.28219
     2007.35935        -3.95738         5.88500
     2007.36209        -7.01324         5.84458
     2007.36482        -6.10710         5.94766
     2007.36756        -5.51296         5.87187
     2007.37008        -6.45692         6.40448
     2007.89049        -6.02440         5.92745
     2007.89323        -5.81626         6.06490
     2007.89597        -5.77012         6.03559
     2007.89870        -3.56398         6.08208
     2007.90966        -7.44143         6.21953
     2007.91787        -1.42401         6.59650
     2010.30254        -1.56788         5.89410
     2010.30528       -12.80774         5.97697
     2010.30801       -10.42360         5.79101
     2010.31075       -10.42246         5.83750
     2010.31349       -10.46932         5.85772
     2010.31623        -7.32419         5.85367
     2010.31896        -3.13205         6.21650
     2010.32170        -9.55191         5.89107
     2010.32444       -11.31377         5.96383
     2010.32718        -5.99663         5.78091
     2010.32992        -3.54749         5.80617
     2010.33265        -5.64535         5.82032
     2010.33539        -7.90321         5.93958
     2010.33813         1.35893         5.98304
     2010.34087        -5.99693         5.73240
     2010.34361        -7.65679         5.72229
     2010.34634        -3.95666         5.79304
     2010.34908        -3.76552         5.74048
     2010.35182        -8.15638         5.78495
     2010.35456        -8.39024         5.87389
     2010.35729        -1.63110         5.75665
     2010.36003        -0.78996         5.80718
     2010.36277        -2.31382         5.71420
     2010.36551        -5.51868         6.00123
     2010.36825       -10.93854         5.92038
     2010.37098        -5.42140         5.74149
     2010.37372        -2.51826         5.76373
     2010.37646        -4.53113         5.72229
     2010.37920        -5.07199         5.97192
     2010.38193        -9.46185         6.07703
     2010.38467        -2.28971         5.96485
     2010.38741        -1.95157         5.91836
     2010.39015        -2.07943         5.86580
     2011.26079        -1.71021         5.87894
     2011.26352        -2.12907         5.64245
     2011.26626        -4.18093         5.61112
     2011.26900         0.40721         5.64144
     2011.27174        -2.54765         5.88703
     2011.27447        -5.07451         5.82740
     2011.27721        -5.99237         5.94059
     2011.27995       -10.63523         5.69096
     2011.28269        -7.25809         5.74452
     2011.28543        -8.11095         5.60809
     2011.28816        -6.49582         5.65458
     2011.29090        -0.85868         5.76170
     2011.29364        -4.82954         5.71926
     2011.29638        -7.88540         5.73139
     2011.29911         7.58174         5.69298
     2011.30185       -16.08012         5.86681
     2011.30459        -2.34998         5.63841
     2011.30733        -1.60384         5.58686
     2011.31007        -8.99370         5.64952
     2011.31280        -6.17556         5.74452
     2011.31554        -5.29742         5.68490
     2011.31828        -1.54029         5.62325
     2011.32102        -3.76215         5.68995
     2011.32376        -7.51901         5.68591
     2011.32649        -8.24787         5.64851
     2011.32923        -7.06873         5.61920
     2011.33197        -4.02759         5.62426
     2011.33471        -8.90545         5.74553
     2011.33744        -3.64931         5.68389
     2011.34018        -3.99917         5.73037
     2011.34292        -2.64303         5.71218
     2011.34566         8.54711         5.79910
     2011.34840        -1.40176         5.79708
     2011.35113        -5.31262         5.75766
     2011.35387        -7.40748         5.72532
     2011.35661        -5.44534         5.59495
     2011.35935       -14.91020         5.71218
     2011.36209       -10.64806         5.64447
     2011.36482        -2.34292         5.74553
     2011.36756        -4.23478         5.71926
     2011.37030        -5.35864         5.76777
     2011.37304         1.45750         5.69399
     2011.37577        -5.10037         5.78697
     2011.37851        -6.18423         5.73442
     2011.38125        -8.04509         5.79607
     2011.38399        -8.10195         5.74857
     2011.38673        -7.09981         5.71218
     2011.38946        -7.49367         5.73037
     2011.39220        -3.29753         5.72431
     2011.39494        -4.41039         5.75059
     2011.39768         1.41175         5.79708
     2011.40042        -9.58811         5.77990
     2011.40315       -14.46897         5.87894
     2011.40589        -5.98384         5.70107
     2011.40863        -4.73070         5.72532
     2011.41137        -5.56656         5.75867
     2011.41410        -3.95542         5.70006
     2011.41684        -5.32228         5.66367
     2011.41958        -4.11314         5.65660
     2011.42232        -6.73700         5.73846
     2011.42506        -3.30986         5.73543
     2011.42779        -8.78172         5.68389
     2011.43053       -11.71158         5.71117
     2011.43327       -11.61944         5.74048
     2011.43601       -10.15531         5.74756
     2011.43875       -13.81017         5.81729
     2011.44148       -10.45303         5.83245
     2011.44422        -6.66989         5.75261
     2011.44696        -7.50675         5.84862
     2011.44970        -4.95061         5.71319
     2011.45243       -11.61247         5.80011
     2011.45517        -4.66833         5.80819
     2011.45791        -5.58719         5.72229
     2011.46065        -3.38305         5.76373
     2011.46339       -10.72791         5.91027
     2011.46612        -4.24978         5.75867
     2012.12321         8.67860         5.73240
     2012.12595         1.44074         5.78394
     2012.12868        -3.57612         5.76373
     2012.13142        -0.25098         5.84862
     2012.13416         4.28016         5.80516
     2012.13690         5.56230         5.75261
     2012.13964        -2.89056         5.91431
     2012.14237         7.76857         5.97697
     2012.14511         8.99171         5.88298
     2012.14785        -1.97115         5.76777
     2012.15059        -4.45201         5.72229
     2012.15332         1.38513         5.71623
     2012.15606         6.24327         5.78798
     2012.15880         5.89641         5.74655
     2012.16154         3.53055         5.75564
     2012.16428        -2.07731         5.81830
     2012.16701        -1.08517         5.88500
     2012.16975        -0.93503         5.69096
     2012.17249        -1.58990         5.66569
     2012.17523         2.67024         5.64750
     2012.17797        -2.63862         5.88298
     2012.18070         5.53052         6.31756
     2012.18344        -2.34434         5.70814
     2012.18618        -4.93820         5.70612
     2012.18892        -0.70606         5.68389
     2012.19713         0.29636         5.83245
     2012.19987         2.47550         5.87793
     2012.20261        -2.13537         5.72532
     2012.21082         4.28505         5.70814
     2013.50308         0.47869         5.77383
     2013.50582        -2.03417         5.86277
     2013.50856         9.16097         5.98910
     2013.51130        -1.69789         5.70309
     2013.51404        -2.12675         5.73442
     2013.51677         4.45739         5.64649
     2013.51951        -0.95847         5.70006
     2013.52225         2.10067         5.66670
     2013.52499        -2.99719         5.95676
     2013.52773         2.75194         5.77080
     2013.53046        -0.22792         5.66771
     2013.53320        -0.67378         5.73037
     2013.53594         0.99636         5.76575
     2013.53868        -0.47850         5.78798
     2013.54141         3.84764         5.67580
     2013.54415        -1.70722         5.72734
     2013.54689        -0.87508         5.71420
     2013.54963         0.45906         5.71623
     2013.55237        -0.34780         5.67075
     2013.55510        -3.38666         5.72633
     2013.55784         2.52247         5.77484
     2013.56058        -2.31139         5.89006
     2013.56332         1.74775         5.84054
     2013.56606         2.63089         5.83750
     2013.56879        -2.97797         5.90724
     2013.57153         9.76517         5.88399
     2013.57427         9.45231         5.81325
     2013.57701         8.65545         5.75463
     2013.57974        -0.86141         5.74655
     2013.58248         8.48173         5.76878
     2013.58522         7.88887         5.75867
     2013.58796         5.92400         5.70107
     2013.59070         3.07514         5.75968
     2013.59343         3.54828         5.68894
     2013.59617         6.76842         5.66873
     2013.59891         2.53756         5.74149
     2015.48255        -2.68376         5.85165
     2015.48529        -4.67662         5.87187
     2015.48803        -5.45748         5.75463
     2015.49076       -10.00334         5.67984
     2015.49350         1.87580         5.91532
     2015.49624        -0.06606         6.01639
     2015.49898        -1.70492         5.92038
     2015.50172         1.42621         6.05075
     2015.50445        -0.84565         5.83750
     2015.50719        -3.68351         5.87187
     2015.50993         5.18863         5.87591
     2015.51267         1.19077         5.85570
     2015.51541        -0.97409         5.80819
     2015.51814         5.44405         5.78596
     2015.52088         5.65919         5.71420
     2015.52362        -0.09667         5.84155
     2015.52636         3.15247         5.88601
     2015.52909         2.50661         5.78192
     2015.53183         2.34674         5.77990
     2015.53457         5.34888         5.68995
     2015.53731         4.74302         5.79506
     2015.54005         4.77716         5.93756
     2015.54278         6.04230         6.12352
     2015.54552         9.98444         5.93352
     2015.54826         3.45358         5.84761
     2015.55100         4.25472         5.89814
     2015.55374         2.53486         5.98809
     2015.55647         4.56700         5.89814
     2015.55921         2.57014         5.86176
     2015.56195         6.04027         5.84357
     2015.56469         3.68741         5.85468
     2015.56742         8.28155         5.88197
     2015.57016         4.38869         6.08612
     2015.57290         2.77583         6.09118
     2015.57564         1.68597         5.83346
     2015.57838         2.44411         5.82538
     2015.58111         7.16125         5.87187
     2015.58385         6.35939         5.91431
     2015.58659         7.81353         6.02751
     2015.58933        -4.15634         5.90926
     2015.59206        -5.79820         6.10229
     2015.59480         4.00494         5.91836
     2015.59754        -0.06692         5.91836
     2015.60028         5.18822         6.01942
     2015.60302         5.29436         6.13868
     2015.60575         0.31950         6.04368
     2015.60849         3.72164         5.86277
     2015.61123         6.38578         5.84256
     2015.61397         4.24192         5.83346
     2015.61671        -1.58494         5.89915
     2015.61944         0.23119         5.78091
     2015.62218         3.78533         5.78192
     2015.62492        13.57147         5.76676
     2015.62766         7.86761         5.77484
     2015.63039         6.41475         5.75362
     2015.63313         7.95989         5.76979
     2015.63587         7.28903         5.80718
     2015.63861         3.33517         5.77080
     2015.64135         3.76831         5.80213
     2015.64408         0.14645         5.86984
     2015.64682        -1.15841         5.89713
     2015.64956         7.69172         5.85468
     2015.65230        -2.66314         5.79000
     2015.65504         5.90400         5.73543
     2015.65777        -0.36186         6.02548
     2015.66051        -6.10872         6.01639
     2015.66325         3.82542         5.72229
     2015.66599         8.01356         5.89814
     2015.66872        -1.73130         5.89107
     2015.67146        -7.07916         5.83144
     2015.67420        11.03598         5.89612
     2015.67694         8.82412         5.74351
     2015.67968         4.12325         5.67782
     2015.68241         3.76039         5.77889
     2015.68515         3.80553         5.73947
     2015.68789         2.30167         5.77282
     2015.69063         4.87181         5.77383
     2015.69337        -1.15505         5.89208
     2015.69610         4.79609         5.78697
     2015.69884        10.47423         5.81325
     2015.70158         5.92037         5.84862
     2015.70432         8.08051         5.92341
     2015.70705        11.97464         5.98405
     2015.70979         1.52178         5.77889
     2015.71253        -2.78608         5.78293
     2015.71527         7.98206         5.76170
     2015.71801         6.92420         5.73846
     2015.72074         5.60634         5.76878
     2015.72348         3.61648         5.78596
     2015.72622         1.85362         5.74655
     2015.72896        -1.19324         5.84155
     2015.73170         1.66290         5.79910
     2015.73443         0.48904         5.80516
     2015.73717         2.13017         5.74756
     2015.73991         8.14231         5.93655
     2015.74229         7.81730         6.97145
     2017.89186        -3.42138         5.66670
     2017.89460         2.22476         5.72633
