# ================= DQRFIT RESULTS ================
# INPUT FILE: series/GRAV.rad
# OUTPUT: LDETRENDED
# FILTER FUNCTION: f(t)
# f(t)=+line(t)
# line(t)=+P 1+P 2*t
# heav(t)=(t<0?0:1)
# TOTAL OBSERVATIONS MTOT=  187
# INITIAL TIME INTERVAL= 2018.6200 - 2006.6092 = 12.0109
# TOTAL OBSERVATIONS AFTER PREFILTER M=  187
# TIME-SPAN=    0.0000 -    0.0000 =  0.0000
# OBSERVATIONS: USED M=   187 REJECTED MTOT-M=     0 %USED=  100.0000
# N=  2 PARAMETERS
# MAXSIG= 175.00000
# MAXRES=  17.06909
# SCALE FACTOR FOR LENGTHS: SCL=  10.00000
# SCALE FACTOR FOR SIGMAS: SCLSIG=   1.00000
# CHI^2=    291.459 DOF=   185 CHI^2/DOF=   1.57545
# RMS=      7.270 SDEV=      7.290 MEAN=   -0.05093
#  P #       PARAMETER +-    SIGMA %error PARAMETER NAME
# P 1 =       726.93270 +-  356.038  48.98 YZERO                              
# P 2 =        -0.36665 +-    0.177  48.19 SLOPE                              
#       T            LDETRENDED       SIG_OBS
     2006.60918         4.76689         7.25740
     2006.61191         7.04390         7.30384
     2006.61465         9.62490         7.22602
     2006.61739        10.74090         7.18460
     2006.62013         8.98791         7.26618
     2006.62287        12.94991         7.27748
     2006.62560         6.99092         7.35906
     2006.62834         6.66692         7.34400
     2006.63108         5.56192         7.12435
     2006.63382         6.09793         7.19338
     2006.63656        11.63793         7.44065
     2006.63929         8.05294         7.23731
     2011.72622         4.90905         7.09422
     2011.72896         8.10906         7.20468
     2011.73170        10.16806         7.34275
     2011.73443         4.66106         7.17581
     2011.73717         6.48207         7.13062
     2011.73991         4.79007         7.16953
     2011.74265         4.84508         7.17204
     2011.74538         4.56108         7.35781
     2011.74812        10.59508         7.52600
     2011.75086        17.06909         7.36911
     2011.75360        14.13309         7.34149
     2014.29432        -7.64635         7.35404
     2014.29706        -9.17435         7.28124
     2014.29980        -5.57835         7.31137
     2014.30254        -3.61134         7.20844
     2014.30528        -3.92734         7.25991
     2014.30801       -11.14533         7.22602
     2014.31075         0.54367         7.31388
     2014.31349       -13.84633         7.31639
     2014.31623        -1.52532         7.26618
     2014.31896        -4.76732         7.22351
     2014.32170       -11.16532         7.38417
     2014.32444       -15.15431         7.37664
     2014.32718       -10.41931         7.38668
     2014.32992         0.02770         7.20719
     2014.33265        -4.33030         7.27999
     2014.33539        -1.08730         7.25363
     2014.33813         5.66271         7.52600
     2014.34087        -0.45529         7.46952
     2014.34361        -2.76828         7.18962
     2014.34634        -7.78328         7.28250
     2014.34908        -5.14328         7.44567
     2014.35182       -11.96427         7.53855
     2014.35456        -8.32927         7.29380
     2014.35729       -10.02327         7.25112
     2014.36003        -9.40526         7.17707
     2014.36277       -10.61926         7.21472
     2014.36551        -9.83025         7.25238
     2014.36825        -8.98825         7.38542
     2014.37098        -5.44425         7.40300
     2014.37372        -7.71924         7.40174
     2014.37646        -8.04524         7.33647
     2014.37920        -4.45623         7.40300
     2014.38193        -9.23223         7.38417
     2014.38467        -4.23123         7.48709
     2014.38741        -4.37322         7.49964
     2014.39015        -8.88222         7.34902
     2014.39289        -5.48622         7.44442
     2014.39562        -0.38621         7.46701
     2014.39836        -4.51321         7.63395
     2014.40110        -4.03120         7.58751
     2014.40384       -13.00820         7.31890
     2014.40658       -10.04020         7.33396
     2014.40931        -4.56519         7.40300
     2014.41205        -9.27819         7.33647
     2014.41479        -8.64219         7.27622
     2014.41753        -2.36918         7.39798
     2014.42026         0.47782         7.41304
     2014.42300        -8.84617         7.26618
     2014.42574        -6.17117         7.29129
     2014.42848        -8.34317         7.33898
     2014.43122       -10.63316         7.30635
     2014.43395       -10.04316         7.36785
     2014.43669        -7.32315         7.31137
     2014.43943        -8.95215         7.36785
     2014.44217        -8.87915         7.33773
     2014.44491        -8.07214         7.64650
     2014.44764        -1.13014         7.48458
     2014.45038        -6.19614         7.38668
     2014.45312        -1.66313         7.31262
     2014.45586        -0.48913         7.31011
     2014.45859        -9.02212         7.30258
     2014.46133        -5.63712         7.30133
     2014.46407        -8.63112         7.21849
     2014.46681        -3.75211         7.24359
     2014.46955       -13.34511         7.27748
     2014.47228        -2.02910         7.30007
     2014.47502        -6.02610         7.20719
     2014.47776        -7.63610         7.27246
     2014.48050         1.05791         7.29756
     2014.48324        -4.63009         7.38291
     2014.48597        -5.51109         7.33020
     2014.48871         1.83292         7.34902
     2014.49145        -3.92108         7.21598
     2014.49419        -0.06207         7.26869
     2014.49692        -8.74807         7.15573
     2014.49966        -6.35107         7.33145
     2014.50240       -10.45906         7.31513
     2014.50514        -9.23506         7.28501
     2014.50788        -8.36405         7.18460
     2014.51061        -5.40005         7.13439
     2014.51335        -2.02705         7.11556
     2014.51609         0.75196         7.30258
     2014.51883        -8.94604         7.12435
     2014.52157         1.21296         7.39295
     2014.52430        -3.62303         7.22727
     2014.52704         0.27197         7.25740
     2014.52978        -6.63002         7.31388
     2014.53252       -10.24502         7.30258
     2014.53525        -2.79202         7.29003
     2014.53799         4.95999         7.18962
     2014.54073         7.56599         7.39421
     2014.54347         3.69299         7.33898
     2014.54621         0.67100         7.33020
     2014.54894         5.90400         7.32894
     2014.55168         7.97701         7.58249
     2014.55442        -8.05399         7.26618
     2014.55716        -1.99699         7.31011
     2014.55990        -1.83198         7.37538
     2014.56263        -3.67198         7.18962
     2014.56537         0.03403         7.16200
     2014.56811        -3.64897         7.21723
     2014.57085        -2.95197         7.10929
     2015.76729         7.14971         7.14694
     2015.77003         4.59071         7.10175
     2015.77276        13.81671         7.16577
     2015.77550        16.21272         7.18334
     2015.77824        13.77472         7.53981
     2015.78098        12.27973         7.33898
     2015.78371        16.17873         7.70298
     2015.78645        14.79073         7.50341
     2015.78919        11.79374         8.27157
     2015.79193        14.06474         7.42810
     2015.79437        11.17164         8.36822
     2018.48324         2.72751         7.01138
     2018.48597        -1.75449         6.88084
     2018.48871         6.17851         7.06284
     2018.49145         5.54152         6.92729
     2018.49419         3.27852         7.00887
     2018.49692         3.81553         6.96118
     2018.49966         2.11653         6.92980
     2018.50240         5.31753         6.92603
     2018.50514         4.28254         7.11682
     2018.50788         5.38554         7.02393
     2018.51061         5.34255         6.93482
     2018.51335         6.57755         7.10301
     2018.51609         8.08755         7.00762
     2018.51883        -4.48844         6.87331
     2018.52157         2.63856         7.04276
     2018.52430         2.03556         6.88461
     2018.52704         1.91257         6.91473
     2018.52978         4.03257         6.93231
     2018.53252         7.49458         7.02895
     2018.53525        10.23058         7.16326
     2018.53799         6.48058         7.19087
     2018.54073         2.87159         6.94486
     2018.54347         4.15759         6.98126
     2018.54621         9.91760         6.94988
     2018.54894         3.55660         7.07163
     2018.55168         3.47160         7.14192
     2018.55442        -1.75939         6.97749
     2018.55716        -1.66439         6.94486
     2018.55990         2.67361         7.18460
     2018.56263         0.40662         7.03649
     2018.56537         2.01062         7.02142
     2018.56811        -1.35537         6.99381
     2018.57085        -5.24637         6.84821
     2018.57358         6.61463         7.06661
     2018.57632         0.52464         7.18083
     2018.57906         0.39564         7.35153
     2018.58180         4.10265         7.21221
     2018.58454         6.07265         7.30133
     2018.58727         5.31665         6.87206
     2018.59001         7.34166         7.00762
     2018.59275         2.44166         6.90971
     2018.59549         4.29866         6.84068
     2018.59823         2.03967         6.96118
     2018.60096         3.13867         6.82687
     2018.60370         7.89368         6.86202
     2018.60644         8.97768         6.99255
     2018.60918         7.08368         6.86704
     2018.61191         1.89469         6.89089
     2018.61465         0.43869         6.86955
     2018.61739         5.47969         6.86829
     2018.62004         7.54667         7.20844
