# ================= DQRFIT RESULTS ================
# INPUT FILE: series/GRNB.rad
# OUTPUT: LDETRENDED
# FILTER FUNCTION: f(t)
# f(t)=+line(t)+annual(t)
# line(t)=+P 1+P 2*t
# annual(t)=+P 3*sin(2*pi*t+P 4)
# heav(t)=(t<0?0:1)
# TOTAL OBSERVATIONS MTOT= 1901
# INITIAL TIME INTERVAL= 2019.9249 - 2014.6502 =  5.2747
# TOTAL OBSERVATIONS AFTER PREFILTER M= 1899
# TIME-SPAN= 2019.9249 - 2014.6502 =  5.2747
# OBSERVATIONS: USED M=  1899 REJECTED MTOT-M=     2 %USED=   99.8948
# N=  4 PARAMETERS
# MAXSIG= 175.00000
# MAXRES= 115.64268
# SCALE FACTOR FOR LENGTHS: SCL=  10.00000
# SCALE FACTOR FOR SIGMAS: SCLSIG=   1.00000
# CHI^2=   1613.346 DOF=  1895 CHI^2/DOF=   0.85137
# RMS=      9.350 SDEV=      9.285 MEAN=    1.12141
#  P #       PARAMETER +-    SIGMA %error PARAMETER NAME
# P 1 =     -6547.03520 +-  169.280   2.59 YZERO                              
# P 2 =         3.25165 +-    0.084   2.58 SLOPE                              
# P 3 =         6.04609 +-    0.167   2.76 ANNUAL AMPLITUDE                   
# P 4 =        -2.85113 +-    0.037   1.31 ANNUAL PHASE                       
#       T            LDETRENDED       SIG_OBS
     2014.65023        -5.48624         5.00010
     2014.65297         4.27385         5.13850
     2014.65571         2.19695         4.93458
     2014.65845         4.44605         4.90598
     2014.66119         5.97015         4.92720
     2014.66392         2.28024         4.92720
     2014.66666        11.72634         4.92351
     2014.66940         8.02944         4.95304
     2014.67214         6.40054         4.94658
     2014.67488        -0.97737         4.92074
     2014.67761         1.34773         4.94381
     2014.68035        -0.00617         4.93458
     2014.68309        -2.10507         5.01117
     2014.68583        -4.36498         4.90875
     2014.68856        -7.19388         4.94566
     2014.69130        -0.92578         4.96872
     2014.69404        -2.14968         4.97703
     2014.69678        -0.93559         4.90229
     2014.69952        -4.18849         4.95119
     2014.70225         0.17761         4.86077
     2014.70499         2.36471         4.83770
     2014.70773         3.25180         4.83401
     2014.71047         2.10490         4.84785
     2014.71321         3.97400         4.87461
     2014.71594         4.65410         5.07760
     2014.71868        -4.91181         4.88845
     2014.72142         2.59129         4.86723
     2014.72416         3.62539         4.94658
     2014.72689         1.12449         5.20678
     2014.72963         1.19158         4.97334
     2014.73237         1.25968         4.89583
     2014.73511        -0.08422         4.86261
     2014.73785        -4.26312         4.84877
     2014.74058         8.87797         4.97611
     2014.74332         1.54207         4.92720
     2014.74606        -1.92183         4.86815
     2014.74880        -3.34673         5.01209
     2014.75154         1.08836         5.02132
     2014.75427         6.04646         5.00932
     2014.75701         3.40856         4.92997
     2014.75975        -1.68634         4.99641
     2014.76249         0.29675         4.93735
     2014.76522        -4.35315         4.88476
     2014.76796        -5.49105         4.87369
     2014.77070        -3.89895         5.13112
     2014.77344         2.46214         5.14127
     2014.77618         4.16724         4.95673
     2014.77891        -2.28566         4.91521
     2014.78165         2.08144         4.93643
     2014.78439        10.52553         4.91059
     2014.78713         5.61263         4.89122
     2014.78987         2.10573         4.88015
     2014.79260        -0.61917         4.87461
     2014.79534         7.87992         4.97795
     2014.79808         9.12602         5.08037
     2014.80082         8.04712         5.00932
     2014.80355         2.25822         5.05546
     2014.80629         2.35831         5.00471
     2014.80903        -0.93759         4.92536
     2014.81177         1.20551         4.90137
     2014.81451         6.93161         4.87000
     2014.81724        11.50270         4.84047
     2014.81998         8.27980         4.90875
     2014.82272         6.08590         5.09052
     2014.82546         1.53199         4.90414
     2014.82820         3.29709         4.90967
     2014.83093         3.34519         4.92167
     2014.83367        -0.21571         4.83586
     2014.83641         5.95638         4.89768
     2014.83915        -3.58752         4.94289
     2014.84188         8.59458         5.18094
     2014.84462        -0.32932         5.00563
     2014.84736         5.12377         5.02409
     2014.85010        -3.95213         4.91705
     2014.85284        -1.17003         4.95396
     2014.85557         4.03007         4.99825
     2014.85831        -1.94684         5.08406
     2014.86105        -1.47274         4.94289
     2014.86379        -0.26264         4.91244
     2014.86653         3.09346         4.90506
     2014.86926         0.15155         4.93274
     2014.87200         3.72165         4.97426
     2014.87474        -1.11025         4.93366
     2014.87748        -2.25215         4.92997
     2014.88021        -5.52006         4.90967
     2014.88295        -6.60996         4.99917
     2014.88569        -4.04286         5.08775
     2014.88843        11.59924         5.22154
     2014.89117         3.65633         5.12281
     2014.89390        -5.34957         5.07853
     2014.89664         3.56853         5.11820
     2014.89938        -4.52837         5.08037
     2014.90212        -8.87728         5.10805
     2014.90485        -2.35618         4.95488
     2014.90759        -0.77708         5.07853
     2014.91033         1.79102         4.94473
     2014.91307         5.11311         4.94658
     2014.91581        -2.20679         4.91336
     2014.91854        -2.93469         4.94104
     2014.92128        -5.37259         4.88845
     2014.92402         0.79650         4.88845
     2014.92676        -2.87240         4.95304
     2014.92950        -7.96130         5.03239
     2014.93223        -3.92520         4.98072
     2014.93497        -7.43711         4.90967
     2014.93771        -4.78501         4.91982
     2014.94045        -8.72591         4.95765
     2014.94318         6.44219         5.03516
     2014.94592        -4.88972         4.89214
     2014.94866        -8.60662         4.93366
     2014.95140        -3.59252         4.87738
     2014.95414        -1.00342         4.88384
     2014.95687        -9.19633         4.92997
     2014.95961        -1.42523         4.96688
     2014.96235         2.42887         4.88753
     2014.96509        -2.39703         5.03608
     2014.96783        -6.11794         4.86815
     2014.97056        -7.56684         4.94104
     2014.97330        -8.37074         5.04623
     2014.97604        -6.92864         4.95488
     2014.97878        -0.38655         4.91244
     2014.98151         0.73755         4.92997
     2014.98425       -10.01635         4.83586
     2014.98699         4.88775         4.85800
     2014.98973        -2.75416         4.87553
     2014.99247        -6.31106         4.88476
     2014.99520        -6.39496         4.87461
     2014.99794        -1.32186         4.83862
     2015.00068       -10.51377         4.92443
     2015.00342        -6.07167         4.95119
     2015.00616       -10.97757         4.88937
     2015.00889        -2.75847         5.01670
     2015.01163        -1.89338         4.99179
     2015.01437       -16.72928         4.97611
     2015.01711       -11.69718         5.22247
     2015.01984        -1.85409         4.91705
     2015.02258         0.05001         4.98995
     2015.02532        -7.31189         4.82294
     2015.02806       -14.50079         4.84047
     2015.03080        -3.27570         4.83401
     2015.03353       -11.80260         4.87553
     2015.03627        -4.08650         4.91798
     2015.03901         6.56860         4.88291
     2015.04175        -0.21031         4.95581
     2015.04449        -8.34821         4.87922
     2015.04722         0.28189         4.82755
     2015.04996         3.64299         4.91890
     2015.05270        -5.53792         4.86077
     2015.05544         4.60918         4.83586
     2015.05817        -1.39772         4.84139
     2015.06091         1.26938         4.98810
     2015.06365         6.14147         5.15695
     2015.06639        -0.73243         4.94381
     2015.06913        -9.83033         4.89952
     2015.07186        -9.04723         4.92259
     2015.07460        -7.08514         4.91798
     2015.07734       -10.20304         4.90506
     2015.08008       -10.70894         4.99364
     2015.08282       -12.76284         4.90044
     2015.08555       -13.02575         4.85892
     2015.08829        -7.76865         4.91705
     2015.09103       -11.56855         4.92997
     2015.09377        -6.55045         4.88476
     2015.09650        -3.86736         4.98441
     2015.09924        14.43374         5.13112
     2015.10198         1.18684         4.89122
     2015.10472        -3.24506         4.84324
     2015.10746        -3.60197         4.84693
     2015.11019       -12.27987         5.01301
     2015.11293        -5.78577         4.98718
     2015.11567       -11.01967         4.86261
     2015.11841        -4.99158         5.07114
     2015.12115        -7.82448         4.86538
     2015.12388        -9.73138         4.85708
     2015.12662        -6.94528         4.86815
     2015.12936        -3.25319         4.87092
     2015.13210        -2.82109         5.03608
     2015.13483       -11.75899         4.89768
     2015.13757        -6.35789         4.85246
     2015.14031        -6.25780         4.84324
     2015.14305        -4.55870         4.88107
     2015.14579        -2.88660         4.97426
     2015.14852        -5.89350         4.95212
     2015.15126       -12.80441         4.86907
     2015.15400        -9.86031         4.86446
     2015.15674       -10.46721         4.89399
     2015.15948         1.03689         4.91890
     2015.16221        -3.78602         4.94289
     2015.16495        -1.47392         5.02409
     2015.16769         1.40218         4.89399
     2015.17043         1.95228         4.92813
     2015.17316        -0.11463         5.00010
     2015.17590        -4.93153         4.97334
     2015.17864        -5.94743         4.86169
     2015.18138         3.22067         4.88199
     2015.18412         2.32076         4.90321
     2015.18685         2.77286         4.89122
     2015.18959         8.07696         4.98902
     2015.19233         5.10306         5.05454
     2015.19507        -1.86285         4.91521
     2015.19780        -4.33975         4.85800
     2015.20054        -0.46565         4.85246
     2015.20328         0.28645         4.88660
     2015.20602        -1.03246         5.54726
     2015.20876        -3.69136         4.91982
     2015.21149        -9.99426         4.85154
     2015.21423        -5.65117         5.06930
     2015.21697        -7.44607         4.83586
     2015.21971        -4.53297         4.84047
     2015.22245        -0.42887         4.84047
     2015.22518        -2.11878         4.86631
     2015.22792        -6.20468         4.92074
     2015.23066        -3.54858         4.88476
     2015.23340        -2.95648         4.95027
     2015.23613        -4.99139         5.01025
     2015.23887        -2.46129         5.24922
     2015.24161         0.36081         5.21047
     2015.24435        -3.17809         5.22247
     2015.24709        -9.07600         5.12651
     2015.24982         0.10710         4.90137
     2015.25256        -3.63380         4.91152
     2015.25530        -0.55370         4.94197
     2015.25804        -5.82961         4.90506
     2015.26078        -1.86551         4.91705
     2015.26351        -7.13541         4.87092
     2015.26625        -3.94231         4.90044
     2015.26899        -4.17422         4.88753
     2015.27173         6.65988         5.04715
     2015.27446         8.10098         5.08498
     2015.27720         2.43008         4.89306
     2015.27994        -7.46883         4.91244
     2015.28268        -2.57273         4.90783
     2015.28542        -2.04663         5.13481
     2015.28815        -6.87453         5.12374
     2015.29089       -20.57844         4.93828
     2015.29363        -5.82834         4.92536
     2015.29637        -4.14324         4.92074
     2015.29911        -2.70714         4.87553
     2015.30184        -0.54705         4.94197
     2015.30458        -4.52395         4.89860
     2015.30732        -3.11285         4.79618
     2015.31006        -2.51475         4.77588
     2015.31279       -11.97766         4.78326
     2015.31553        -5.95356         4.86446
     2015.31827        -9.55846         4.85985
     2015.32101        -4.49236         4.92259
     2015.32375       -11.51427         4.85062
     2015.32648        -6.11317         4.89214
     2015.32922        -8.99707         4.87369
     2015.33196       -12.51997         4.78603
     2015.33470        -8.45588         4.79987
     2015.33744        -6.05678         4.79433
     2015.34017       -12.76468         4.75189
     2015.34291       -15.12458         4.82847
     2015.34565        -4.43549         4.80448
     2015.34839        -4.94439         4.82109
     2015.35112        -0.78529         4.84508
     2015.35386        -4.77619         4.82478
     2015.35660       -12.07810         4.79803
     2015.35934       -10.33800         4.82109
     2015.36208        -2.81390         4.85062
     2015.36481        -8.12480         4.78326
     2015.36755        -7.11871         4.77404
     2015.37029        -7.07261         4.79157
     2015.37303        -5.95851         4.79895
     2015.37577       -10.93941         4.85246
     2015.37850       -10.02332         4.98256
     2015.38124        -4.74222         4.80356
     2015.38398        -9.35412         4.76758
     2015.38672        -8.20402         4.77588
     2015.38945        -6.28693         4.82847
     2015.39219        -7.56283         4.78418
     2015.39493        -4.85273         4.80264
     2015.39767        -6.10863         4.79895
     2015.40041        -8.10154         4.76389
     2015.40314        -6.51744         4.91521
     2015.40588       -11.17834         4.79157
     2015.40862        -4.53725         4.82109
     2015.41136        -3.17115         4.80633
     2015.41410        -4.18405         4.80356
     2015.41683         0.69705         4.79987
     2015.41957        -2.10986         4.80541
     2015.42231         0.96224         4.81371
     2015.42505        -1.48266         5.03977
     2015.42778         1.50244         4.80633
     2015.43052         1.11553         4.85523
     2015.43326        -3.79837         4.83955
     2015.43600        -1.42027         4.81832
     2015.43874        -5.64517         4.86815
     2015.44147        -1.63008         4.98441
     2015.44421        -3.04698         4.82571
     2015.44695         2.06712         4.77404
     2015.44969        -3.08278         4.80079
     2015.45243         1.96731         4.87000
     2015.45516         2.36641         4.79064
     2015.45790         1.74351         4.90783
     2015.46064         0.07361         4.98718
     2015.46338         1.51370         4.88199
     2015.46611         2.04780         4.79433
     2015.46885         1.75890         4.79157
     2015.47159         4.31600         4.87922
     2015.47433         1.05109         5.24369
     2015.47707         0.98919         5.00010
     2015.47980         9.85929         5.04808
     2015.48254         4.03539         4.91152
     2015.48528         1.36948         4.85892
     2015.48802         3.09858         4.76573
     2015.49076         0.56268         4.80079
     2015.49349         4.75278         4.85431
     2015.49623         2.35087         4.94935
     2015.49897         1.16697         5.14219
     2015.50171         3.80307         4.84416
     2015.50444         2.86317         4.80264
     2015.50718         1.37026         4.78788
     2015.50992         7.82136         4.78326
     2015.51266         3.23946         4.85246
     2015.51540         8.81056         4.87276
     2015.51813         6.57865         4.85800
     2015.52087         5.88375         4.78788
     2015.52361        -0.21915         4.92167
     2015.52635         3.44495         4.84416
     2015.52908         1.33804         4.89860
     2015.53182         4.94814         4.83124
     2015.53456         5.19924         4.82017
     2015.53730         3.38034         4.79526
     2015.54004         8.27443         4.83309
     2015.54277         5.34753         4.88199
     2015.54551        10.04963         4.84139
     2015.54825        10.17973         5.00932
     2015.55099        11.53882         4.86446
     2015.55373        14.88892         4.85985
     2015.55646         5.59002         4.94658
     2015.55920        10.98612         4.96780
     2015.56194        13.90221         4.95581
     2015.56468        10.43031         4.88476
     2015.56741         7.29641         4.92167
     2015.57015        13.01751         5.04623
     2015.57289         2.81660         5.04623
     2015.57563         2.61070         4.94104
     2015.57837         5.12980         4.91890
     2015.58110         4.73890         4.88107
     2015.58384         6.42799         4.86815
     2015.58658        10.36109         4.97057
     2015.58932         5.90319         4.98164
     2015.59206         6.56129         4.86446
     2015.59479         7.85538         5.06930
     2015.59753        16.08348         4.95950
     2015.60027         7.79858         5.00932
     2015.60301         7.27067         5.03793
     2015.60574         1.47377         4.90875
     2015.60848         9.09387         4.90321
     2015.61122        12.96697         4.80356
     2015.61396        14.51706         4.89860
     2015.61670         4.67016         4.81094
     2015.61943         4.83326         5.03424
     2015.62217         6.63836         4.83493
     2015.62491        15.27645         4.72698
     2015.62765        11.33355         4.77311
     2015.63039        12.91365         5.00656
     2015.63312        12.24875         4.83862
     2015.63586        14.65184         4.84785
     2015.63860         6.19994         4.86354
     2015.64134         7.15304         4.82940
     2015.64407         5.04514         4.72421
     2015.64681         6.48223         4.85431
     2015.64955         4.12133         4.83862
     2015.65229         3.76343         4.93551
     2015.65503        15.86053         5.06930
     2015.65776        13.52862         4.76112
     2015.66050        10.63872         4.77773
     2015.66324        17.60182         4.99548
     2015.66598        10.28992         4.90783
     2015.66872         8.55501         4.80910
     2015.67145         6.18911         4.72329
     2015.67419         5.28621         4.74359
     2015.67693         4.79931         4.73990
     2015.67967         5.50640         4.78326
     2015.68240         7.94150         4.81648
     2015.68514         9.48560         5.00379
     2015.68788        11.67170         4.92259
     2015.69062         8.01179         4.76296
     2015.69336         5.70889         5.14311
     2015.69609        12.02099         4.86538
     2015.69883        17.18709         4.74359
     2015.70157         7.72218         4.70852
     2015.70431         5.48728         4.70114
     2015.70705         5.97038         4.71498
     2015.70978         5.55448         4.74174
     2015.71252         6.84657         4.76665
     2015.71526         7.52767         4.84139
     2015.71800         8.91477         4.89122
     2015.72073        12.65887         4.73344
     2015.72347         8.18096         4.80818
     2015.72621         4.05906         4.77496
     2015.72895        11.13016         4.89583
     2015.73169         9.76526         4.79249
     2015.73442         2.55735         4.70114
     2015.73716         7.16245         4.72236
     2015.73990         7.98155         4.82847
     2015.74264         8.63965         4.96134
     2015.74538         9.01674         4.95765
     2015.74811         0.83184         4.95857
     2015.75085        -2.00506         4.86077
     2015.75359        -2.91096         4.75927
     2015.75633         5.31613         4.73805
     2015.75906         4.39123         4.74728
     2015.76180         4.77033         4.73344
     2015.76454         3.22043         4.94566
     2015.76728         2.99652         4.74451
     2015.77002         7.46462         4.82663
     2015.77275         6.98372         4.77496
     2015.77549        12.17482         4.76758
     2015.77823         4.56391         4.97149
     2015.78097         7.76101         4.77034
     2015.78371         6.41811         4.72421
     2015.78644         7.52921         4.82663
     2015.78918        13.68130         4.85892
     2015.79192         9.16740         4.85154
     2015.79466         5.99150         4.83586
     2015.79739        13.72759         4.76665
     2015.80013         4.11269         4.75558
     2015.80287         5.20479         4.80356
     2015.80561         7.22589         4.76758
     2015.80835         5.00898         4.79341
     2015.81108         2.32808         4.72698
     2015.81382         4.41118         4.76296
     2015.81656        -0.88372         4.75097
     2015.81930         0.78737         4.74728
     2015.82203         8.24547         4.85800
     2015.82477         4.51557         4.78788
     2015.82751        16.79267         4.88937
     2015.83025        10.03276         4.78788
     2015.83299         7.32086         4.72513
     2015.83572         6.59296         4.75835
     2015.83846         5.72406         4.86261
     2015.84120         0.40815         4.75466
     2015.84394         2.37725         4.80541
     2015.84668        -2.46265         4.89030
     2015.84941         2.72745         4.95212
     2015.85215         1.69254         4.88384
     2015.85489         1.68264         4.87276
     2015.85763        -0.31326         4.83124
     2015.86036         8.18784         4.87738
     2015.86310         6.04093         4.85523
     2015.86584        11.74603         4.90229
     2015.86858        -3.09487         4.88937
     2015.87132         0.57723         4.83401
     2015.87405        -5.03468         4.89768
     2015.87679         7.06342         4.87830
     2015.87953         5.37952         4.89306
     2015.88227        -0.44638         4.88660
     2015.88501        -6.82929         4.82202
     2015.88774        -0.36019         4.89675
     2015.89048         4.85791         4.85523
     2015.89322         4.80501         4.85985
     2015.89596         2.28710         4.87092
     2015.89869         0.18220         4.91982
     2015.90143        -6.16270         4.90414
     2015.90417        -3.83760         4.89306
     2015.90691        -2.97251         4.85154
     2015.90965        -2.04641         4.83586
     2015.91238         3.56169         4.87738
     2015.91512        -5.37221         4.87184
     2015.91786         4.44888         4.91705
     2015.92060         7.54098         4.86631
     2015.92334         3.82608         4.92443
     2015.92607        -4.02782         4.79526
     2015.92881        -4.23773         4.80633
     2015.93155         3.04337         4.93182
     2015.93429         3.86047         4.89768
     2015.93702         3.69357         4.92167
     2015.93976        10.22566         4.98256
     2015.94250         6.66876         4.99179
     2015.94524         1.09186         4.86538
     2015.94798         4.74096         4.88384
     2015.95071         7.90705         4.73897
     2015.95345         7.72315         4.76296
     2015.95619         1.89325         4.73159
     2015.95893        -3.44165         4.84231
     2015.96167         5.91544         4.83678
     2015.96440         0.83854         4.72790
     2015.96714         2.28164         5.10713
     2015.96988        -2.96026         4.83493
     2015.97262         7.50983         4.79064
     2015.97535         4.50593         4.74451
     2015.97809         3.23503         4.74912
     2015.98083        -1.60587         4.74266
     2015.98357        -9.26978         4.78788
     2015.98631        -5.58068         4.76019
     2015.98904        -4.08358         4.73805
     2015.99178        -4.36649         4.75466
     2015.99452        -3.50239         4.75374
     2015.99726         1.41171         4.75743
     2016.00000        -3.06919         4.83955
     2016.00273        -1.48910         4.74912
     2016.00547        -1.88700         4.74820
     2016.00821        -5.10090         4.78972
     2016.01095        -0.13580         4.76665
     2016.01368        -3.58271         4.77680
     2016.01642        -2.92261         4.83124
     2016.01916        -0.10051         4.91429
     2016.02190         1.38359         4.91336
     2016.02464         1.40468         4.79064
     2016.02737         1.41178         4.78418
     2016.03011         0.50088         4.78326
     2016.03285         4.23598         4.78326
     2016.03559        -0.77493         4.78511
     2016.03833        -4.20983         4.89768
     2016.04106        -6.90173         4.80633
     2016.04380         9.02537         4.75189
     2016.04654         3.11046         4.81371
     2016.04928         2.31656         4.75466
     2016.05201        -2.43734         4.89399
     2016.05475         1.15876         4.80541
     2016.05749        -0.77215         4.78788
     2016.06023         1.12495         4.73159
     2016.06297        -5.60695         4.73344
     2016.06570         2.05815         4.85616
     2016.06844        -0.54776         4.98626
     2016.07118         0.21034         4.96227
     2016.07392         8.63744         4.89214
     2016.07666         7.12754         4.98072
     2016.07939         5.69863         4.83955
     2016.08213         5.35373         4.92074
     2016.08487        -2.71517         4.87645
     2016.08761        -4.08707         4.89583
     2016.09034        -2.08898         4.87369
     2016.09308        -0.82988         4.88476
     2016.09582        -1.27278         4.85246
     2016.09856       -12.25068         4.91336
     2016.10130       -11.00759         4.91059
     2016.10403       -12.93949         4.88660
     2016.10677        -8.39939         4.87553
     2016.10951        -8.57029         4.86631
     2016.11225        -7.45820         4.93366
     2016.11498        -0.51310         4.92997
     2016.11772        -4.78000         4.87553
     2016.12046       -10.15890         4.90044
     2016.12320        -5.61581         4.91336
     2016.12594        -7.10071         4.89306
     2016.12867         0.78039         4.88753
     2016.13141        -5.56551         4.88937
     2016.13415         5.92658         4.88568
     2016.13689         1.45468         4.88476
     2016.13963        -5.55022         4.82847
     2016.14236       -17.25812         4.84877
     2016.14510        -8.57503         4.81556
     2016.14784        -7.75493         4.89952
     2016.15058        -3.11083         4.87645
     2016.15331        -1.75773         4.92905
     2016.15605        -6.16564         4.84231
     2016.15879        -3.57454         4.93182
     2016.16153        -6.19244         4.88660
     2016.16427         2.50966         4.83217
     2016.16700         0.39375         4.83401
     2016.16974        -1.42315         4.85616
     2016.17248         0.46095         4.93089
     2016.17522        -3.80795         4.87553
     2016.17796         2.32414         4.92259
     2016.18069         3.20624         4.96411
     2016.18343         0.30434         5.06561
     2016.18617        -5.69357         4.89030
     2016.18891        -1.58847         4.82940
     2016.19164        -2.41437         4.83493
     2016.19438         6.89473         4.81187
     2016.19712        -1.20118         4.79433
     2016.19986        -2.59508         4.97149
     2016.20260       -13.30798         4.99271
     2016.20533       -14.68688         5.09975
     2016.20807        -7.77979         4.95765
     2016.21081        -5.96469         4.93458
     2016.21355        -4.40259         4.92259
     2016.21629        -5.67349         4.83493
     2016.21902        -3.60640         4.79895
     2016.22176        -0.27730         4.79249
     2016.22450        -2.81020         4.78511
     2016.22724        -6.40410         4.78234
     2016.22997        -9.68001         4.80172
     2016.23271        -3.08891         4.80172
     2016.23545        -2.09381         4.78418
     2016.23819         2.45229         4.76389
     2016.24093        -2.05162         4.96134
     2016.24366        -5.04252         4.79895
     2016.24640        -2.77342         4.80633
     2016.24914        -3.91432         4.80356
     2016.25188         5.54777         4.98164
     2016.25462        -3.62013         4.75281
     2016.25735         1.04597         4.79895
     2016.26009        -2.60493         4.83032
     2016.26283        -6.72684         4.84047
     2016.26557        -0.10374         4.82386
     2016.26830         1.09436         4.91982
     2016.27104         1.52746         4.83493
     2016.27378        -2.87645         4.78880
     2016.27652        -7.52235         4.85431
     2016.27926         1.52075         4.87553
     2016.28199        -3.19015         4.83678
     2016.28473        -1.66106         4.82663
     2016.28747        -5.43996         4.85062
     2016.29021        -3.74786         4.86446
     2016.29295        -1.33676         4.87369
     2016.29568        -0.22667         4.84508
     2016.29842        -4.66257         5.01947
     2016.30116        -1.35247         5.03239
     2016.30390        -8.63237         4.86907
     2016.30663         1.18872         4.87369
     2016.30937        -2.81918         4.86815
     2016.31211        -0.33608         4.85616
     2016.31485        -2.21198         4.84970
     2016.31759         1.00611         4.85431
     2016.32032        -4.39979         4.89122
     2016.32306       -11.26569         4.88015
     2016.32580        -2.14859         4.87461
     2016.32854        -4.38350         4.89030
     2016.33128        -2.08740         4.88568
     2016.33401         6.43770         4.98810
     2016.33675         1.26980         4.95581
     2016.33949        -2.40011         4.94104
     2016.34223        -7.94801         4.93274
     2016.34496        -2.24691         5.09421
     2016.34770         7.95019         4.95950
     2016.35044         5.82928         5.05638
     2016.35318        -8.07462         4.87645
     2016.35592        -7.77852         4.83678
     2016.35865       -11.29442         4.87553
     2016.36139         0.14067         4.87461
     2016.36413         2.09577         4.83770
     2016.36687         0.27987         4.84508
     2016.36961        10.68197         4.84601
     2016.37234         5.35406         4.87645
     2016.37508         1.27516         4.90506
     2016.37782        -3.43274         4.87830
     2016.38056        -6.39265         4.93182
     2016.38329        -2.46755         4.85892
     2016.38603        -1.66245         4.85339
     2016.38877        11.50465         4.87184
     2016.39151         3.44974         4.85800
     2016.39425         1.13084         4.85154
     2016.39698        12.53894         4.89491
     2016.39972        12.54204         4.88015
     2016.40246         2.37813         4.91429
     2016.40520         1.86423         4.98533
     2016.40794         0.23833         4.84508
     2016.41067        -0.36857         4.94289
     2016.41341        -0.65548         4.87369
     2016.41615        -0.84538         4.88384
     2016.41889         1.00572         4.84785
     2016.42162         9.77982         4.93458
     2016.42436        -1.35509         4.87461
     2016.42710         0.37701         4.87645
     2016.42984         0.12611         4.90229
     2016.43258         1.05021         4.85616
     2016.43531         3.60330         4.85985
     2016.43805         7.87640         4.85339
     2016.44079         0.84250         4.86169
     2016.44353        -0.33040         4.87645
     2016.44626         1.24969         4.95119
     2016.44900         1.29479         4.83678
     2016.45174         7.03789         4.85800
     2016.45448         7.76899         4.85800
     2016.45722         5.34508         4.83770
     2016.45995         2.83318         4.86169
     2016.46269         2.27728         4.82847
     2016.46543         4.48038         4.85892
     2016.46817         1.65247         4.86815
     2016.47091         6.79157         4.90967
     2016.47364         3.66867         4.89491
     2016.47638         3.12877         4.84231
     2016.47912         1.67286         4.97518
     2016.48186         6.64996         4.92536
     2016.48459         0.19806         4.87000
     2016.48733         1.21416         4.86446
     2016.49007         0.37325         4.85339
     2016.49281         0.52435         4.87369
     2016.49555         3.45345         4.87645
     2016.49828         2.98855         4.89768
     2016.50102         4.88764         4.90783
     2016.50376         3.25274         4.91613
     2016.50650         5.75984         4.92813
     2016.50924         3.74594         4.85339
     2016.51197         1.31403         4.87184
     2016.51471         4.65913         4.85616
     2016.51745         7.45423         5.04900
     2016.52019         1.31633         4.86631
     2016.52292         2.29642         4.88107
     2016.52566        11.88952         4.92351
     2016.52840         8.36262         4.85339
     2016.53114        -1.59628         4.88199
     2016.53388         5.46681         4.90137
     2016.53661         0.68491         4.89122
     2016.53935         4.25901         4.84970
     2016.54209         1.53311         4.85800
     2016.54483         8.06020         4.84508
     2016.54757         0.87130         4.90598
     2016.55030         4.29340         5.02409
     2016.55304         4.25450         4.87000
     2016.55578         8.45759         4.98072
     2016.55852         6.94269         4.98164
     2016.56125         5.65279         4.93920
     2016.56399         8.66889         4.86169
     2016.56673         4.60198         4.96965
     2016.56947         2.80808         4.92074
     2016.57221         4.28618         4.87922
     2016.57494         3.67127         4.95857
     2016.57768        17.14337         4.84601
     2016.58042         4.82547         4.80079
     2016.58316         2.77757         4.83678
     2016.58590         3.61666         4.84785
     2016.58863         5.41476         5.09790
     2016.59137         8.90986         4.87922
     2016.59411         9.96496         4.84693
     2016.59685         8.79905         4.81187
     2016.59958         4.88915         4.85523
     2016.60232         7.83425         4.85246
     2016.60506         4.33135         4.89952
     2016.60780         7.99944         4.84047
     2016.61054         8.85054         4.88291
     2016.61327         3.10864         4.85523
     2016.61601         4.02974         4.83124
     2016.61875         3.28383         4.88568
     2016.62149        -0.49807         4.93458
     2016.62423         7.08103         4.93366
     2016.62696         2.73313         4.83032
     2016.62970         9.05622         4.85985
     2016.63244        -1.15668         5.21139
     2016.63518        11.28242         4.85062
     2016.63791        17.87152         4.89675
     2016.64065         9.06461         4.84231
     2016.64339         1.17071         4.86077
     2016.64613         2.89081         4.84324
     2016.64887         1.43591         4.84416
     2016.65160         8.01200         4.95119
     2016.65434         9.46710         4.90414
     2016.65708         1.81820         4.85892
     2016.65982         4.74430         4.89122
     2016.66256         4.00639         4.84139
     2016.66529         3.72049         4.91429
     2016.66803         7.06059         4.84416
     2016.67077         3.47069         4.92536
     2016.67351         5.96978         4.82202
     2016.67624         5.42888         4.85800
     2016.67898         6.98998         4.82571
     2016.68172        10.07208         4.86907
     2016.68446         6.22717         5.08222
     2016.68720        10.85027         5.20217
     2016.68993         9.98137         5.13481
     2016.69267        13.01647         4.89030
     2016.69541         9.58156         4.85431
     2016.69815         4.37166         4.82755
     2016.70089         4.90476         4.83401
     2016.70362         7.86686         5.09606
     2016.70636        -2.11105         5.17633
     2016.70910         5.02805         5.15880
     2016.71184        16.04915         4.93458
     2016.71457        10.95325         4.84693
     2016.71731         8.11234         4.88107
     2016.72005         5.08644         4.83401
     2016.72279         4.13954         4.77311
     2016.72553         2.52964         5.07207
     2016.72826         8.33773         5.04254
     2016.73100         1.72583         4.84047
     2016.73374         9.85793         4.96042
     2016.73648         1.31003         4.95857
     2016.73921         6.54812         4.81648
     2016.74195        -3.18878         4.83401
     2016.74469         0.63232         4.82663
     2016.74743        -2.29358         4.86077
     2016.75017         7.46051         4.86261
     2016.75290         3.43761         4.82202
     2016.75564         9.98971         4.81648
     2016.75838        10.40981         4.79064
     2016.76112         2.97890         4.85616
     2016.76386         6.58900         4.85339
     2016.76659         6.34910         4.84785
     2016.76933         7.47919         4.82755
     2016.77207         3.14829         4.79987
     2016.77481         6.24439         4.81463
     2016.77754         4.71049         4.82940
     2016.78028         2.85458         4.88476
     2016.78302         6.56868         4.91982
     2016.78576         8.83678         4.82294
     2016.78850         9.85188         4.82109
     2016.79123         9.14197         4.84139
     2016.79397        10.27107         4.79618
     2016.79671         6.90917         4.81094
     2016.79945         3.76327         4.84231
     2016.80219         1.50636         4.88107
     2016.80492         4.21246         4.82755
     2016.80766        10.29156         4.85062
     2016.81040         3.80866         4.83862
     2016.81314         1.57375         4.79157
     2016.81587        -2.08815         4.93920
     2016.81861        -1.63705         4.85339
     2016.82135         5.80705         4.85431
     2016.82409         2.77714         4.80079
     2016.82683         2.89524         4.82755
     2016.82956         3.09834         4.81002
     2016.83230         0.24144         4.82294
     2016.83504         6.17653         4.83032
     2016.83778         6.48363         4.89675
     2016.84052        -3.38027         4.94012
     2016.84325        -0.36517         4.94658
     2016.84599         3.85192         4.88660
     2016.84873         6.86602         4.86354
     2016.85147         3.58512         4.84877
     2016.85420         1.71722         4.85339
     2016.85694         2.38631         4.88753
     2016.85968        -0.74859         4.90783
     2016.86242         4.65751         4.91890
     2016.86516         2.66661         4.84231
     2016.86789         7.75770         4.93458
     2016.87063         7.17380         4.85523
     2016.87337         9.40490         4.81832
     2016.87611         5.50800         4.85985
     2016.87885         3.67909         4.86723
     2016.88158         2.19619         4.86907
     2016.88432         2.89029         4.89952
     2016.88706         6.74339         4.89214
     2016.88980         0.71248         4.96134
     2016.89253         5.69258         4.88015
     2016.89527       -13.86532         4.89860
     2016.89801         8.88578         4.86631
     2016.90075         2.06287         4.82755
     2016.90349         2.06897         4.95119
     2016.90622         6.39107         4.89306
     2016.90896         5.47817         4.81740
     2016.91170         4.19326         4.83217
     2016.91444         6.91236         4.82478
     2016.91718         2.92346         4.99548
     2016.91991        -0.44944         5.10897
     2016.92265         4.47965         4.86261
     2016.92539         0.50975         4.88660
     2016.92813        -6.14315         4.84416
     2016.93086        -6.47705         4.81925
     2016.93360        -4.18896         4.87738
     2016.93634        -2.31386         4.85800
     2016.93908        -5.27176         5.03977
     2016.94182         1.90834         4.84324
     2016.94455        -0.88257         4.79157
     2016.94729        -1.85547         4.86261
     2016.95003        -0.77437         4.84970
     2016.95277        -2.77827         4.79433
     2016.95551        -3.31218         4.84416
     2016.95824         0.43592         4.84970
     2016.96098        -2.54798         4.85800
     2016.96372        -0.56789         4.82478
     2016.96646         9.84321         4.86907
     2016.96919         6.31231         4.89952
     2016.97193         1.85541         4.84416
     2016.97467         4.32650         4.82202
     2016.97741         6.35860         4.88476
     2016.98015         0.59870         4.80079
     2016.98288         0.22380         4.84508
     2016.98562        -0.37611         4.92628
     2016.98836         7.05799         4.85708
     2016.99110         0.78909         4.83309
     2016.99384         5.36619         4.87369
     2016.99657         2.46428         4.85616
     2016.99931         3.85938         4.95304
     2017.00205         0.59248         4.88384
     2017.00479        -1.58142         4.85800
     2017.00752        -2.20433         4.87092
     2017.01026        -7.18023         4.88845
     2017.01300         5.14487         4.93551
     2017.01574         0.06297         4.92167
     2017.01848        -7.82094         4.88384
     2017.02121         2.39516         4.89399
     2017.02395         4.03526         4.92443
     2017.02669         1.41736         4.96319
     2017.02943         0.99045         4.83124
     2017.03216        -1.31645         4.84601
     2017.03490        -6.40835         4.86723
     2017.03764        -2.17425         4.87830
     2017.04038        -0.99016         4.87184
     2017.04312         1.87294         4.87645
     2017.04585         8.01604         5.10344
     2017.04859        14.12114         5.06838
     2017.05133         9.54423         4.81279
     2017.05407         4.84633         4.89860
     2017.05681         5.38543         4.81556
     2017.05954        -0.36747         4.82663
     2017.06228         2.23362         4.85154
     2017.06502         0.46072         4.80725
     2017.06776        -4.01518         4.85062
     2017.07049        -3.80308         4.83124
     2017.07323        -2.03499         4.81279
     2017.07597        -1.34189         4.84785
     2017.07871        -0.36979         4.86631
     2017.08145        -5.33569         4.84601
     2017.08418       -11.33360         4.85062
     2017.08692        -8.70550         4.82755
     2017.08966        -8.73540         4.82386
     2017.09240        -7.16730         4.85800
     2017.09514         4.22579         4.83217
     2017.09787        -2.12711         4.83493
     2017.10061        -1.12101         4.87738
     2017.10335        -7.00691         4.78511
     2017.10609        -5.17682         4.81740
     2017.10882         3.13828         4.83124
     2017.11156         1.89338         4.81094
     2017.11430         0.44348         4.80356
     2017.11704        -9.87843         4.83862
     2017.11978        -7.84533         4.85431
     2017.12251        -2.03023         4.87092
     2017.12525         3.79387         4.87000
     2017.12799         8.32496         4.83032
     2017.13073        -1.67594         4.81832
     2017.13347         0.21816         4.84139
     2017.13620        -0.17174         4.84877
     2017.13894        -2.85065         4.84139
     2017.14168        -5.02355         4.87184
     2017.14442        -3.24545         4.86446
     2017.14641        -4.36394         7.83831
     2017.14989        -9.42326         4.85062
     2017.15263        -3.70716         4.89491
     2017.15537        -2.58306         4.83401
     2017.15811         1.88803         4.94381
     2017.16084        -2.38687         4.85246
     2017.16358        -9.30677         4.84139
     2017.16632        -5.77367         4.91429
     2017.16906        -3.77058         4.92536
     2017.17180        -3.74648         4.85985
     2017.17453        -5.55738         4.84693
     2017.17727        -2.39728         4.92259
     2017.18001        -3.94819         4.94381
     2017.18275        -2.02209         4.85246
     2017.18548       -11.97399         4.84416
     2017.18822        -8.58889         4.85062
     2017.19096        -7.99980         4.88753
     2017.19370        -3.11170         4.90967
     2017.19644        -4.20860         5.00656
     2017.19917        -2.84150         4.91336
     2017.20191         0.64459         4.87092
     2017.20465        -6.73831         4.89952
     2017.20739        -5.02521         4.86723
     2017.21013        -0.35811         4.91429
     2017.21286        -6.02902         4.87830
     2017.21560        -6.96992         4.87184
     2017.21834        -2.26282         4.88015
     2017.22073        -6.09161         5.79915
     2017.22273         1.22790        12.88823
     2017.22655       -14.98753         5.02040
     2017.22929        -7.26643         4.92813
     2017.23203        -8.39333         4.87369
     2017.23477        -2.19824         4.96596
     2017.23750        -6.15614         4.89214
     2017.24024        -9.37304         4.92074
     2017.24298       -10.74694         4.93089
     2017.24572        -6.93385         4.90321
     2017.24846       -10.74075         4.89030
     2017.25119       -18.75965         4.87369
     2017.25393       -13.95155         4.88291
     2017.25667       -10.71746         4.92443
     2017.25941        -4.89136         4.95488
     2017.26214        -5.20126         4.85339
     2017.26488        -3.86716         4.86538
     2017.26762        -5.76307         4.89122
     2017.27036        -5.95697         4.88107
     2017.27310       -12.60087         4.87461
     2017.27583       -11.89577         4.81094
     2017.27857       -12.17368         4.86261
     2017.28131       -14.20158         4.86723
     2017.28405       -14.78348         4.82847
     2017.28679       -14.18338         4.88291
     2017.28952        -8.60529         4.88660
     2017.29226       -11.18119         4.88384
     2017.29500       -12.76409         4.90044
     2017.29774       -10.42699         4.86446
     2017.30047       -10.07690         4.87276
     2017.30321        -7.27780         4.89768
     2017.30595        -8.01970         4.89675
     2017.30869        -8.50060         4.84877
     2017.31143       -10.61651         4.85062
     2017.31416       -12.49841         4.87830
     2017.31690        -3.32231         4.87000
     2017.31964        -3.60021         4.90598
     2017.32238        -9.86312         4.94104
     2017.32512       -10.27302         4.83955
     2017.32785        -4.39392         4.84785
     2017.33059        -8.00882         4.83586
     2017.33333        -5.94773         4.86261
     2017.33607        -6.52563         4.92720
     2017.33880       -10.29453         4.87738
     2017.34154        -1.29543         4.94843
     2017.34428        -6.51734         4.82571
     2017.34702        -8.80524         4.85431
     2017.34976        -2.16114         4.85154
     2017.35249        -4.12505         4.85154
     2017.35523        -5.83795         4.85431
     2017.35797        -8.20485         4.83401
     2017.36071        -7.21375         4.83770
     2017.36344        -4.75266         4.86446
     2017.36618        -1.46656         4.83401
     2017.36892         1.88554         4.84785
     2017.37166        -5.90936         4.83401
     2017.37440        -6.89327         4.83770
     2017.37713        -6.50217         4.87830
     2017.37987       -13.20407         4.97887
     2017.38261        -9.11397         4.86907
     2017.38535        -4.69588         4.96227
     2017.38809        -4.84578         4.85154
     2017.39082        -2.55068         4.87369
     2017.39356        -0.21758         4.87092
     2017.39630         0.53351         4.92905
     2017.39904        -0.27639         4.86723
     2017.40177        -5.59529         4.85708
     2017.40451        -5.17619         5.11082
     2017.40725        -5.80210         4.90137
     2017.40999        -2.86400         4.86815
     2017.41273        -0.83390         4.86077
     2017.41546        -2.03680         4.82294
     2017.41820        -1.99971         4.99179
     2017.42094        -6.66061         4.87738
     2017.42368        -6.33751         4.91613
     2017.42642        -3.59441         4.86538
     2017.42915        -1.42332         4.85154
     2017.43189        -2.19822         4.90783
     2017.43463        -2.92412         4.87184
     2017.43737         1.70498         4.87184
     2017.44010        -2.68393         4.84508
     2017.44284         3.31817         4.89122
     2017.44558         2.83627         4.85800
     2017.44832        -0.34963         4.85246
     2017.45106         1.36546         4.90414
     2017.45379         4.17256         4.94381
     2017.45653         3.18766         5.03977
     2017.45927         1.66076         4.85339
     2017.46201        -0.43415         4.89675
     2017.46475        -0.08805         5.00286
     2017.46748         0.87005         4.87922
     2017.47022         0.35915         4.83217
     2017.47296        -0.96376         4.83770
     2017.47570        -7.25966         4.89675
     2017.47843        -3.11156         4.94566
     2017.48117         2.22054         4.93366
     2017.48391        -2.85437         4.87184
     2017.48665         5.17273         4.87738
     2017.48939         1.15583         4.88107
     2017.49212        -1.87007         4.93458
     2017.49486        -8.31698         5.00563
     2017.49760         1.42612         5.01209
     2017.50034         4.36322         4.88107
     2017.50308         4.25032         4.86723
     2017.50581         1.01041         4.90783
     2017.50855        -0.30149         4.89860
     2017.51129        -5.89239         4.97518
     2017.51403        -4.82029         4.92351
     2017.51676        -2.53320         4.94197
     2017.51950        -0.34210         4.90967
     2017.52224         0.42100         4.86446
     2017.52498        -1.70690         4.86723
     2017.52772        -2.16181         5.00010
     2017.53045        -2.72471         4.90690
     2017.53319        -3.47561         4.87738
     2017.53593         5.12849         4.93366
     2017.53867         2.11658         4.88845
     2017.54141         5.61568         4.85431
     2017.54414        -0.90722         4.84693
     2017.54688         0.88087         4.89860
     2017.54962         1.21597         4.85892
     2017.55236         2.05407         4.89768
     2017.55509        11.52017         4.96319
     2017.55783         1.65126         4.90137
     2017.56057        -3.94164         4.87000
     2017.56331        -2.38054         4.92905
     2017.56605         1.94856         4.97703
     2017.56878        -3.46535         4.84231
     2017.57152         3.50875         4.87645
     2017.57426         4.70485         5.00194
     2017.57700         2.10595         4.91982
     2017.57974        -6.20596         4.94197
     2017.58247         0.33614         4.87276
     2017.58521        -2.74376         4.92813
     2017.58795        -5.16466         5.04808
     2017.59069        -1.19957         5.00656
     2017.59342         2.70753         4.88753
     2017.59616         0.40763         4.93551
     2017.59890         1.34373         4.91152
     2017.66584        13.26306        20.98490
     2017.66735         4.57516         4.99456
     2017.67008         3.69026         4.86538
     2017.67282         1.19836         5.02962
     2017.67556         3.14246         4.90137
     2017.67830         6.74255         4.95119
     2017.68104         0.14965         4.93920
     2017.68377         5.59675         5.20863
     2017.68651         6.49185         5.22247
     2017.68925         5.39294         4.88753
     2017.69199         9.19904         4.89122
     2017.69472         5.00614         4.95212
     2017.69746         4.57224         4.98349
     2017.70020         0.95133         4.89583
     2017.70294         2.51043         4.96042
     2017.70568        -3.65047         4.90044
     2017.70841         2.16563         4.93920
     2017.71115         2.81572         5.03147
     2017.71389         4.21582         4.87184
     2017.71663         5.10192         4.85339
     2017.71937         3.15402         4.90875
     2017.72210         1.46411         4.90967
     2017.72484         4.32921         4.91982
     2017.72758         6.79031         4.91244
     2017.73032         3.66941         4.88476
     2017.73305         4.21350         4.89030
     2017.73579        10.24960         5.10621
     2017.73853         2.35770         5.05177
     2017.74127         2.10179         4.97611
     2017.74401         9.04289         4.85523
     2017.74674         2.85399         4.86446
     2017.74948         0.28209         4.90598
     2017.75222        -0.89382         4.92074
     2017.75496        -0.84072         4.93366
     2017.75770        -1.64562         5.01947
     2017.76043         2.04748         4.88291
     2017.76317         7.03057         4.98810
     2017.76591        11.26967         4.88015
     2017.76865         8.01777         4.94289
     2017.77138         6.21887         4.96688
     2017.77412         1.44296         4.84601
     2017.77686        -4.18994         4.87000
     2017.77960        -3.08484         4.82663
     2017.78234        -5.92974         4.87645
     2017.78507         3.12935         4.85985
     2017.78781         6.79145         4.92997
     2017.79055         4.29855         4.92259
     2017.79329         7.85865         4.90690
     2017.79603         6.19074         4.89306
     2017.79876        15.17284         5.07207
     2017.80150        10.68594         5.00379
     2017.80424        10.32104         4.92536
     2017.80698        11.28613         4.86354
     2017.80971         8.74923         4.88845
     2017.81245        -0.77467         4.99825
     2017.81519         7.73643         4.93828
     2017.81793        -8.41548         4.95857
     2017.82067        -1.15638         4.99271
     2017.82340         1.37072         4.94197
     2017.82614        -0.33618         4.89768
     2017.82888         1.77391         4.90229
     2017.83162         8.86101         5.10067
     2017.83436         7.89711         4.89952
     2017.83709        -4.35479         5.09790
     2017.83983        -6.01170         4.88476
     2017.84257         1.85340         4.84139
     2017.84531        -0.85750         4.85708
     2017.84804        -6.04340         4.86077
     2017.85078        -8.47531         4.96319
     2017.85352         8.15379         4.86169
     2017.85626         2.58489         4.98164
     2017.85900         2.99699         5.00102
     2017.86173         9.26508         4.95304
     2017.86447         5.94118         4.89399
     2017.86721        -0.09672         4.83309
     2017.86995         1.97838         4.85892
     2017.87269         6.46247         4.84416
     2017.87542         5.08557         4.87092
     2017.87816         5.61667         4.86723
     2017.88090         5.52077         4.89583
     2017.88364         0.35386         4.85431
     2017.88637         2.81996         4.87184
     2017.88911         6.65606         4.90598
     2017.89185         2.12316         4.98810
     2017.89459         9.75525         4.92536
     2017.89733         8.89035         4.84231
     2017.90006         4.22645         4.84139
     2017.90280        -1.05645         4.81740
     2017.90554         5.71464         4.87738
     2017.90828        11.31974         4.87184
     2017.91102         8.22784         5.01486
     2017.91375         8.47594         4.94104
     2017.91649        -2.53997         4.83217
     2017.91923         1.12713         4.83678
     2017.92197        -2.80877         4.86261
     2017.92470        -3.84667         4.85892
     2017.92744        -2.39458         4.86446
     2017.93018        -5.20048         4.83955
     2017.93292         0.27762         4.84324
     2017.93566        -1.61929         4.91613
     2017.93839         3.51081         4.98902
     2017.94113        -3.52209         4.90321
     2017.94387         0.65801         4.91982
     2017.94661         2.84610         4.94935
     2017.94935         3.18620         4.83770
     2017.95208        -1.58570         5.07945
     2017.95482         2.19740         4.87092
     2017.95756         4.01249         4.90414
     2017.96030         1.33259         4.90690
     2017.96303        -4.84831         4.87645
     2017.96577         0.37779         4.91890
     2017.96851        -0.32612         4.86261
     2017.97125        -9.83502         4.85246
     2017.97399        -3.05692         4.87738
     2017.97672        -2.35582         4.87276
     2017.97946        -3.06473         4.87000
     2017.98220        -4.20263         4.82571
     2017.98494        -6.46853         4.82940
     2017.98767       -10.22643         4.86631
     2017.99041        -2.87934         4.84231
     2017.99315        -4.76824         4.81463
     2017.99589        -2.49014         4.82017
     2017.99863        -6.14004         4.84970
     2018.00136        -2.58295         4.86631
     2018.00410       -12.83785         4.93828
     2018.00684        -3.59875         4.89030
     2018.00958        -3.57965         4.83586
     2018.01232        -2.06456         4.91429
     2018.01505        -0.90246         4.87184
     2018.01779        -0.98336         4.82478
     2018.02053        -5.69626         4.85431
     2018.02327        -2.32617         4.88384
     2018.02600        -2.18807         4.90229
     2018.02874        -1.61897         4.90229
     2018.03148        -5.94287         4.83586
     2018.03422        -7.01578         4.84877
     2018.03696       -15.73868         4.87738
     2018.03969        -7.63758         4.99733
     2018.04243        -5.66848         4.94104
     2018.04517        -7.04739         4.85339
     2018.04791        -1.43429         4.92074
     2018.05065        -2.64119         4.84785
     2018.05338        -2.27409         4.87645
     2018.05612        -7.06400         4.92536
     2018.05886        -4.19890         4.91613
     2018.06160        -4.48480         4.84970
     2018.06433        -3.75670         4.94104
     2018.06707        -3.44561         4.91429
     2018.06981        -6.92751         4.95765
     2018.07255        -4.80741         4.93735
     2018.07529       -14.18731         4.93458
     2018.07802        -7.26122         4.97426
     2018.08076        -0.29012         4.92443
     2018.08350        -5.98002         4.94381
     2018.08624       -12.39492         4.96688
     2018.08898        -6.81283         5.01209
     2018.09171        -8.25373         4.95765
     2018.09719        -9.45053         5.08406
     2018.09993        -7.04044         4.95673
     2018.10266        -4.84534         5.00286
     2018.10540        -8.79424         5.05546
     2018.10814        -9.26414         4.92720
     2018.11088        -7.79305         4.95765
     2018.11362        -8.76195         4.93458
     2018.11635       -12.58385         4.94566
     2018.11909        -1.31776         5.07853
     2018.12183        -7.76266         5.05730
     2018.12457        -9.17756         4.94381
     2018.12731       -15.99546         4.94289
     2018.13004        -0.77337         4.92997
     2018.13278        -4.14727         4.94750
     2018.13552        -1.98317         4.96872
     2018.13826        -6.85807         4.94750
     2018.14099       -10.28598         4.94012
     2018.14373       -11.24088         4.99179
     2018.14647         0.25622         5.20124
     2018.14921        -9.67368         5.05269
     2018.15195         2.73941         5.00102
     2018.15468        -8.11449         4.95119
     2018.15742         1.09861         5.01394
     2018.16016        -3.30129         4.96688
     2018.16290        -7.35520         5.05730
     2018.16564       -10.05710         5.07391
     2018.16837       -13.07400         4.94566
     2018.17111        -4.57890         4.93735
     2018.17385        -7.60281         4.97426
     2018.17659        -5.88471         4.94750
     2018.17932        -6.78561         4.95119
     2018.18206        -0.95551         5.01394
     2018.18480        -3.49342         5.03055
     2018.18754        -8.74532         4.97426
     2018.19028        -9.14722         4.94658
     2018.19301        -5.39412         4.96780
     2018.19575        -0.93603         4.96688
     2018.19849        -0.58493         4.95488
     2018.20123        -1.89683         5.01117
     2018.20397        -8.43073         4.90690
     2018.20670        -3.77964         4.92351
     2018.20944        -6.06354         4.91521
     2018.21218        -8.15244         4.91336
     2018.21492       -21.71734         4.86907
     2018.21765        -5.77625         4.84324
     2018.22039       -13.38215         4.85616
     2018.22313        -5.90405         4.89491
     2018.22587       -12.99995         4.88384
     2018.22861       -19.02286         4.87276
     2018.23134       -11.06376         4.88384
     2018.23408        -8.61066         4.93089
     2018.23682       -14.10856         4.87461
     2018.23956       -13.54347         4.90137
     2018.24230       -11.13437         4.88753
     2018.24503       -14.15227         4.95581
     2018.24777       -13.90317         4.85892
     2018.25051        -6.62008         4.86169
     2018.25325       -15.27398         4.90875
     2018.25598        -9.15188         4.86907
     2018.25872       -11.97078         5.03885
     2018.26146        -9.03169         5.06838
     2018.26420        -6.78859         4.84508
     2018.26694        -8.71149         4.87000
     2018.26967       -14.65839         4.91244
     2018.27241        -9.43530         4.91613
     2018.27515        -1.18120         4.88568
     2018.27789        -6.60910         4.97980
     2018.28062        -5.07000         4.97426
     2018.28336        -9.40291         4.84877
     2018.28610       -11.79481         4.85523
     2018.28884       -11.91871         4.86446
     2018.29158        -5.33761         4.99271
     2018.29431       -11.30352         4.94381
     2018.29705        -7.93242         4.88568
     2018.29979       -14.10232         4.92259
     2018.30253        -5.52422         4.86077
     2018.30527        -8.94113         4.85339
     2018.30800        -8.09503         4.89306
     2018.31074        -6.66993         4.85339
     2018.31348        -8.12683         4.83309
     2018.31622       -13.74174         4.86815
     2018.31895        -6.90264         5.02040
     2018.32169        -8.40154         4.88660
     2018.32443        -9.91345         4.83586
     2018.32717       -14.21935         4.84601
     2018.32991        -6.54225         4.97703
     2018.33264        -6.71415         4.87922
     2018.33538        -6.26006         5.04531
     2018.33812       -10.45296         5.02685
     2018.34086        -5.45186         4.83955
     2018.34360        -8.28176         4.84508
     2018.34633        -6.98567         4.85154
     2018.34907        -9.39457         4.87553
     2018.35181        -2.54647         4.84970
     2018.35455        -0.38137         4.84324
     2018.35728        -1.12128         4.91244
     2018.36002        -5.35718         4.85800
     2018.36276        -0.72608         5.01394
     2018.36550        -4.57898         4.86815
     2018.36824        -2.69089         4.87645
     2018.37097        -7.53279         4.87184
     2018.37371        -5.88069         4.84785
     2018.37645        -6.96459         4.98995
     2018.37919        -3.51750         4.82755
     2018.38193        -5.58840         4.93643
     2018.38466         0.00570         4.85523
     2018.38740        -0.48220         4.97611
     2018.39014         0.63989         4.84508
     2018.39288        -1.42201         4.85708
     2018.39561        -2.74591         4.86723
     2018.39835         4.72219         4.83309
     2018.40109         2.05028         4.83401
     2018.40383         1.86738         4.89583
     2018.40657        -0.40452         4.87092
     2018.40930         8.44258         4.89214
     2018.41204        -1.10433         4.83862
     2018.41478        -3.90223         4.83678
     2018.41752        -3.81813         4.82202
     2018.42026        -2.33203         4.87461
     2018.42299        -0.77994         4.82847
     2018.42573         1.35916         4.80264
     2018.42847         2.29326         4.92905
     2018.43121         3.04236         4.80818
     2018.43394        -2.61755         4.85523
     2018.43668         1.43655         4.85523
     2018.43942        -2.49035         4.81648
     2018.44216        -2.18125         4.85339
     2018.44490        -3.69916         4.89306
     2018.44763         0.72694         4.83217
     2018.45037        -4.28096         4.86446
     2018.45311        -2.33386         4.84416
     2018.45585        -5.13777         4.90875
     2018.45859         0.06533         5.13296
     2018.46132         2.62643         5.12374
     2018.46406         5.84653         5.52050
     2018.46680         1.63062         5.56017
     2018.46954        -2.24428         5.40147
     2018.47227         1.45882         5.21047
     2018.47501         4.25192         5.11174
     2018.47775         6.44501         5.15603
     2018.48049         1.76811         5.04900
     2018.48323         6.60621         5.10067
     2018.48596        -2.90269         5.06745
     2018.48870         0.57840         5.06099
     2018.49144         4.02550         5.12097
     2018.49418         5.50160         5.09237
     2018.49692         4.95070         5.04623
     2018.49965         2.92779         5.12651
     2018.50239        -2.52211         5.17080
     2018.50513        -4.27701         5.57863
     2018.50787        -0.31992         5.72165
     2018.51060         0.40718         5.23723
     2018.51334         5.50128         5.23815
     2018.51608         0.46338         5.40516
     2018.51882        -1.13353         5.60815
     2018.52156        -2.42343         5.61830
     2018.52429         2.74067         5.44668
     2018.52703         0.66477         5.31012
     2018.52977        -0.63814         5.47159
     2018.53251        -0.79504         5.69489
     2018.53525         5.07006         5.56386
     2018.53798         4.75716         5.87297
     2018.54072         6.47325         6.26419
     2018.54346         9.70535         5.89880
     2018.54620         6.34645         5.46421
     2018.54893         4.55655         5.38763
     2018.55167        -1.89736         5.28429
     2018.55441         8.61974         5.41992
     2018.55715         3.77484         5.88681
     2018.55989         0.27594         7.07709
     2018.56262        12.51403         7.17305
     2018.56536         0.38013         6.90916
     2018.56810        13.92223         7.19335
     2018.57084         2.00433         7.72298
     2018.57357         9.33242         7.59195
     2018.57631         2.39952         7.75804
     2018.57905         0.44462         7.86784
     2018.58179        13.85072         6.80858
     2018.58453        13.84381         7.09646
     2018.58726        15.32991         7.49784
     2018.59000        12.09601         7.58826
     2018.59274         8.42511         8.51096
     2018.59548        14.21620         9.18453
     2018.59822         6.47830         9.45119
     2018.60095         7.67840         8.80161
     2018.60369         1.74250         8.15203
     2018.60643        19.71859         7.79587
     2018.60917         9.26869         7.86599
     2018.61190        15.47079         7.58273
     2018.61464        13.09689         7.39819
     2018.61738        12.53198         7.15459
     2018.62012         8.93808         6.76614
     2018.62286         6.85818         7.13245
     2018.62559         3.32328         7.01619
     2018.62833        13.83837         7.54951
     2018.63107         9.18647         7.30684
     2018.63381         6.86757         8.59769
     2018.63655        14.04167         9.14577
     2018.63928        15.39076         7.94627
     2018.64202        16.04886         7.25609
     2018.64476        14.15696         7.41849
     2018.64750         9.63206         6.97282
     2018.65023        18.94015         8.11235
     2018.65297        11.62525         7.47477
     2018.65571        13.57335         7.30868
     2018.65845        15.64045         6.87686
     2018.66119        12.55654         7.29208
     2018.66392         2.90264         7.33729
     2018.66666        11.18374         6.89439
     2018.66940         9.27784         7.02818
     2018.67214         6.63793         7.00327
     2018.67488         4.24003         7.58180
     2018.67761         9.75213         8.00624
     2018.68035         3.97723         8.71303
     2018.68309         2.14132         7.59288
     2018.68583        14.85342         7.16843
     2018.68856         8.79452         7.22103
     2018.69130        13.71362         6.98390
     2018.69404        11.25871         7.43233
     2018.69678         6.20881         7.09646
     2018.69952         6.96091         6.55484
     2018.70225         2.75901         6.46073
     2018.70499        -0.26590         5.99938
     2018.70773         0.40920         5.83514
     2018.71047         4.05830         5.76132
     2018.71321         1.00039         5.60539
     2018.71594         0.61249         5.53249
     2018.71868        -1.58441         5.65060
     2018.72142        -3.98331         5.74102
     2018.72416         3.28078         5.89511
     2018.72689         2.34888         5.56386
     2018.72963         0.69398         5.58047
     2018.73237         4.31708         5.58878
     2018.73511         2.08117         5.58324
     2018.73785         7.18327         5.76040
     2018.74058         4.44237         5.71703
     2018.74332         0.84047         6.36477
     2018.74606         1.90256         5.83975
     2018.74880         1.02966         5.71519
     2018.75154        -1.45824         5.41808
     2018.75427         4.28686         5.25107
     2018.75701         1.83695         5.29905
     2018.75975         3.22405         5.21785
     2018.76249         0.69415         5.15972
     2018.76522         3.46225         5.23169
     2018.76796        10.08334         5.27137
     2018.77070         3.53844         5.14127
     2018.77344         2.86554         5.16710
     2018.77618         2.62764         5.22708
     2018.77891        15.76373         5.20678
     2018.78165        -1.03817         5.33042
     2018.78439         7.68193         5.36733
     2018.78713         3.05703         5.38947
     2018.78987        -4.08488         5.62107
     2018.79260         2.67522         5.39224
     2018.79534        14.69132         5.18833
     2018.79808        -1.10558         5.34149
     2018.80082         5.28251         5.23723
     2018.80355         0.07461         5.15695
     2018.80629         9.07471         5.45683
     2018.80903         0.39081         5.28613
     2018.81177         6.48890         5.40793
     2018.81451         4.92800         5.12281
     2018.81724        -2.68390         5.16157
     2018.81998         5.63520         5.04346
     2018.82272         7.08829         5.11820
     2018.82546        11.30239         5.07853
     2018.82820         6.76849         4.97703
     2018.83093         7.68859         5.00194
     2018.83367        -0.44232         5.09052
     2018.83641        15.36578         5.07576
     2018.83915        11.58488         5.06930
     2018.84188        13.94698         5.10713
     2018.84462        11.67307         5.01855
     2018.84736         4.65317         4.97887
     2018.85010         4.84727         4.93643
     2018.85284         1.41037         5.11359
     2018.85557        -2.34054         4.99456
     2018.85831         2.59556         4.95119
     2018.86105        -6.07734         5.02778
     2018.86379        -0.97724         5.10528
     2018.86653         7.28085         5.22708
     2018.86926        -2.47405         5.08129
     2018.87200         4.34905         4.92720
     2018.87474        -0.20685         4.89675
     2018.87748        -0.84876         5.03516
     2018.88021         2.75334         5.03700
     2018.88295        -1.46656         5.02685
     2018.88569         0.70254         4.97703
     2018.88843         8.13863         4.93274
     2018.89117         1.14573         4.97795
     2018.89390        -1.49217         5.03608
     2018.89664         2.49092         5.05546
     2018.89938        -1.87298         5.01855
     2018.90212         5.26512         5.02962
     2018.90485        10.48522         4.95673
     2018.90759         6.48831         4.94197
     2018.91033         6.14741         4.90875
     2018.91307         6.34351         4.98718
     2018.91581        10.92961         4.89583
     2018.91854         5.33970         4.91336
     2018.92128         0.38180         4.91059
     2018.92402         1.47690         4.89583
     2018.92676        -0.70100         4.91059
     2018.92950         5.52409         4.88476
     2018.93223         1.58919         4.98533
     2018.93497         4.85729         4.92628
     2018.93771         3.51039         4.93366
     2018.94045         8.62148         4.95119
     2018.94318         3.71258         4.97611
     2018.94592        16.05568         4.93089
     2018.94866         1.90978         4.90967
     2018.95140         7.96387         4.95027
     2018.95414        10.97597         4.87092
     2018.95687        10.17007         4.91982
     2018.95961         7.06017         4.92074
     2018.96235        13.94126         4.91798
     2018.96509         6.29836         4.91152
     2018.96783        -3.28154         4.90783
     2018.97056         6.03856         4.94658
     2018.97330         3.83965         4.96042
     2018.97604         2.63475         4.88568
     2018.97878         2.16085         4.90967
     2018.98425         2.61004         5.02132
     2018.98699        -3.64286         5.01578
     2018.98973         1.09724         4.94566
     2018.99247         7.28834         4.96134
     2018.99520        -2.39357         4.91613
     2019.00068        -5.90437         4.98072
     2019.00342        -7.58727         5.02409
     2019.00616        -6.61018         4.91152
     2019.00889        -2.68708         4.92813
     2019.01163        -7.63298         4.87553
     2019.01437         1.41212         4.90783
     2019.01711         2.38021         4.91521
     2019.01984        -9.03069         4.94012
     2019.02258       -10.51159         4.90506
     2019.02532        -2.10149         4.91705
     2019.02806        -0.29640         4.93089
     2019.03080        -1.78530         4.95581
     2019.03353        -0.00920         4.97057
     2019.03627       -10.75610         4.88568
     2019.03901        -3.63201         4.84785
     2019.04175        -5.45891         4.82571
     2019.04449        -3.49281         4.85892
     2019.04722        -1.82771         4.96688
     2019.04996        -0.64362         5.01025
     2019.05270        -5.35652         5.06376
     2019.05544        -4.53142         4.93920
     2019.05817        -3.56732         4.99179
     2019.06091        -2.14423         5.07668
     2019.06365        -6.50213         4.99641
     2019.06639        -3.35003         4.94935
     2019.06913        -3.59193         5.05730
     2019.07186        -6.98684         4.99641
     2019.07460        -9.61374         4.86538
     2019.07734        -3.35364         4.86446
     2019.08008        -1.54454         4.87553
     2019.08282        -2.27645         5.07299
     2019.08555        -1.93435         4.86538
     2019.08829        -2.82125         4.85062
     2019.09103        -5.63316         4.83955
     2019.09377        -6.32206         4.86631
     2019.09650        -4.20796         4.87276
     2019.09924        -4.93586         4.85708
     2019.10198       -11.84777         4.84231
     2019.10472        -1.29467         4.83678
     2019.10746       -11.45957         4.87276
     2019.11019        -8.35347         4.87369
     2019.11293        -1.63738         4.92720
     2019.11567         0.52672         5.09513
     2019.11841         8.57682         4.84416
     2019.12115         6.79092         4.95488
     2019.12388         3.52501         4.95765
     2019.12662        -1.12289         4.84970
     2019.12936        -3.95379         4.82109
     2019.13210        -3.61069         4.87276
     2019.13483        -7.22760         4.86723
     2019.13757        -6.80050         4.87000
     2019.14031        -2.06240         4.90137
     2019.14305        -6.60030         4.88015
     2019.14579        -8.92621         4.89399
     2019.14852        -4.84411         4.90321
     2019.15126        -0.52601         4.88937
     2019.15400        -1.81091         4.92259
     2019.15674        -6.49882         4.87922
     2019.15948        -5.54172         4.90690
     2019.16221        -7.86262         4.97426
     2019.16495        -6.44952         4.90229
     2019.16769        -9.94243         4.86354
     2019.17043       -10.89833         4.84601
     2019.17316        -5.04723         4.86261
     2019.17590        -6.52613         4.86169
     2019.17864        -7.13004         4.86907
     2019.18138        -6.83194         4.86723
     2019.18412       -16.24284         4.85246
     2019.18685        -8.12174         4.85062
     2019.18959        -9.01065         4.89399
     2019.19233       -10.95555         4.93274
     2019.19507       -10.16945         4.94935
     2019.19780        -7.17335         4.93182
     2019.20054        -8.91926         5.04623
     2019.20328       -16.80116         4.89952
     2019.20602       -21.23706         4.92536
     2019.20876       -15.37196         4.89583
     2019.21149       -12.83087         4.90321
     2019.21423        -8.75277         4.85616
     2019.21697        -8.86667         4.88199
     2019.21971        -8.01357         5.04439
     2019.22245        -7.59648         4.87184
     2019.22518        -9.81638         4.84416
     2019.22792        -5.97228         4.84601
     2019.23066       -12.44718         4.83493
     2019.23340        -8.42209         4.85892
     2019.23613       -10.53099         4.86631
     2019.23887       -11.15089         4.85339
     2019.24161       -11.14779         4.99733
     2019.24435       -10.07370         4.90875
     2019.24709        -6.40360         4.93735
     2019.24982        -3.58650         4.85616
     2019.25256        -5.96240         4.97980
     2019.25530        -6.41031         4.86723
     2019.25804        -1.64021         4.78880
     2019.26078        -1.63311         4.83309
     2019.26351        -7.54801         4.93920
     2019.26625        -7.70592         4.84416
     2019.26899        -6.18282         4.91429
     2019.27173        -1.14672         4.99917
     2019.27446        -5.93762         4.80448
     2019.27720        -1.36753         4.98441
     2019.27994         1.15457         4.85892
     2019.28268       -14.99333         4.86354
     2019.28542        -2.32224         4.83309
     2019.29089         0.29996         4.83217
     2019.29363         3.11906         4.89399
     2019.29637        -1.60485         4.98072
     2019.29911        -4.72575         4.83678
     2019.30184        -5.24965         4.86538
     2019.30458        -3.00355         4.88107
     2019.30732        -3.51546         4.81371
     2019.31006        -3.80736         4.89122
     2019.31279        -7.29726         4.96965
     2019.31553        -1.82916         4.86077
     2019.31827        -6.00907         4.82755
     2019.32101        -9.49897         4.82109
     2019.32375       -15.68087         4.86354
     2019.32648        -5.00677         4.88937
     2019.32922        -6.07168         4.85616
     2019.33196        -4.01358         4.92167
     2019.33470        -1.66348         4.95765
     2019.33744        -1.51038         4.82017
     2019.34017        -7.65129         4.84877
     2019.34291        -5.15319         4.87461
     2019.34565        -8.68109         4.90598
     2019.34839        -8.10499         4.89491
     2019.35112       -10.55390         4.89122
     2019.35386        -8.35080         4.92351
     2019.35660        -0.59270         4.93735
     2019.35934        -7.76560         4.84785
     2019.36208        -8.63451         4.91059
     2019.36481        -6.90041         4.90414
     2019.36755        -4.45431         4.86446
     2019.37029        -7.49021         4.94197
     2019.37303         1.87888         4.96596
     2019.37577        -2.39102         4.93828
     2019.37850        -4.74692         4.96965
     2019.38124        -1.45182         4.98256
     2019.38398        -0.15973         4.89399
     2019.38672        -5.40563         4.89768
     2019.38945        -7.34353         4.89306
     2019.39219        -0.95243         4.83862
     2019.39493        -4.08434         4.86354
     2019.39767        -1.85624         5.28705
     2019.40041        -3.12714         5.27229
     2019.40314        -0.23504         5.22708
     2019.40588         2.31305         5.28705
     2019.40862        -1.99385         5.32858
     2019.41136         0.46225         5.48820
     2019.41410         3.55635         5.14127
     2019.41683         1.37544         5.09144
     2019.41957         1.78654         5.10344
     2019.42231        -2.02136         5.09237
     2019.42505        -1.17926         5.07853
     2019.42778         0.96683         5.32304
     2019.43052         5.99793         5.24277
     2019.43326         0.16803         5.24369
     2019.43600        -4.40487         5.30828
     2019.43874        -4.19978         5.32858
     2019.44147        -5.86168         5.71611
     2019.44421        -9.63258         5.91172
     2019.44695       -10.79848         5.80007
     2019.44969         2.94361         5.77793
     2019.45243        -1.42029         6.08427
     2019.45516         1.76481         6.13501
     2019.45790        -8.13009         6.24943
     2019.46064        -0.45400         5.49374
     2019.46338         2.42010         5.77885
     2019.46611         8.49920         5.95693
     2019.46885         2.71630         6.01506
     2019.47159         1.11339         6.07781
     2019.47433        -2.82451         5.92925
     2019.47707         7.47659         6.03536
     2019.47980         2.39168         6.35738
     2019.48254        -2.93622         8.14188
     2019.48528         4.90488         9.07750
     2019.48802       -11.13302         8.05422
     2019.49076         1.62007         7.72851
     2019.49349        -3.05683         7.90475
     2019.49623         3.24827         8.43068
     2019.49897        -1.46463         8.65213
     2019.50171         0.30246         8.60876
     2019.50444         6.34156         9.37645
     2019.50718         9.25766        11.42760
     2019.50992        18.46976        14.50849
     2019.51266         0.62685        11.36486
     2019.51540        10.50295        13.20195
     2019.51813         7.70205        12.78305
     2019.52087        16.96115        13.76018
     2019.52361        -4.25076        12.82180
     2019.52635        10.51334        13.49260
     2019.52908         5.83044        15.24757
     2019.53182         3.13954        14.83697
     2019.53456        10.80363        14.79545
     2019.53730        14.08473        15.28632
     2019.54004        14.82283        12.97220
     2019.54277        24.75593        12.53300
     2019.54551        16.86902        14.33226
     2019.54825        28.28012        14.30550
     2019.55099        16.76822        14.46881
     2019.55373        24.43832        17.07451
     2019.55646         3.34541        17.16955
     2019.55920         0.12351        14.76408
     2019.56194        14.72461        13.86814
     2019.56468         6.03071        14.46420
     2019.56741         8.62680        14.35532
     2019.57015        32.36890        15.43303
     2019.57289        25.27900        23.21783
     2019.57563        21.24810        22.21855
     2019.57837        17.97819        19.65068
     2019.58110        13.11629        19.24562
     2019.58384        29.75839        26.37530
     2019.58658        49.69249        23.98182
     2019.58932        13.24958        16.77648
     2019.59206        46.07968        23.93292
     2019.59479        23.94378        20.92585
     2019.59753        64.39488        35.41589
     2019.60027        82.85397        30.29030
     2019.60301        35.59407        33.03256
     2019.60574        25.08017        41.31100
     2019.60848       100.85227        39.50805
     2019.61122       -20.45164        42.03070
     2019.61396        37.36346        40.15670
     2019.61670        39.15556        43.32525
     2019.61943       102.79466        34.57715
     2019.62217        99.13775        32.37375
     2019.62491        55.19785        35.45372
     2019.62765        57.79695        31.17702
     2019.63039        36.47005        25.15734
     2019.63312        33.08414        19.36188
     2019.63586        44.78324        17.10219
     2019.63860        19.44334        15.46441
     2019.64134         1.29844        14.26951
     2019.64407        19.64553        14.36086
     2019.64681         2.03863        13.85153
     2019.64955        -4.21027        12.43704
     2019.65229        17.54683        12.69355
     2019.65503        13.22492        12.92607
     2019.65776        15.52002        14.88034
     2019.66050        -0.67788        16.36127
     2019.66324       -10.14478        15.03443
     2019.66598        22.10531        14.11081
     2019.66872         4.29841        14.21138
     2019.67145        -1.45449        12.15192
     2019.67419         5.88060        11.33810
     2019.67693         0.74970        11.10558
     2019.67967         1.31980        11.49681
     2019.68240         7.99290        12.06150
     2019.68514         7.10999        12.26541
     2019.68788        13.83509        13.68083
     2019.69062         2.83619        12.14362
     2019.69336        -0.71971         8.09021
     2019.69609        17.07438         7.84754
     2019.69883        10.09448         7.17213
     2019.70157         3.51958         6.91746
     2019.70431         0.34668         7.40557
     2019.70705        -1.90523         6.68863
     2019.70978         2.31687         6.97928
     2019.71252        -4.56903         6.72093
     2019.71526         8.75707         6.54285
     2019.71800         2.50516         6.53454
     2019.72073         2.73826         6.86856
     2019.72347         5.44936         6.01414
     2019.72621         2.46046         5.70596
     2019.72895        15.34255         5.98185
     2019.73169         9.32965         6.32324
     2019.73442        19.63075         5.96524
     2019.73716         9.44185         5.80561
     2019.73990         4.57194         6.79843
     2019.74264         5.28604         6.34539
     2019.74538         8.46214         6.21529
     2019.74811         7.55124         6.07412
     2019.75085         7.35533         5.94955
     2019.75359         8.88243         6.21806
     2019.75633         6.26353         6.32601
     2019.75906         7.10163         6.17746
     2019.76180         4.70272         7.53751
     2019.76454        13.74782         6.96821
     2019.76728         1.45392         6.77260
     2019.77002         2.30702         7.81432
     2019.77275         9.73411         9.71877
     2019.77549        10.38021         8.89941
     2019.77823        18.41631        11.84928
     2019.78097        26.96541        17.25628
     2019.78371        10.36450        17.19723
     2019.78644         9.05860        17.72409
     2019.78918        34.28270        19.79555
     2019.79192        34.18980        12.56714
     2019.79466        29.03889        13.60056
     2019.79739        12.63499        11.36855
     2019.80013        22.06009        11.66012
     2019.80287        41.46819        17.43252
     2019.80561        19.56628        13.99363
     2019.80835        13.49438        11.76347
     2019.81108        22.25348        11.61953
     2019.81382        32.24758        11.10835
     2019.81656        16.95867        14.61091
     2019.81930        13.55477        13.90228
     2019.82203         9.48987        11.83359
     2019.82477        -5.14103        12.53023
     2019.82751        -2.55894        12.63911
     2019.83025        22.45516        11.80868
     2019.83299        10.53026        13.66791
     2019.83572        18.37536        16.62608
     2019.83846        55.15845        20.42021
     2019.84120        61.47755        30.64093
     2019.84394        35.45365        28.60823
     2019.84668        10.03875        19.48829
     2019.84941        18.05484        10.69406
     2019.85215        27.16694        18.03596
     2019.85489        33.76204        22.75833
     2019.85763         6.64714        19.97547
     2019.86036       -18.59177        23.83235
     2019.86310        12.27633        30.71198
     2019.86584        88.64843        29.32055
     2019.86858        73.52952        29.92676
     2019.87132        38.56662        28.58424
     2019.87405       -62.40828        55.73183
     2019.87679        19.51482        78.15061
     2019.87953       118.35991        74.46074
     2019.88501        51.72511        31.98807
     2019.88774        53.13421        37.91455
     2019.89048        17.54030        37.30188
     2019.89322        69.63140        40.99728
     2019.89596        29.96150        27.19373
     2019.89869        -0.73740        23.78806
     2019.90143       -18.90431        18.56651
     2019.90417       -15.57421        13.64208
     2019.90691        -6.08011        13.15213
     2019.90965       -10.13901        13.81278
     2019.91238         8.54008        14.18555
     2019.91512       -12.12382        14.01669
     2019.91786        35.47128        15.78181
     2019.92060        22.64638        18.26295
     2019.92493        -0.32572        55.02597
