# ================= DQRFIT RESULTS ================
# INPUT FILE: series/GRP4.rad
# OUTPUT: LDETRENDED
# FILTER FUNCTION: f(t)
# f(t)=+line(t)+annual(t)
# line(t)=+P 1+P 2*t
# annual(t)=+P 3*sin(2*pi*t+P 4)
# heav(t)=(t<0?0:1)
# TOTAL OBSERVATIONS MTOT= 1912
# INITIAL TIME INTERVAL= 2012.5574 - 2006.6010 =  5.9564
# TOTAL OBSERVATIONS AFTER PREFILTER M= 1911
# TIME-SPAN= 2012.5574 - 2006.6010 =  5.9564
# OBSERVATIONS: USED M=  1911 REJECTED MTOT-M=     1 %USED=   99.9477
# N=  4 PARAMETERS
# MAXSIG= 175.00000
# MAXRES=  19.25083
# SCALE FACTOR FOR LENGTHS: SCL=  10.00000
# SCALE FACTOR FOR SIGMAS: SCLSIG=   1.00000
# CHI^2=   1426.224 DOF=  1907 CHI^2/DOF=   0.74789
# RMS=      4.995 SDEV=      4.996 MEAN=    0.02748
#  P #       PARAMETER +-    SIGMA %error PARAMETER NAME
# P 1 =      3014.31748 +-  141.576   4.70 YZERO                              
# P 2 =        -1.49673 +-    0.070   4.71 SLOPE                              
# P 3 =         6.77351 +-    0.161   2.38 ANNUAL AMPLITUDE                   
# P 4 =        -3.02434 +-    0.033   1.10 ANNUAL PHASE                       
#       T            LDETRENDED       SIG_OBS
     2006.60095         3.57824         4.97263
     2006.60369         6.73534         5.04614
     2006.60643         8.89944         4.98820
     2006.60917         7.08854         4.94496
     2006.61190         4.43763         5.00549
     2006.61464         8.80473         4.95879
     2006.61738        10.06583         4.97696
     2006.62012         9.39393         4.97263
     2006.62286         4.11403         4.92420
     2006.62559         3.01512         4.97004
     2006.75975        12.34792         5.11705
     2006.76249        11.77201         5.05738
     2006.76522         9.75211         5.16548
     2006.76796         7.23821         5.14905
     2006.77070         3.00731         4.98733
     2006.77344         4.22541         5.13435
     2006.77618        11.56050         5.06603
     2006.77891        13.84860         5.04182
     2006.78165        11.58870         4.88702
     2006.78439         9.02780         4.91383
     2006.78713        14.25789         5.06084
     2006.78987        18.12999         5.02971
     2006.79260        10.68309         4.96831
     2006.79534         5.74719         5.04614
     2006.79808        10.94029         5.12657
     2006.80082        11.19038         5.11014
     2006.80355         2.13548         4.94323
     2006.80629         8.78058         4.95707
     2006.80903         9.33468         4.92939
     2006.81177         9.53178         4.98042
     2006.81451        14.06187         5.08506
     2006.81724         7.53097         5.06344
     2006.81998         5.40107         4.87664
     2006.82272         4.39117         4.90345
     2006.82546        14.71526         5.23640
     2006.82820         7.43236         4.88615
     2006.83093         6.71946         4.88529
     2006.83367        10.38456         4.88442
     2006.83641        13.40966         5.09284
     2006.83915        10.55975         5.03576
     2006.84188         6.00485         5.10927
     2006.84462         7.86295         5.13867
     2006.84736         6.01805         5.06776
     2006.85010         9.82214         5.21132
     2006.85284        11.19824         5.28223
     2006.85557         9.88034         5.18537
     2006.85831        11.09644         5.02366
     2006.86105         8.99954         5.34536
     2006.86379         3.38863         5.15078
     2006.86653        11.23873         5.25369
     2006.86926         4.42983         5.02452
     2006.87200         6.24893         5.04182
     2006.87474         4.14403         5.03663
     2006.87748        10.48112         4.99339
     2006.88021         5.44922         4.95620
     2006.88295         5.62832         5.13694
     2006.88569         7.13942         5.05219
     2006.88843        -2.55149         5.05306
     2006.89117         6.65961         5.00636
     2006.89390        -2.95229         5.22256
     2006.89664         3.36881         5.15597
     2006.89938         1.48991         5.06171
     2006.90212         5.74400         4.99166
     2006.90485        -4.14290         5.32634
     2006.90759        -0.55580         4.95534
     2006.91033        -2.61570         4.94755
     2006.91295         5.29122         5.35920
     2006.91581        -1.55351         4.96225
     2006.91854        -3.18941         4.88442
     2006.92128        -3.46231         4.92074
     2006.92402        -5.67821         5.01241
     2006.92676        -5.41312         5.06690
     2006.92950        -2.63102         5.00376
     2006.93223         1.54408         5.00463
     2006.93497         9.12418         5.10235
     2006.93771         8.36828         4.99252
     2006.94045         7.80037         5.11965
     2006.94318         1.08147         5.09889
     2006.94592         1.14957         5.02971
     2006.94866        11.93267         5.14386
     2006.95140         7.94176         5.00204
     2006.95414        -4.94714         5.51314
     2006.95687         3.19196         4.98647
     2006.95961        -1.64694         4.97696
     2006.96235         3.59816         5.07641
     2006.96509         4.24225         5.07900
     2006.96783        -0.86665         5.06603
     2006.97056         0.51545         5.11705
     2006.97330        -9.88145         5.07814
     2006.97604        -3.59436         4.93112
     2006.97878         2.06574         5.06690
     2006.98151        -1.69516         5.04873
     2006.98425         2.96394         5.05998
     2006.98699        -1.60896         5.25283
     2006.98973        -5.72787         5.05652
     2006.99794        -2.02057         5.12311
     2007.00342        -0.49138         5.22256
     2007.00616         5.46972         5.12138
     2007.00889         1.76982         5.23986
     2007.01163        -7.02308         5.11446
     2007.01437        -0.08499         5.06603
     2007.01711        -9.52689         5.04873
     2007.01984       -11.77579         5.07381
     2007.02258       -11.08369         5.05911
     2007.02504        -4.74802         5.78036
     2007.05544        -7.65552         4.81178
     2007.05817        -5.46142         4.87404
     2007.06091        -7.91932         4.80832
     2007.06365        -8.35123         4.80313
     2007.06639       -12.62813         4.90085
     2007.06913        -7.47703         4.74346
     2007.07186        -5.35893         4.73481
     2007.07460       -11.12983         4.77200
     2007.07734       -13.48474         4.79794
     2007.08008       -10.80964         4.72962
     2007.08282        -7.33054         4.74605
     2007.08555        -4.62644         4.89134
     2007.08829        -4.96134         4.80054
     2007.09103        -7.56325         4.90172
     2007.09377        -7.53815         4.88356
     2007.09650       -10.11305         4.83599
     2007.09924        -7.91995         4.85675
     2007.10198       -10.02686         4.88096
     2007.10472        -6.34776         4.86194
     2007.10746       -12.72566         4.98647
     2007.11019        -9.87556         4.76940
     2007.11293        -2.18746         4.83513
     2007.11567       -11.00237         4.79794
     2007.11841        -7.49927         4.74086
     2007.12115       -12.26917         4.81264
     2007.12388       -12.10807         5.04095
     2007.12662        -3.14898         4.87491
     2007.12936        -4.15588         4.94842
     2007.13210        -0.43978         4.91728
     2007.13466        -7.17694         5.27964
     2007.13757         2.93042         4.83513
     2007.14031        -2.03549         4.83167
     2007.14305        -0.19539         4.77892
     2007.14579        -2.06329         4.79362
     2007.14852        -4.85819         4.83513
     2007.15126         0.00891         4.91296
     2007.15400         3.47900         4.85588
     2007.15674         5.23710         4.79102
     2007.15948         5.68120         4.91728
     2007.16221        -8.79970         4.97955
     2007.16495        -0.90361         5.00031
     2007.16769        -4.40351         5.02193
     2007.17043        -3.92541         4.95707
     2007.17316        -2.72131         4.96485
     2007.17590        -5.21421         4.88529
     2007.17864        -0.82412         5.10668
     2007.18138         0.26698         4.96485
     2007.18412        -1.57492         4.89048
     2007.18685        -5.33282         5.04441
     2007.18959        -7.77573         5.01587
     2007.19233        -8.44463         5.02625
     2007.19507        -7.29753         4.86453
     2007.19780        -7.46843         4.83253
     2007.20054       -11.60633         4.83167
     2007.20328       -11.78824         4.89307
     2007.20602        -8.38614         4.86799
     2007.20876        -5.12704         4.86972
     2007.21149       -12.20694         4.85415
     2007.21423        -6.58285         4.98474
     2007.21697        -4.97475         4.86107
     2007.21971         0.91035         4.83599
     2007.22245        -0.89455         4.85502
     2007.22518        -1.60045         4.86540
     2007.22792        -2.24436         4.88442
     2007.23066        -5.19026         4.83426
     2007.23340        -8.73016         4.86367
     2007.23613       -10.02906         4.88096
     2007.23887       -13.41496         4.79189
     2007.24161        -8.73187         4.85761
     2007.24435        -4.36377         4.80399
     2007.24709        -3.06167         4.84724
     2007.24982        -6.04657         4.90518
     2007.25256       -11.73648         4.77459
     2007.25530       -11.58938         4.77113
     2007.25804        -5.68228         4.84378
     2007.26078        -6.45018         4.89048
     2007.26351        -1.65108         4.79535
     2007.26625        -0.34499         4.94323
     2007.26899         5.84211         4.85502
     2007.27173        -3.84879         4.97263
     2007.27446         0.41331         4.75989
     2007.27720         0.16240         4.74605
     2007.27994        -1.50150         4.89826
     2007.28268         3.98160         5.01501
     2007.28542        -0.02730         4.84896
     2007.31553        -1.60823         4.80832
     2007.31827        -1.43413         4.85675
     2007.32101        -4.94003         4.82043
     2007.32375        -5.07093         4.87231
     2007.32648        -2.27383         4.88010
     2007.32922         1.39426         4.84205
     2007.33196         5.62536         5.01414
     2007.33470        -4.55054         4.87577
     2007.33744        -7.74244         4.88096
     2007.34017        -8.07435         4.86626
     2007.34291       -11.30925         4.94409
     2007.34565        -7.29215         4.87145
     2007.34839        -5.87505         4.81956
     2007.35112        -4.97895         4.80572
     2007.35386        -6.33186         5.10754
     2007.35660        -8.55876         5.12224
     2007.35934        -2.16466         4.85761
     2007.36208        -6.50056         4.91296
     2007.36481        -7.46946         4.93458
     2007.36755        -3.57037         4.84118
     2007.37029        -2.86327         4.94669
     2007.37303        -2.69717         5.03317
     2007.37577        -8.42607         5.05738
     2007.37850        -7.73398         4.91296
     2007.38124        -0.60388         4.93458
     2007.38398       -11.25178         4.86799
     2007.38672        -8.17668         4.87318
     2007.38945        -8.70058         4.81264
     2007.39219        -4.35049         5.01587
     2007.39493        -2.11539         4.84291
     2007.39767        -2.76429         4.86713
     2007.40041        -0.74219         4.83513
     2007.40314        -5.91510         4.79448
     2007.40588        -6.18800         4.80313
     2007.40856        -6.91399         5.06776
     2007.41136        -5.55280         4.87058
     2007.41410        -0.24270         4.81697
     2007.41683        -7.32261         4.82561
     2007.41957        -2.30551         4.95707
     2007.42231        -2.39641         4.88096
     2007.42505         0.71469         4.95793
     2007.42778         5.15278         4.81524
     2007.43052         0.06088         4.85502
     2007.43326         0.41298         4.78151
     2007.43600        -0.85392         4.89566
     2007.43862         1.45501         5.15251
     2007.44147        -6.12073         4.95015
     2007.44376        -9.80031         7.31798
     2007.44695        -6.18853         4.90172
     2007.44969        -5.16343         4.87837
     2007.45243        -4.52533         4.89826
     2007.45516        -6.19524         4.79275
     2007.45790        -2.05714         4.85761
     2007.46064        -7.88604         4.84032
     2007.46338         3.25406         4.81956
     2007.46611         1.05515         4.83772
     2007.46885         2.71225         4.93372
     2007.47159        -5.60265         4.81178
     2007.47433        -0.10555         4.80227
     2007.47707        -8.26945         4.97955
     2007.47986       -11.74327         5.02538
     2007.48254       -10.67026         4.84378
     2007.48528        -8.99616         4.81783
     2007.48802        -8.81006         4.81697
     2007.49076         1.13803         5.02193
     2007.49349        -0.82287         4.87750
     2007.49623        -1.41577         4.86453
     2007.49897         1.93733         4.88875
     2007.50171        -7.61857         4.81870
     2007.50444        -1.60048         4.79102
     2007.50718         1.28462         4.84551
     2007.50992         4.39172         4.89220
     2007.51266        -2.10818         4.87750
     2007.51540         0.73492         4.88702
     2007.51813        -1.92599         4.78670
     2007.52087         1.04211         4.81264
     2007.52344         1.26695         5.23553
     2007.52635         1.23231         4.98387
     2007.52908         4.89440         5.06430
     2007.53182         1.68850         4.91037
     2007.53456        -3.65840         4.98387
     2007.53730        -0.36130         4.90518
     2007.54004         6.81680         4.95534
     2007.54277        -2.39411         4.86367
     2007.54551        -0.33501         4.92420
     2007.54825         6.79409         5.00982
     2007.55099         4.40919         4.91642
     2007.55373         4.24828         4.89048
     2007.55646         1.21638         4.87491
     2007.55920        -0.45652         4.84637
     2007.56194         3.82958         5.06517
     2007.56468         6.93568         4.82907
     2007.56741        -0.31123         4.87577
     2007.57015         8.49287         4.92680
     2007.57289         3.95797         4.80659
     2007.57563         3.60007         4.92247
     2007.57837        -0.18283         4.79102
     2007.58110         2.12226         4.82043
     2007.58384         9.46136         4.81091
     2007.58658        -2.64854         4.89653
     2007.58932         2.55256         4.80918
     2007.59206         9.33565         4.83686
     2007.59479        10.56875         4.90345
     2007.59753         7.40185         5.00809
     2007.60027         8.14695         5.05479
     2007.60301         4.96305         4.76854
     2007.60574        -1.07586         4.77459
     2007.60848         4.48424         4.83426
     2007.61122         8.46034         4.80399
     2007.61396         1.68644         4.82734
     2007.61670         2.36553         5.21478
     2007.61943         6.95963         5.17586
     2007.62217         5.51773         5.06690
     2007.62491         0.02483         5.13694
     2007.62765        10.51693         5.13522
     2007.63039         9.37602         5.12916
     2007.63312         7.45612         4.99079
     2007.63586         9.43022         5.00031
     2007.63860         3.99032         4.95015
     2007.64134         8.86941         4.87318
     2007.64407        13.61751         5.09543
     2007.64681         6.54261         5.03576
     2007.64955        14.00771         5.41714
     2007.65229         9.60781         5.12657
     2007.65503         4.11690         5.05219
     2007.65776         8.86100         5.03576
     2007.66050         4.18610         5.05652
     2007.66324        10.42920         5.04528
     2007.66598         4.24330         5.02193
     2007.66872         9.00139         5.23034
     2007.67145         7.18849         5.14127
     2007.67419        14.90559         5.15597
     2007.67693        10.91069         5.05738
     2007.67967         9.56778         4.99771
     2007.68240        15.27988         4.94928
     2007.68514         9.20498         5.13176
     2007.68788         8.41808         5.17240
     2007.69062         7.95318         4.99598
     2007.69336         8.97127         5.02020
     2007.69609         5.14637         4.99339
     2007.69883         6.28647         5.04268
     2007.70157         8.90357         5.07641
     2007.70431        17.15066         5.16548
     2007.70705         9.97476         5.16202
     2007.70978        11.57586         5.16981
     2007.71252        12.84296         4.99858
     2007.71526         1.11306         4.91555
     2007.71800        14.98815         4.95188
     2007.72073        10.75525         4.90518
     2007.72347        14.67735         4.94582
     2007.72621         9.77145         4.83772
     2007.72895         4.10355         4.91815
     2007.73169         8.56464         5.00636
     2007.73442         7.47574         4.93026
     2007.73716         6.77084         5.03317
     2007.73990        15.85794         4.95101
     2007.74264        14.49403         4.89134
     2007.74538        12.68613         4.94063
     2007.74811         8.22623         5.00895
     2007.75085        12.62833         5.28396
     2007.75359        15.52143         5.07554
     2007.75633        10.46852         4.87923
     2007.75906         5.69062         4.87231
     2007.76180         8.00672         4.90691
     2007.76454         8.71682         4.96571
     2007.76728         3.36091         5.38601
     2007.77002        13.87401         5.28742
     2007.77275         7.67611         5.12484
     2007.77549         4.82421         4.93631
     2007.77823         7.38431         4.85934
     2007.78097         9.83740         4.90258
     2007.78371         6.08550         4.90345
     2007.78644        15.01960         4.89393
     2007.78918        10.40970         5.00117
     2007.79192        12.07980         5.02106
     2007.79454        13.44972         5.22343
     2007.79739         6.49599         5.03403
     2007.80013        16.44109         4.91210
     2007.80287         6.48619         4.86540
     2007.80561         8.47228         4.94063
     2007.80835         8.06538         4.96831
     2007.81108        16.35948         5.11619
     2007.81382         1.32658         5.00636
     2007.81656         3.33968         5.06517
     2007.81930         4.97177         4.88961
     2007.82203         3.90787         4.95620
     2007.82477         1.64997         5.06344
     2007.82751        -0.29493         4.98733
     2007.83025         4.28616         5.00895
     2007.83299         5.77626         4.90950
     2007.83572         2.85336         4.82821
     2007.83846         5.32546         4.93631
     2007.84120         4.51656         4.93112
     2007.84394        -2.12535         4.91123
     2007.84668        -3.51225         4.94236
     2007.84941         2.42785         4.91815
     2007.85215         3.22495         5.20959
     2007.85489         7.42704         5.20872
     2007.85763         1.70914         5.11792
     2007.86036         5.14024         4.92853
     2007.86310         3.86134         5.00982
     2007.86584         4.99744         4.92507
     2007.86858         4.17553         4.87318
     2007.87132        -3.31137         4.99598
     2007.87405         6.73673         4.95361
     2007.87679         2.95983         5.00809
     2007.87953         8.64093         5.02971
     2007.88227         0.77302         4.90950
     2007.88501         3.53012         4.89220
     2007.88774         2.01222         4.87231
     2007.89048        -0.28468         4.96052
     2007.89596         3.85051         5.23121
     2007.89869         3.37361         4.85069
     2007.90046        16.75826         8.37391
     2007.90948        -3.35625         5.33931
     2007.91238         3.87410         4.87231
     2007.91512         9.16520         4.90258
     2007.91786         2.82129         4.95361
     2007.92060        -6.41561         5.07814
     2007.92334        -9.11751         5.05133
     2007.92607         8.58459         4.92420
     2007.92881         6.86369         4.96658
     2007.93155         5.44378         4.96485
     2007.93429        -7.08512         4.93977
     2007.93697        -3.73911         5.18105
     2007.93976        -6.18392         5.48373
     2007.94136         1.21447        10.88704
     2007.95448         7.76510        10.80142
     2007.95619         5.08266         5.06517
     2007.95893         5.41476         5.80112
     2007.96167         2.95186         5.75442
     2007.96440         5.69296         5.10408
     2007.96714         0.44806         5.91181
     2007.96988        -2.30985         5.03403
     2007.97262        -1.93175         5.14040
     2007.97535        -7.19165         5.10668
     2007.97809        -0.13255         4.98820
     2007.98083        -2.89046         5.02106
     2007.98357        -0.15836         5.02279
     2007.98631         2.16874         5.21478
     2007.98904         0.54484         5.15424
     2007.99178         1.31694         5.27704
     2007.99452        -5.38197         5.12830
     2007.99726        -0.37187         4.99598
     2008.00000        -8.36777         4.98733
     2008.00273       -10.25167         5.04960
     2008.00547        -6.34657         4.90864
     2008.00821        10.85352         4.96744
     2008.01095        -2.42038         4.87664
     2008.01368         4.71772         4.82734
     2008.01642         0.29682         4.96139
     2008.01916         2.33691         4.87058
     2008.02190        -1.78899         4.99079
     2008.02464         3.85711         4.83426
     2008.02737        -4.90879         4.88961
     2008.03011        -1.98069         4.90864
     2008.03285        -6.68160         4.86367
     2008.03559        -2.40150         4.95361
     2008.03833        -6.92640         4.89999
     2008.04106       -13.23330         4.98993
     2008.04380       -11.35521         4.95879
     2008.04654       -10.12011         4.89480
     2008.04928       -13.56201         4.89826
     2008.05201        -6.93691         4.98128
     2008.05475        -9.38981         4.86453
     2008.05749       -11.30772         4.85502
     2008.06023        -6.12462         4.82734
     2008.06297        -4.02052         4.78324
     2008.06570        -5.23242         5.14905
     2008.06844         1.10267         4.86194
     2008.07118         4.86177         4.90172
     2008.07392         5.81287         4.83599
     2008.07666         6.27097         5.16981
     2008.07939        -3.69393         5.13089
     2008.08213        -4.91284         5.02452
     2008.08487        -5.15374         4.85242
     2008.08761        -5.89964         4.89480
     2008.09034         1.01046         4.81437
     2008.09308        -7.26144         4.81178
     2008.09582        -3.87135         5.28656
     2008.09856         0.05675         5.13781
     2008.10135        -0.21507         5.24591
     2008.10403        -0.97505         4.85502
     2008.10677        -5.74796         4.92593
     2008.10951        -9.15986         4.95879
     2008.11225       -10.27276         5.04182
     2008.11498         0.93634         5.00204
     2008.11772        -6.30856         4.88010
     2008.12046        -7.51347         4.82043
     2008.12320        -8.71637         5.07381
     2008.12594        -2.24527         4.91988
     2008.12867        -3.16417         4.86367
     2008.13141        -3.19908         4.84032
     2008.13415         2.06002         5.00290
     2008.13689        -3.01088         4.97004
     2008.13963        -0.94178         4.87577
     2008.14236         0.04432         4.83686
     2008.14510         2.37641         4.92161
     2008.14784        -0.28949         4.81610
     2008.15058        -7.41039         4.78324
     2008.15331       -12.89829         5.05565
     2008.15605        -4.65119         4.84637
     2008.15873        -3.77918         4.98387
     2008.16347        -0.55910         7.85849
     2008.19439        -3.39682         7.01530
     2008.19712        -4.29673         4.83772
     2008.19986        -3.57063         4.92247
     2008.20260       -13.25953         4.92161
     2008.20533        -5.18643         4.92334
     2008.20807        -7.21934         5.04009
     2008.21081        -4.68024         5.07900
     2008.21355        -4.14514         4.84032
     2008.21629        -5.78804         4.87923
     2008.21902       -13.46594         5.00290
     2008.22176       -13.41085         4.86107
     2008.22450        -9.09675         4.96139
     2008.22724        -5.54165         4.97609
     2008.22997        -8.62555         5.00290
     2008.23271        -1.85146         5.02625
     2008.23545        -3.55436         4.96571
     2008.23819        -6.06726         5.02106
     2008.24093       -25.38116         5.36093
     2008.24366       -19.82206         4.96485
     2008.24640       -11.09597         4.85502
     2008.24914        -9.37887         5.08679
     2008.25188        -3.69777         4.85415
     2008.25462        -4.37467         4.85242
     2008.25735        -2.14858         4.86540
     2008.26009        -0.23048         4.80486
     2008.26283        -6.76738         4.84205
     2008.26551         1.84763         4.90777
     2008.26830        -5.87718         4.90604
     2008.27104        -2.19209         4.86886
     2008.27378        -8.93299         4.83426
     2008.27652       -11.23589         4.85934
     2008.27926        -6.12979         4.95707
     2008.28199        -4.74770         5.02711
     2008.28473        -3.46060         5.09025
     2008.28747        -2.39850         5.14040
     2008.29021        -7.23740         4.94842
     2008.29295        -3.43530         4.80832
     2008.29568         0.64979         4.86540
     2008.29842        -8.29911         4.84551
     2008.30116        -2.09501         4.91642
     2008.30390        -6.02491         4.86194
     2008.30669         0.08127         5.02538
     2008.30937        -3.40372         4.93199
     2008.31211        -7.49862         5.18019
     2008.31485        -4.68252         4.80572
     2008.31759       -10.36542         4.84032
     2008.32032        -6.97933         5.00376
     2008.32306        -6.57323         5.11014
     2008.32580        -0.94713         5.10841
     2008.32854        -1.17403         4.87837
     2008.33128        -7.62393         4.90431
     2008.33401        -8.75984         4.86453
     2008.33669        -6.11782         4.92507
     2008.33949        -3.52664         4.79881
     2008.34223        -6.58454         4.81610
     2008.34496        -4.76245         4.87318
     2008.34770        -4.97335         4.71405
     2008.35044        -3.60225         4.75989
     2008.35318        -3.18815         4.72876
     2008.35592        -1.47705         4.74865
     2008.35865         0.50704         4.78497
     2008.36139        -1.57986         4.75038
     2008.36413        -1.68176         4.73481
     2008.36687        -7.38566         4.77805
     2008.36961       -10.81256         4.78151
     2008.37234       -14.78347         4.76508
     2008.37508        -5.51437         4.81351
     2008.37782        -5.49827         5.26753
     2008.38056        -3.78317         4.84810
     2008.38329        -2.72608         4.96917
     2008.38603        -5.38198         4.84637
     2008.38877        -0.46588         4.78756
     2008.39151        -3.76578         4.88961
     2008.39425        -6.68968         4.79881
     2008.39698        -3.26659         4.80227
     2008.39972         2.55151         4.75211
     2008.40246         0.98761         4.80399
     2008.40520        -1.04629         4.70973
     2008.40794        -0.97420         4.84464
     2008.41067        -3.15110         4.81264
     2008.41341        -2.20900         4.75124
     2008.41615        -3.41690         4.83253
     2008.41889        -8.02980         4.70541
     2008.42162        -6.89171         4.89220
     2008.42431        -6.04769         4.97436
     2008.42710        -2.64751         4.77892
     2008.42984         2.16659         4.91642
     2008.43258        -4.12431         4.91296
     2008.43531        -9.20222         4.83340
     2008.43805        -6.04512         4.90085
     2008.44079        -5.09702         4.91469
     2008.44353        -6.54592         4.83080
     2008.44626        -4.58583         4.83167
     2008.44900        -7.12473         4.77373
     2008.45174        -9.42163         4.89912
     2008.45448        -4.29553         4.89739
     2008.45722        -3.41343         4.77719
     2008.45995         0.92366         4.90950
     2008.46269        -7.59424         4.80227
     2008.46543        -9.85514         4.79016
     2008.46817        -8.53904         5.02971
     2008.47091        -3.80595         4.98993
     2008.47364        -6.06785         4.79535
     2008.47638        -0.73075         4.80054
     2008.47912        -3.38365         4.81351
     2008.48186        -8.18355         4.82994
     2008.48459        -2.84646         4.88875
     2008.48733        -1.95936         4.76508
     2008.49007        -4.88526         4.80313
     2008.49281        -3.21816         4.79535
     2008.49555        -2.19607         5.05998
     2008.49828        -6.70597         5.27099
     2008.50102        -2.48887         4.97696
     2008.50376        -0.30577         5.03576
     2008.50650         4.49533         4.85069
     2008.50924         1.04942         4.81005
     2008.51197        -2.85048         5.00636
     2008.51471        -2.26838         4.94669
     2008.51745        -3.22528         4.82821
     2008.52019         3.19382         4.86799
     2008.52292         2.48491         5.00117
     2008.52566        -2.66299         4.93890
     2008.52840         0.28311         4.86799
     2008.53108         1.96012         4.98474
     2008.53388         6.70230         4.83167
     2008.53661        -2.54660         4.86107
     2008.53935        -0.71550         4.75902
     2008.54209        -1.42040         4.81264
     2008.54483        -0.14530         4.87923
     2008.54757         3.82879         4.90604
     2008.55025         4.07481         4.89220
     2008.55304         3.93599         4.86626
     2008.55578         6.38109         4.76421
     2008.55852         3.97018         4.82821
     2008.56125         1.60728         4.79967
     2008.56399         0.16538         4.82734
     2008.56673         4.03548         4.82907
     2008.56947         2.98458         4.78583
     2008.57221         9.52067         4.93717
     2008.57494         4.51677         4.96917
     2008.57768         7.70287         4.91296
     2008.58042         8.37897         4.76075
     2008.58316         6.04307         4.92247
     2008.58590         4.85016         4.72270
     2008.58863         7.02026         4.89480
     2008.59137         7.10336         4.78237
     2008.59411         5.60146         4.79102
     2008.59685         1.72655         4.80227
     2008.59958         3.66665         5.01587
     2008.60232        13.42175         4.98560
     2008.60506         4.29485         4.95447
     2008.60780         4.29695         4.85675
     2008.61054         0.76604         4.84983
     2008.61327         5.73814         4.84551
     2008.61601         8.04224         4.80918
     2008.61875         3.59534         4.82734
     2008.62149        10.69943         4.87404
     2008.62423        12.37353         4.87058
     2008.62696         8.17963         4.91642
     2008.62970         6.33473         5.06171
     2008.63244         9.53183         4.92420
     2008.63518        11.92692         4.95188
     2008.63791         7.89702         4.89048
     2008.64065         8.54012         4.87491
     2008.64333         7.89113         4.97523
     2008.64613        14.46132         5.29261
     2008.64887        11.35041         4.98474
     2008.65155         8.30343         5.11705
     2008.65434         2.04261         5.03836
     2008.65708        14.56971         5.12830
     2008.65982         2.54880         4.96744
     2008.66256        11.50490         4.96398
     2008.66529        10.32200         4.87318
     2008.66803         3.08410         4.91210
     2008.67077         9.09320         4.93545
     2008.67351         2.20929         4.91037
     2008.67624         4.27339         5.31164
     2008.67898         8.40549         4.95274
     2008.68172         9.44759         5.07122
     2008.68446         9.00368         4.92853
     2008.68720         4.59178         4.86367
     2008.68993        10.72588         4.96485
     2008.69267         9.39098         4.87491
     2008.69541         7.10008         4.89134
     2008.69815        14.84217         5.02020
     2008.70089         6.45327         4.91210
     2008.70362        10.92737         4.85588
     2008.70636        13.58147         4.82907
     2008.70910         8.05656         4.96052
     2008.71184         3.34266         5.08073
     2008.71457         7.95476         4.84464
     2008.71731         5.13886         4.88269
     2008.72005        11.50896         4.81697
     2008.72279         1.28605         5.02971
     2008.72553         3.43815         5.02366
     2008.72826        -0.56675         4.93717
     2008.73100         9.04835         4.90777
     2008.73374         6.29145         5.01760
     2008.73648         7.89754         4.79708
     2008.73921         9.01164         4.88183
     2008.74469         9.96584         4.86280
     2008.74743        10.09093         4.87058
     2008.75017        11.38703         4.80572
     2008.75290        18.07113         4.81437
     2008.75564         8.86923         4.90691
     2008.75838        14.18833         4.98301
     2008.76112        14.52242         5.03057
     2008.76386         8.15752         4.87231
     2008.76659        -1.70938         4.98906
     2008.76933         4.87372         4.94323
     2008.77207         1.05981         4.81264
     2008.77481         3.90891         4.81351
     2008.77754         6.92101         4.74086
     2008.78028         2.98511         4.75902
     2008.78308         8.07729         4.89220
     2008.78576        -1.72170         5.08938
     2008.78850         4.75940         4.85242
     2008.79123         5.29150         4.93545
     2008.79397         9.27660         4.86453
     2008.79671         1.74070         4.85761
     2008.79945         2.43479         4.96312
     2008.80219        14.35589         4.84291
     2008.80492         6.68199         5.14646
     2008.80766         6.66509         4.81697
     2008.81040        12.15818         4.87750
     2008.81314         4.23628         4.82994
     2008.81587         7.28738         5.16462
     2008.81861         5.51448         4.79967
     2008.82135         2.43158         4.86107
     2008.82409        -1.19733         5.00895
     2008.82683         6.38077         5.03922
     2008.82956         6.00187         4.95793
     2008.83230         2.10897         4.87231
     2008.83504        11.43206         4.97523
     2008.83778         5.15216         5.23121
     2008.84052         5.39326         4.87145
     2008.84325        12.03536         4.88529
     2008.84599         8.96246         4.84464
     2008.84873         1.07655         4.89220
     2008.85147         1.11965         5.00549
     2008.85420        -5.37625         5.05998
     2008.85694         3.42185         4.96052
     2008.85968         7.43095         4.89307
     2008.86242         2.33304         4.84724
     2008.86516         6.27014         5.04701
     2008.86789         4.04124         4.99339
     2008.87063         2.00534         5.00204
     2008.87337        -0.86757         4.86799
     2008.87611         6.52153         4.86972
     2008.87885        -1.91637         4.86972
     2008.88158         0.93273         4.88442
     2008.88432        -4.07917         4.87750
     2008.88706         4.30292         4.97090
     2008.88974         2.67394         5.07900
     2008.89910         4.98394        13.05856
     2008.90075        -2.74959         4.83945
     2008.90349        -0.41349         4.90518
     2008.90622         1.18661         4.91901
     2008.90896         6.20471         4.84983
     2008.91170        -5.54220         4.99339
     2008.91444         0.53990         5.05998
     2008.91718         6.97000         4.93026
     2008.91991         2.21710         4.99252
     2008.92265         0.84119         4.87923
     2008.92539         0.25729         4.94755
     2008.92813         2.41739         5.08765
     2008.93086        -1.58251         5.04095
     2008.93360        -1.44741         5.06949
     2008.93634        -3.40232         4.93372
     2008.93908        -5.56522         4.93026
     2008.94182        -2.55812         5.09889
     2008.94455       -10.47702         5.13781
     2008.94729        -2.38392         5.07468
     2008.95003        -3.60583         4.91642
     2008.95277        -6.74173         4.83253
     2008.95551        -1.31963         4.78410
     2008.95824        -5.32553         4.80140
     2008.96098         3.28556         4.88529
     2008.96372        -0.40234         4.84118
     2008.96646        -4.74824         4.85415
     2008.96919        -4.00214         4.79102
     2008.97193         1.52796         4.79708
     2008.97467        -0.39395         4.76248
     2008.97741        -9.64485         4.76940
     2008.98927        -3.52309         8.55552
     2008.99110        -5.26736         4.81697
     2008.99384        -4.03426         4.83945
     2008.99657        -3.00316         4.78065
     2008.99931        -6.13307         4.82994
     2009.00479        -0.64587         4.89566
     2009.00752        -0.51977         4.79967
     2009.01026         0.87033         4.78410
     2009.01300         1.59742         4.84637
     2009.01540        -6.16899         5.83052
     2009.02395       -10.64019         4.92939
     2009.02629       -10.26269         5.92046
     2009.02960       -15.02273         6.19720
     2009.03183       -15.61340         5.88587
     2009.03833       -11.31467         7.01876
     2009.04038       -11.07760         4.78410
     2009.04312       -14.89750         4.75643
     2009.04585       -14.17340         4.83080
     2009.04859       -11.14231         4.85242
     2009.05133       -12.13121         4.82648
     2009.05407       -10.99411         4.78929
     2009.05681       -13.47601         4.79621
     2009.05954        -9.18991         4.77892
     2009.06228       -15.25982         4.81005
     2009.06502        -8.69672         4.99166
     2009.06776        -9.63262         4.80227
     2009.07049        -9.72752         5.24245
     2009.07323        -4.65942         4.80486
     2009.07597        -7.46333         4.84118
     2009.07871        -5.75223         5.07035
     2009.08145        -2.91713         4.81351
     2009.08418        -3.66803         4.86540
     2009.08692        -5.61594         4.81610
     2009.08966        -8.60984         4.95707
     2009.09240        -7.85074         4.82389
     2009.09514        -6.85664         4.81005
     2009.09793        -5.17746         4.93026
     2009.10061        -1.47245         4.79708
     2009.10335        -6.48435         4.79708
     2009.10609        -2.11725         4.77978
     2009.10882        -6.35515         4.86453
     2009.11156       -13.12806         4.84637
     2009.11430        -1.11796         4.94323
     2009.11704        -3.39586         4.91988
     2009.11978        -2.17376         4.76162
     2009.12251        -0.42066         4.81870
     2009.12525        -2.90157         4.80140
     2009.12799        -0.86947         4.84205
     2009.13039        -5.57988         5.74923
     2009.13347       -10.04127         4.75470
     2009.13620       -10.95718         4.78497
     2009.13894       -10.02108         4.83167
     2009.14168        -7.75298         4.81783
     2009.14442        -6.56488         4.76854
     2009.14715        -8.34778         4.90691
     2009.14989        -3.51869         4.92074
     2009.15263        -6.48059         4.87923
     2009.15537        -6.03649         4.94755
     2009.15811        -8.01539         4.89480
     2009.16084        -8.36929         4.84205
     2009.16358        -1.76320         4.92593
     2009.16632        -4.22410         4.99079
     2009.16906        -0.20400         4.95534
     2009.17180        -1.46090         4.82475
     2009.17453        -5.56581         4.83599
     2009.17727        -4.41071         4.98301
     2009.18001       -10.32761         4.83599
     2009.18275        -8.98351         4.85502
     2009.18548        -7.07341         4.88096
     2009.18822       -10.42932         4.78929
     2009.19096        -8.09222         4.77286
     2009.19370        -9.53812         4.77546
     2009.19644        -4.17102         4.81178
     2009.19917         1.58007         4.99771
     2009.20191        -0.40683         4.95793
     2009.20465       -10.10673         4.93977
     2009.20739        -5.02863         4.79016
     2009.21013       -10.68753         4.76940
     2009.21292        -5.30635         5.11965
     2009.21560         4.12666         4.88269
     2009.21834        -6.03824         4.82907
     2009.22108         0.72286         4.78410
     2009.22381        -8.06204         4.93545
     2009.22655        -7.54595         4.86799
     2009.22929       -11.71785         4.94842
     2009.23203        -6.45475         4.79189
     2009.23477        -0.08765         4.88875
     2009.23750        -3.88756         5.00549
     2009.24024        -2.20446         5.08246
     2009.24298        -6.56636         4.85588
     2009.24572        -3.41326         5.12138
     2009.24846         1.49684         4.90431
     2009.25119        -4.81707         5.09543
     2009.25393        -4.63197         5.16808
     2009.25667        -9.00487         4.84983
     2009.25941        -8.95877         4.89739
     2009.26214        -5.17368         5.35228
     2009.26488        -4.55158         5.02366
     2009.26762        -0.57348         4.90518
     2009.27036        -1.88138         4.87750
     2009.27310        -8.83528         4.83945
     2009.27583        -7.21519         4.86367
     2009.27857        -9.03609         4.84896
     2009.28131        -7.64199         5.02798
     2009.28405        -6.66489         4.91210
     2009.28679        -5.86979         4.86540
     2009.28952       -10.56770         4.91642
     2009.29226        -8.57160         4.95793
     2009.29500        -9.40350         4.87318
     2009.29774        -9.39040         4.89480
     2009.30047       -11.28031         4.86194
     2009.30321       -11.57121         4.89653
     2009.30595        -1.38211         5.03836
     2009.30869        -5.96001         4.95274
     2009.31143        -2.01991         4.91728
     2009.31416        -2.52082         4.93545
     2009.31690        -9.27572         4.88702
     2009.31964       -11.01562         4.84464
     2009.32238       -12.68752         4.93977
     2009.32512        -7.33243         4.91555
     2009.32785        -8.42133         4.90431
     2009.33059       -10.33023         4.80745
     2009.33333        -3.61613         4.77373
     2009.33629       -12.35969         5.93862
     2009.33880        -3.09494         4.81091
     2009.34154        -8.87684         5.02279
     2009.34428        -1.64274         5.09025
     2009.34702        -8.21464         4.84724
     2009.34976       -10.38555         5.00117
     2009.35249        -7.01845         4.79448
     2009.35523        -9.73835         4.81610
     2009.35797        -4.09525         5.10062
     2009.36071         0.00585         5.20872
     2009.36344        -8.39906         4.97955
     2009.36618        -8.48196         5.21564
     2009.36892        -8.00386         4.86367
     2009.37166        -5.65576         4.90604
     2009.37440       -12.64266         4.90950
     2009.37713       -15.55357         4.84724
     2009.37987        -6.71647         5.24072
     2009.38261        -6.81337         4.97004
     2009.38535        -8.44727         4.88702
     2009.38809       -12.20318         4.96831
     2009.39082       -12.19308         4.83859
     2009.39356        -6.51098         4.82648
     2009.39630       -11.89988         4.85329
     2009.39904        -7.36578         4.93717
     2009.40177        -4.55169         4.83599
     2009.40451        -2.22759         5.34277
     2009.40725        -3.13349         4.86453
     2009.40999        -4.78439         4.94150
     2009.41273        -7.73630         4.94150
     2009.41552        -3.27811         4.97696
     2009.41820        -6.41510         4.92680
     2009.42094       -10.91300         4.92247
     2009.42368         1.56410         4.88183
     2009.42642        -3.51581         4.88269
     2009.42915        -3.49471         5.04528
     2009.43189        -0.98361         4.85329
     2009.43463        -6.76251         4.87664
     2009.43737        -4.25441         4.86107
     2009.44010        -1.41932         4.81524
     2009.44284        -2.82922         4.87837
     2009.44558        -6.75212         4.90172
     2009.44832        -2.93402         4.82389
     2009.45106        -6.52393         4.97955
     2009.45379        -0.41183         4.84637
     2009.45653         3.30227         4.83686
     2009.45927        -4.86163         4.84551
     2009.46201        -1.06853         4.96139
     2009.46475         2.35556         4.98474
     2009.46748        -9.82634         4.94236
     2009.47022        -1.73024         4.84378
     2009.47296         2.37086         4.90258
     2009.47570        -0.65405         4.86021
     2009.47843        -2.55495         4.95447
     2009.48117        -1.61485         4.90172
     2009.48391        -4.63075         4.87058
     2009.48665        -2.26765         5.10841
     2009.48939         1.36744         4.95793
     2009.49212        -2.14646         4.97090
     2009.49486        -3.91436         4.91901
     2009.49735         1.96237         5.44568
     2009.50034         2.86184         4.84896
     2009.50308        -4.52407         4.88615
     2009.50581         0.26503         5.15597
     2009.50855         0.19913         5.13694
     2009.51123         2.11114         5.45000
     2009.51408         1.92441         4.90864
     2009.51671         4.46434         5.06344
     2009.51950         1.49052         4.82129
     2009.52224        -4.24038         4.80399
     2009.52498        -0.84228         4.87058
     2009.52772        -4.87019         5.23986
     2009.53045        -5.26609         5.11446
     2009.53319        -0.88499         4.82043
     2009.53593         1.78911         4.80918
     2009.53867        -0.41480         4.85156
     2009.54141        -3.63270         4.80918
     2009.54414        -0.60660         5.08938
     2009.54694         1.72858         4.95620
     2009.54962         0.63460         4.81783
     2009.55236         0.70169         4.82302
     2009.55509         7.74879         4.89134
     2009.55783         5.11789         4.84810
     2009.56057         3.30999         5.08333
     2009.56331        12.11008         5.19316
     2009.56605        -4.53482         5.26840
     2009.56878         3.95028         4.90950
     2009.57152         5.23838         4.95793
     2009.57426        12.90048         4.85934
     2009.57700        10.66357         4.98474
     2009.57974        -1.01333         4.90604
     2009.58247         3.35677         4.86713
     2009.58521        11.44787         4.91642
     2009.58795        -2.48703         4.95793
     2009.59069         0.45906         4.90085
     2009.59342         0.02716         5.05133
     2009.59616         6.32626         4.89739
     2009.59890        11.55536         4.86453
     2009.60164         2.10745         4.92074
     2009.60438         0.30155         4.87058
     2009.60711         7.15065         4.85329
     2009.60985         6.76675         4.96398
     2009.61259        -0.25115         4.85761
     2009.61533         3.12094         4.93112
     2009.61807        -1.96296         4.87491
     2009.62080         7.05414         4.90085
     2009.62354         2.77824         4.92420
     2009.62628         4.06133         4.98560
     2009.62902        11.59943         4.97090
     2009.63175         9.11553         5.04960
     2009.63449         8.01463         5.00204
     2009.63723         4.85273         5.11187
     2009.63997        -2.71618         4.94669
     2009.64271         5.83892         4.90431
     2009.64544         8.07502         4.90085
     2009.64818         7.21912         5.11014
     2009.65092         4.14022         5.06257
     2009.65366         2.50231         4.98993
     2009.65639        -3.76959         5.00636
     2009.65913         3.28051         4.97869
     2009.66187        10.94361         4.87837
     2009.66461         5.12670         4.88183
     2009.66735         9.99180         5.08160
     2009.67008         4.90890         5.23121
     2009.67282         6.12000         5.40331
     2009.67556         7.82210         4.83167
     2009.67830         9.95519         5.61518
     2009.68104        10.42729         5.12484
     2009.68377        -1.94161         4.82561
     2009.68651         9.89449         5.07987
     2009.68925        14.52858         5.02971
     2009.69199         9.48968         4.85848
     2009.69472         4.23278         4.98214
     2009.69746         6.78188         4.78929
     2009.70020         7.80298         4.85761
     2009.70294        11.44307         4.83686
     2009.70568        12.08617         4.86367
     2009.70841         8.97427         4.89826
     2009.71115         3.11337         4.99425
     2009.71389         4.68047         5.07554
     2009.71663         7.09856         5.06257
     2009.71937         3.77666         4.98301
     2009.72210         1.38676         4.79881
     2009.72484         3.09186         4.99944
     2009.72758         3.78695         4.86367
     2009.73032         3.90805         4.95534
     2009.73305         4.72915         5.09198
     2009.73579         5.91125         5.30039
     2009.73847         8.80526         4.97782
     2009.74127        12.04344         5.20094
     2009.74401         8.12354         5.15857
     2009.74652         3.45430         5.77517
     2009.74960         5.57391         6.80515
     2009.75222        -0.54517         5.71291
     2009.75496         5.73893         4.85069
     2009.75775         5.83512         5.35834
     2009.76043         6.81313         4.95534
     2009.76317         6.85923         4.91210
     2009.76591         8.86032         4.83513
     2009.76865         4.75342         5.13954
     2009.77138         4.32852         4.90172
     2009.77412         4.47462         4.89912
     2009.77686         5.75371         5.27531
     2009.77960        11.24681         5.04701
     2009.78234        12.91091         5.08852
     2009.78507        12.86101         5.22083
     2009.78781         3.99911         5.04009
     2009.79055        -4.82480         5.41714
     2009.79329       -10.22470         5.58491
     2009.79603         0.03240         5.30472
     2009.79848        11.96507         5.71463
     2009.80139        -0.95858         5.15770
     2009.80430        -4.56422         5.31855
     2009.80698         4.49879         5.67312
     2009.80971         6.67389         5.26061
     2009.81245        16.11499         5.71982
     2009.81821        -3.74139         6.09774
     2009.82614         2.12248         5.76133
     2009.82779        10.53994        10.80402
     2009.83056        15.77408         9.78009
     2009.83349        -4.93253         9.04673
     2009.83933         0.45522         6.64862
     2009.84176        12.07285        10.37075
     2009.84531         4.68416         5.75528
     2009.84804         8.39326         5.40417
     2009.86179        -1.59917         5.11187
     2009.86354         8.83846         8.88328
     2009.86721         8.96894         5.34450
     2009.86995         1.04004         5.21305
     2009.87269         4.40714         5.31596
     2009.87542         6.98624         5.98618
     2009.88001        19.33811         8.61087
     2009.88364         2.88653         5.32028
     2009.93678        -7.07193        11.76395
     2009.93839        -3.16651         4.96052
     2009.94113        -2.83442         4.84205
     2009.94387        -3.14132         4.91901
     2009.94661        -0.54322         4.95534
     2009.94935         1.12088         4.88875
     2009.95208        -9.33802         4.98042
     2009.95482       -14.06693         4.91383
     2009.95756        -9.80183         4.96571
     2009.96030        -6.41773         4.83599
     2009.96303        -5.11763         4.91123
     2009.96577       -11.39054         4.98906
     2009.96851       -14.08344         5.10149
     2009.97125        -4.55134         5.07900
     2009.97399       -10.20924         4.99339
     2009.97672        -4.44414         4.82648
     2009.97946        -8.64105         4.93026
     2009.98220        -7.81095         4.85848
     2009.98494        -5.37585         4.84464
     2009.98767        -2.23775         4.77546
     2009.99041        -6.60666         4.84464
     2009.99315        -2.81156         4.84205
     2009.99589        -0.20946         4.87750
     2009.99863       -12.20136         4.87750
     2010.00410        -4.33417         4.81783
     2010.00684        -8.53107         4.83080
     2010.00958       -10.02097         4.93977
     2010.01232       -17.57587         4.92766
     2010.01505       -20.45377         4.88442
     2010.01779        -7.07568         4.84983
     2010.02053       -10.27058         5.09716
     2010.02287        -4.91608         6.12888
     2010.02600        -5.71438         4.81524
     2010.02880        -3.34720         4.97869
     2010.03696        -4.11899         5.36439
     2010.03969        -5.60089         5.28569
     2010.04243        -6.48080         5.03144
     2010.04517         5.04430         4.98906
     2010.04791         8.02440         4.89048
     2010.05065        -1.51850         4.95793
     2010.05338         1.30559         4.99598
     2010.05612         3.09169         4.89566
     2010.05886         2.38779         4.77719
     2010.06160        -6.53311         4.82302
     2010.06975        -5.68890         5.25629
     2010.07255        -9.35572         4.90777
     2010.07529        -7.50362         4.91728
     2010.07802       -13.33152         4.87750
     2010.08076        -7.27243         4.99512
     2010.08350        -3.25633         4.93026
     2010.08624         6.47477         4.84291
     2010.08898         7.18787         5.05133
     2010.09177        -0.63995         5.52870
     2010.09445         2.31006         5.09716
     2010.09685        -0.33835         5.98705
     2010.10632         1.99683         7.84638
     2010.10814        -1.23745         4.89912
     2010.11088         0.25765         4.93199
     2010.11362         0.59475         5.11273
     2010.11635        -5.19216         4.96744
     2010.11909         1.74994         4.83686
     2010.12183        -1.03696         4.92507
     2010.12457         1.52414         4.86367
     2010.12731         3.31024         5.07554
     2010.13004        -5.74367         4.89739
     2010.13278        -6.15857         4.92161
     2010.13552        -4.55647         4.85329
     2010.13826        -0.25737         4.79362
     2010.14099        -2.83027         4.77459
     2010.14373        -5.31018         4.96139
     2010.14647        -2.48208         4.99771
     2010.14921         4.65702         4.87577
     2010.15195        -4.33288         4.81870
     2010.15468         2.63621         4.86453
     2010.15742         1.41331         4.88529
     2010.16016         2.41841         4.83340
     2010.16290        -0.71849         4.86453
     2010.16564         0.48061         4.78151
     2010.16837         1.65370         4.87664
     2010.17111        -3.27120         4.76075
     2010.17385        -6.35810         4.78756
     2010.17659        -2.46000         4.81005
     2010.17932         2.72609         4.81610
     2010.18206         0.58119         4.87750
     2010.18480         2.49629         4.80140
     2010.18754        -0.03261         4.80918
     2010.19028         1.50049         4.86972
     2010.19301        -4.92942         4.92334
     2010.19575         2.68468         4.85675
     2010.19849        -1.24322         4.80659
     2010.20123        -5.34812         4.84291
     2010.20397        -0.21603         4.97782
     2010.20670        -4.10293         4.96139
     2010.20944        -6.75983         4.89739
     2010.21218        -3.39173         4.78929
     2010.21492        -1.38763         4.83080
     2010.21765         0.52446         4.99252
     2010.22039        -3.37044         4.93458
     2010.22313        -6.78734         4.91469
     2010.22587        -4.32724         4.92507
     2010.22861         2.54986         5.06257
     2010.23134        -4.13205         4.95793
     2010.23956         0.79125         4.97523
     2010.24230         3.59334         5.14127
     2010.24503        -0.37756         4.99771
     2010.24777        -1.75846         4.92074
     2010.25051         1.14364         5.15165
     2010.25325         5.65974         4.92420
     2010.25598         0.21283         4.95447
     2010.25872        10.38793         5.00463
     2010.26146         8.21603         5.16375
     2010.26420        -2.40287         5.16375
     2010.26694         7.69522         5.11273
     2010.26967        -1.19768         5.04268
     2010.27241         1.01942         4.96052
     2010.27515        -0.62148         4.91642
     2010.27789        -0.97538         4.95101
     2010.28062         0.49371         4.86972
     2010.28336        -0.48919         5.02884
     2010.28610        -6.80509         5.09025
     2010.28884        -1.16499         4.83253
     2010.29158        -2.55489         4.98042
     2010.29431        -2.80480         4.97177
     2010.29705        -1.23270         4.85675
     2010.29979         4.75740         4.98647
     2010.30253         9.96850         4.97869
     2010.30527         7.16559         5.03317
     2010.30800         0.62069         4.87491
     2010.31074        -0.28921         4.93458
     2010.31348         4.03189         4.91642
     2010.31622         3.59899         4.83253
     2010.31895         9.23208         5.09284
     2010.32169        12.54818         5.01414
     2010.32443         0.42328         4.99339
     2010.32717         2.28838         4.82475
     2010.32991         4.06047         4.92853
     2010.33264         0.62257         4.85156
     2010.33538        -2.19733         5.09198
     2010.33812        -2.37223         4.85588
     2010.34086         0.67787         4.85934
     2010.34360        -2.40004         4.78237
     2010.34633        -2.81194         4.87577
     2010.34907        -1.48384         4.81005
     2010.35181        -0.51974         4.83426
     2010.35455        -0.13265         4.83513
     2010.35728        -2.29755         4.80659
     2010.36002         0.29255         4.86540
     2010.36276         1.41965         4.81524
     2010.36550        -6.91825         5.11360
     2010.36824        -2.97016         4.97955
     2010.37097         7.21494         4.83945
     2010.37371         4.76004         4.81783
     2010.37645         3.63914         4.86280
     2010.37919        -2.62576         5.14819
     2010.38193        -2.86267         5.08246
     2010.38466         0.51343         5.00636
     2010.38740         4.99853         4.85588
     2010.39014        -3.26637         4.86107
     2010.39288        -1.13128         4.84896
     2010.39561        -6.57718         4.88875
     2010.39835         0.62792         4.80745
     2010.40109        -2.07598         4.86194
     2010.40383        -2.25388         4.86021
     2010.40657        -0.70679         4.86453
     2010.40930         1.71031         4.95015
     2010.41204        -1.82959         4.84032
     2010.41478         7.81651         4.86886
     2010.41752         7.63860         4.80486
     2010.42026         7.62270         4.77805
     2010.42299         0.99180         4.79708
     2010.42573        -4.50910         4.79621
     2010.42847        -6.84600         4.88961
     2010.43121         7.63909         4.86194
     2010.43394        -5.34081         4.76075
     2010.43668        -4.72671         4.91901
     2010.43942        -0.77261         4.88269
     2010.44216        -0.20651         4.77286
     2010.44490        -6.58842         4.72443
     2010.44763        -3.52732         4.86713
     2010.45037         1.04478         4.79362
     2010.45311        -8.72112         4.78151
     2010.45585        -0.19903         4.85761
     2010.45859        -1.65593         4.89480
     2010.46132         0.41017         4.84032
     2010.46406        -2.00073         4.81524
     2010.46680        -1.53963         4.79621
     2010.46954         6.18246         4.84551
     2010.47227        -0.44544         4.73654
     2010.47501        -4.44034         4.77546
     2010.47775         0.48176         4.92334
     2010.48049        -1.37515         4.88875
     2010.48323         0.09295         4.79016
     2010.48596         2.86805         4.81610
     2010.48870         4.79915         4.81524
     2010.49144         2.75325         4.78324
     2010.49418        -0.77066         4.74519
     2010.49692         1.25544         4.77113
     2010.49965         3.50554         4.76075
     2010.50239         2.05564         4.75730
     2010.50513         2.50874         4.71665
     2010.50787         1.46883         4.74951
     2010.51060         2.39993         4.76075
     2010.51334         6.92703         4.74951
     2010.51608         6.11313         4.79189
     2010.51882        -4.60378         4.78410
     2010.52156         0.14532         4.89566
     2010.52429         8.62942         4.78065
     2010.52703         3.33852         4.87404
     2010.52977         6.30462         4.72962
     2010.53251        -3.16029         4.76162
     2010.53525         6.10381         4.79967
     2010.53798        -2.09909         4.75211
     2010.54072         4.14301         4.82561
     2010.54346        -0.07490         4.78151
     2010.54620        -2.29780         4.79794
     2010.54893        -3.29670         4.74519
     2010.55167        -0.89660         4.78670
     2010.55441         9.79750         4.82907
     2010.55715         3.72059         4.80227
     2010.55989         0.92169         4.80832
     2010.56262         5.76779         4.77113
     2010.56536         1.33389         4.75038
     2010.56810         0.69799         4.83080
     2010.57084         5.35608         4.84032
     2010.57357        -0.16082         4.89220
     2010.57631         0.52128         4.87664
     2010.57905        -1.45062         4.87404
     2010.58179         6.13747         4.79362
     2010.58453         2.63957         4.77978
     2010.58726         1.02667         4.92334
     2010.59000         6.95477         4.95447
     2010.59274         9.51487         4.81956
     2010.59548         7.23796         4.82389
     2010.59822        12.17206         4.80140
     2010.60095        11.06616         4.89480
     2010.60369         3.78526         4.77373
     2010.60643         4.78735         4.74951
     2010.60917         6.15145         4.77805
     2010.61190         3.49255         4.82734
     2010.61464         8.16465         4.74346
     2010.61738         6.89475         4.73222
     2010.62012         5.16684         4.77459
     2010.62286         6.51894         4.78929
     2010.62559         7.55404         4.79448
     2010.62833         7.54614         4.83859
     2010.63107        10.55023         5.01068
     2010.63381        12.66433         4.74173
     2010.63655        11.31743         4.84378
     2010.63928         5.52753         4.80399
     2010.64202         6.68463         4.78843
     2010.64476         1.57672         4.85675
     2010.64750         9.89082         4.78756
     2010.65023        12.19092         4.97350
     2010.65297         5.23002         5.04873
     2010.65571         7.79412         4.71233
     2010.65845        10.21121         4.72357
     2010.66119         4.43031         4.80140
     2010.66392         9.77741         4.86886
     2010.66666         7.31851         4.79794
     2010.66940         4.39360         4.80140
     2010.67214         4.60670         4.78583
     2010.67488        11.24380         4.75297
     2010.67761        11.04790         4.74259
     2010.68035         8.07700         4.79189
     2010.68309         9.99909         4.87491
     2010.68583        10.66619         4.76854
     2010.68856         4.38629         4.70627
     2010.69130         7.76039         4.74259
     2010.69404         3.81748         4.87318
     2010.69678         2.29058         4.77892
     2010.69952         2.70568         4.77373
     2010.70225         6.22678         4.75297
     2010.70499         4.83688         4.79967
     2010.70773        13.60797         5.01933
     2010.71047         8.92107         4.83859
     2010.71321         6.73517         4.98387
     2010.71594         7.04727         4.96398
     2010.71868        13.50437         4.87837
     2010.72142        11.83846         5.04873
     2010.72416        10.54356         4.90431
     2010.72689        10.59866         4.90085
     2010.72963         5.90176         4.82648
     2010.73237         6.95985         4.85502
     2010.73511         5.26095         4.86713
     2010.73785         8.97805         5.09025
     2010.74058        -0.07985         5.04095
     2010.74332         6.26425         4.74951
     2010.74606         8.31034         4.90518
     2010.74880         4.52744         4.83513
     2010.75154         6.74554         4.71319
     2010.75416         7.79847         5.08938
     2010.75701         5.66373         4.86972
     2010.75975         3.30483         4.79794
     2010.76249         3.60293         4.73568
     2010.76522         5.21503         4.74519
     2010.76796         7.47913         4.81956
     2010.77070         3.92322         4.85934
     2010.77344         9.96432         5.03057
     2010.77618         4.89942         4.80313
     2010.77891         1.79452         4.71233
     2010.78165        -0.65038         4.74519
     2010.78439         8.67071         4.91988
     2010.78713        10.26981         4.83859
     2010.78987         6.94891         4.73135
     2010.79260         5.45601         4.71924
     2010.79534        -4.51290         4.80572
     2010.79808        11.34520         4.73913
     2010.80082         7.03730         4.71838
     2010.80355         6.94940         4.73135
     2010.80629         9.95750         4.78065
     2010.80903        10.29159         4.73740
     2010.81177         6.61469         4.93717
     2010.81451        16.05579         4.71838
     2010.81724        12.39389         4.70108
     2010.81998         3.47098         4.69157
     2010.82272         9.57208         4.73568
     2010.82546         0.06718         4.71060
     2010.82820         3.96528         4.80918
     2010.83093        13.25638         5.05392
     2010.83367         4.12847         5.10841
     2010.83641         0.59357         4.71233
     2010.83915         3.39267         4.79189
     2010.84188         5.25477         4.75816
     2010.84462         7.27686         4.81351
     2010.84736         7.91596         4.77892
     2010.85010         6.35806         4.82648
     2010.85284         7.76716         4.77027
     2010.85557         6.72526         4.73135
     2010.85831         4.56035         4.68292
     2010.86105        -3.90255         4.72703
     2010.86379        -0.58745         4.76335
     2010.86653         0.54865         4.69243
     2010.86926        -3.43925         4.77113
     2010.87200         6.89984         4.80745
     2010.87474        -1.95806         4.90258
     2010.87748         3.32004         4.85156
     2010.88021         7.72114         4.82994
     2010.88295         8.75323         4.84810
     2010.88569         2.21933         4.70454
     2010.88843        -0.06257         4.88788
     2010.89117         2.33453         4.89826
     2010.89390         5.26263         4.62584
     2010.89664         1.84472         4.62584
     2010.89938         6.56782         4.70627
     2010.90212         8.23392         4.67081
     2010.90485         3.58102         4.66649
     2010.90759         5.96711         4.73049
     2010.91033         3.20521         4.70454
     2010.91307        -2.77869         4.76767
     2010.91581         0.47741         4.69589
     2010.91854         6.75751         4.63276
     2010.92128         1.46660         4.65525
     2010.92402        -3.78830         4.63622
     2010.92676         1.99180         4.65525
     2010.92950         1.91490         4.68465
     2010.93223         2.88800         4.66130
     2010.93497         0.54609         4.69935
     2010.93771         2.85719         4.78065
     2010.94045        -0.89971         4.80486
     2010.94318         1.32839         4.63449
     2010.94592         4.70948         4.80399
     2010.94866         6.88458         4.74951
     2010.95140         6.68968         5.01933
     2010.95414         4.44578         4.67946
     2010.95687        -0.97312         4.71838
     2010.95961        -4.55203         4.71578
     2010.96235         2.78407         4.71838
     2010.96509         4.40317         4.73395
     2010.96783        -2.47473         4.71924
     2010.97056        -0.69764         4.70368
     2010.97330         1.40546         4.70714
     2010.97604        -2.47744         4.65006
     2010.97872        -2.48143         4.89220
     2010.98151        -3.54424         4.73827
     2010.98425        -2.42615         4.74432
     2010.98699         3.01995         4.68119
     2010.98973         1.95005         4.79967
     2010.99247        12.09815         4.85675
     2010.99520         0.69325         4.77373
     2010.99794        -7.46866         4.68119
     2011.00342         1.11354         4.66736
     2011.00616         0.83864         4.62066
     2011.00889         2.37573         4.72962
     2011.01163        -0.78217         4.72270
     2011.01437         2.12393         4.68898
     2011.01711        -2.35897         4.83253
     2011.01984        -1.41487         4.69849
     2011.02258       -14.69678         4.82475
     2011.02532        -7.07868         4.80140
     2011.02806        -0.06358         4.92593
     2011.03080        -4.02248         4.79881
     2011.03353        -1.07139         4.71319
     2011.03627        -2.56129         4.70541
     2011.03901        -4.21819         4.71405
     2011.04175         9.03291         4.89134
     2011.04449        -5.56599         4.69071
     2011.04722        -4.16690         4.85329
     2011.04996        -5.97480         4.85242
     2011.05270        -5.69570         4.71751
     2011.05544        -7.46660         4.86021
     2011.05817         5.07549         4.70195
     2011.06091         2.18659         4.73568
     2011.06365        -0.79131         4.68033
     2011.06639         2.90279         4.76681
     2011.06913        -7.38811         4.98387
     2011.07186       -10.61802         4.70714
     2011.07460        -5.21992         4.70368
     2011.07734         0.08218         4.70627
     2011.08008        -4.36972         4.68552
     2011.08282        -8.37862         4.69157
     2011.08555       -12.26753         4.69849
     2011.08829        -6.68043         4.71060
     2011.09103       -11.29233         4.72184
     2011.09377        -6.05323         4.74000
     2011.09650        -5.45114         4.72097
     2011.09924        -5.98604         4.71146
     2011.10198        -1.99694         4.79881
     2011.10472        -1.80584         4.67341
     2011.10746        -6.95574         4.73654
     2011.11019        -8.08365         4.65438
     2011.11293        -3.59155         4.76335
     2011.11567        -3.38745         4.84464
     2011.11841         1.82065         4.78929
     2011.12115        -4.89126         4.79016
     2011.12388        -3.05716         4.89134
     2011.12662        -2.75006         4.81610
     2011.12936        -5.15096         4.78670
     2011.13210        -4.63086         4.66995
     2011.13483        -4.59177         4.63276
     2011.13757        -0.00767         4.66563
     2011.14031        -4.92857         4.66649
     2011.14305       -15.91847         4.85156
     2011.14579       -12.43937         4.88961
     2011.14852       -10.86628         4.75124
     2011.15086        -1.64978         5.57367
     2011.15400         0.86192         4.63622
     2011.15674        -2.22498         4.70022
     2011.16221        -1.11879         4.66736
     2011.16495        -1.51669         4.74259
     2011.16769        -7.84359         4.70541
     2011.17043       -13.05349         4.75384
     2011.17316       -17.36840         4.76421
     2011.17590        -8.46730         4.69676
     2011.17864        -3.00020         4.71233
     2011.18138        -0.71210         4.70368
     2011.18412        -8.87501         4.70973
     2011.18685        -2.26191         4.89826
     2011.18959        -2.96681         4.76594
     2011.19233        -4.93071         4.71233
     2011.19507        -1.13661         4.79794
     2011.19780        -4.01852         4.79275
     2011.20054        -5.44042         4.86540
     2011.20328        -0.48032         4.85069
     2011.20602        -2.40322         4.90518
     2011.20876        -1.71412         4.75211
     2011.21149        -8.35303         4.71665
     2011.21423        -4.27393         4.69589
     2011.21697        -0.41983         4.83686
     2011.21971        -4.84873         4.79448
     2011.22245        -6.05664         4.70887
     2011.22518         0.13046         4.69330
     2011.22792         1.73656         4.76075
     2011.23066        -0.39234         4.72876
     2011.23340        -0.27424         4.77892
     2011.23613        -6.57715         4.73049
     2011.23887        -6.00805         4.70973
     2011.24161        -3.73295         4.80832
     2011.24435        -1.09485         4.80832
     2011.24709        -1.52476         4.80486
     2011.24982        -7.04766         4.78151
     2011.25256        -4.70456         4.67600
     2011.25530        -6.88146         4.71319
     2011.25804        -5.90236         4.94063
     2011.26078         2.14873         4.80227
     2011.26351        -3.40917         4.72011
     2011.26625       -13.97807         4.66130
     2011.26899        -4.82097         4.71319
     2011.27173        -5.77588         4.82389
     2011.27446        -6.92078         4.90950
     2011.27720        -6.69668         4.83167
     2011.27994        -7.63758         4.70541
     2011.28268        -5.62948         4.74086
     2011.28542        -5.56339         4.79794
     2011.28815        -6.70929         4.74605
     2011.29089        -6.01219         4.76248
     2011.29363       -10.27609         4.71319
     2011.29637        -7.12399         4.70368
     2011.29911        -4.11090         4.71492
     2011.30184        -5.73880         4.87231
     2011.30458        -0.91370         4.65265
     2011.30732        -1.74860         4.65784
     2011.31006         0.33449         4.71405
     2011.31279        -4.17641         4.69676
     2011.31553        -1.01231         4.71146
     2011.31827         0.12079         4.72530
     2011.32101        -7.34611         4.70973
     2011.32375       -11.15602         4.68379
     2011.32648       -14.96892         4.71665
     2011.32922       -11.08182         4.66909
     2011.33196        -6.77772         4.80832
     2011.33470       -14.74763         4.89739
     2011.33744       -15.16753         4.69849
     2011.34017       -11.74743         4.86799
     2011.34291        -4.32133         4.86453
     2011.34565         1.77477         4.84205
     2011.34839        -4.40014         4.84637
     2011.35112        -4.79104         4.70887
     2011.35386       -14.90994         4.82994
     2011.35660       -10.72784         4.74778
     2011.35934       -19.25874         4.77805
     2011.36208       -12.45065         4.71233
     2011.36481       -11.97155         4.82734
     2011.36755        -7.14045         4.83080
     2011.37029        -7.49735         4.91988
     2011.37303        -5.42526         4.83167
     2011.37577        -5.44916         4.78065
     2011.37850       -12.11106         4.80399
     2011.38124       -14.93996         4.72270
     2011.38398       -10.59086         4.79102
     2011.38672       -13.83777         4.80140
     2011.38945        -8.54967         4.80399
     2011.39219        -7.92457         4.78324
     2011.39493       -13.29347         4.82302
     2011.39767        -8.87638         4.81005
     2011.40041       -10.91828         4.87664
     2011.40314       -10.98718         4.85415
     2011.40588        -5.12308         4.75384
     2011.40862        -9.38198         4.79794
     2011.41136        -8.86789         4.81437
     2011.41410        -8.32579         4.88875
     2011.41683        -8.37869         4.87231
     2011.41957        -5.08159         4.83599
     2011.42231       -15.03949         4.75730
     2011.42505        -7.83640         4.82302
     2011.42778       -11.29430         4.75816
     2011.43052       -15.45120         4.83253
     2011.43326       -10.91910         4.81870
     2011.43600       -12.14601         4.76335
     2011.43874       -11.24091         4.85761
     2011.44119       -16.40524         5.47768
     2011.44421        -8.93671         4.77200
     2011.44695       -12.33361         4.87837
     2011.44969       -12.46452         4.84032
     2011.45243       -10.20942         4.83945
     2011.45516       -12.53232         4.75470
     2011.45790       -11.08922         4.80918
     2011.46064        -5.33913         4.86972
     2011.46338       -14.56903         4.79016
     2011.46611        -3.95893         4.76854
     2011.46885        -8.92483         4.82129
     2011.47159       -10.13073         4.90777
     2011.47433        -6.64164         4.86453
     2011.47707        -4.61454         4.79967
     2011.47980         1.05356         4.78756
     2011.48254        -4.82434         4.85329
     2011.48528        -5.96425         4.96658
     2011.48802        -3.51915         4.86540
     2011.49076        -3.35705         4.87058
     2011.49349        -2.86595         4.83426
     2011.49623        -0.70585         4.83599
     2011.49897        -2.38176         4.92161
     2011.50171        -6.41366         4.87923
     2011.50444        -5.19256         4.84896
     2011.50718        -4.10346         4.82561
     2011.50992         0.89864         4.82216
     2011.51266        -2.51127         4.87577
     2011.51540        -3.73217         4.83599
     2011.51813        -1.22207         4.85502
     2011.52087         1.81503         4.84032
     2011.52361        -0.69088         4.82302
     2011.52635        -1.48278         4.81351
     2011.52908         5.96032         4.92507
     2011.53182        -0.79858         4.94582
     2011.53456        -4.74348         4.82389
     2011.53730        -3.29939         4.80745
     2011.54004         0.00571         4.83599
     2011.54277        -0.98219         4.85329
     2011.54551        -1.72009         4.87231
     2011.54825        -4.70600         4.86540
     2011.55099        -3.13490         4.94323
     2011.55373        -1.49980         4.80313
     2011.55646         1.32230         4.79275
     2011.55806        -6.82631        13.95104
     2011.56194         4.36749         4.91037
     2011.56468         2.43559         4.82043
     2011.56741         3.74769         4.78843
     2011.57031         0.53403         5.15770
     2011.57289        -1.62011         4.82734
     2011.57563         2.89598         4.84464
     2011.57837         4.24808         4.83253
     2011.58110        -4.81182         4.79967
     2011.58384        -5.66372         4.88442
     2011.58658         3.94337         4.99079
     2011.58932         4.07847         4.82821
     2011.59206        -0.95043         4.84983
     2011.59479         5.84767         4.81437
     2011.59753        -0.86823         4.87058
     2011.60027         4.56986         4.77286
     2011.60301         7.38396         4.85242
     2011.60574         9.68506         4.81091
     2011.60861         8.51535         5.28483
     2011.61122         3.76725         5.02884
     2011.61396         8.24735         4.88356
     2011.61670         5.80545         4.89393
     2011.61943         6.43855         4.89480
     2011.62217         4.16165         4.91296
     2011.62491        -1.88726         4.82561
     2011.62765         3.76684         4.84724
     2011.63039         4.70594         4.75902
     2011.63312        10.48104         4.78756
     2011.63586         8.93713         4.85069
     2011.63860         5.74623         4.99944
     2011.64134        12.17133         5.08765
     2011.64407         2.49543         4.87923
     2011.64681        13.11553         4.89566
     2011.64955        16.71162         5.01068
     2011.65229         6.91272         4.87491
     2011.65503         3.32482         4.99425
     2011.65776         1.14192         4.95620
     2011.66050         9.79002         4.94236
     2011.66324         9.46311         4.82734
     2011.66598         4.61021         4.96398
     2011.66872         5.61631         4.96398
     2011.67145         9.50341         4.82561
     2011.67419        12.64850         4.80227
     2011.67693        16.10860         4.79967
     2011.67967        11.56670         4.78583
     2011.68240         6.70280         4.95015
     2011.68514         9.28390         4.94842
     2011.68788         5.02999         4.96312
     2011.69062        14.54609         4.99425
     2011.69336        11.58819         4.90604
     2011.69609         5.12329         4.96398
     2011.69883         7.61138         4.92161
     2011.70157         7.59248         4.87837
     2011.70431        11.16158         4.89220
     2011.70705        12.79468         4.96571
     2011.70978         8.67978         4.91815
     2011.71252         8.79187         4.89566
     2011.71526         9.82097         5.00982
     2011.71800        14.93807         5.01328
     2011.72073        20.78917         4.87145
     2011.72347         9.51427         5.04873
     2011.72621        23.10836         5.51486
     2011.72895        18.49746         4.90258
     2011.73157        16.15339         5.84609
     2011.73442        10.22466         4.94582
     2011.73716        13.39975         4.98820
     2011.73939         3.68708         5.98445
     2011.75359        11.92734         5.02884
     2011.75633        14.09044         4.87058
     2011.75906        15.22054         4.89653
     2011.76180        11.89663         4.93199
     2011.76454        11.92373         5.31682
     2011.76728         4.50683         4.94496
     2011.77002         3.75493         5.01241
     2011.77275        18.45303         5.21564
     2011.77549        12.59312         4.93977
     2011.77823         7.49922         4.94582
     2011.78097         6.37632         4.88702
     2011.78371         6.59342         4.84205
     2011.78644        12.95752         4.79102
     2011.78918         5.72961         4.82216
     2011.79192         4.66071         4.84032
     2011.79466        -0.98419         4.80227
     2011.79739         7.94991         4.86972
     2011.80013         9.68900         4.84983
     2011.80287        14.28010         4.82821
     2011.80561         6.57620         5.18278
     2011.80835        10.87230         4.93458
     2011.81108         6.16040         4.84118
     2011.81382         2.10249         5.00376
     2011.81656         4.53959         4.77286
     2011.81930         8.89169         4.82389
     2011.82203         9.67979         4.89739
     2011.82477         1.80288         4.81870
     2011.82751         0.06898         4.96398
     2011.83025         2.04408         4.89566
     2011.83299        -0.65382         4.81610
     2011.83572         4.60428         4.87058
     2011.83846        -4.95463         4.89566
     2011.84120         7.52847         4.86886
     2011.84394        10.03857         4.79621
     2011.84668         7.10267         4.74432
     2011.84941        -0.07624         4.76075
     2011.85215        -3.23514         4.82734
     2011.85489        -2.07904         4.87750
     2011.85763         0.83206         4.89480
     2011.86036        10.00516         4.87058
     2011.86310        10.72225         4.86021
     2011.86584         7.89835         4.88875
     2011.86858         9.67845         4.84983
     2011.87132         6.03755         4.81178
     2011.87405         2.83465         4.77632
     2011.87679         8.34774         4.86626
     2011.87953        11.19784         4.92247
     2011.88227         2.71294         4.78929
     2011.88501         8.34304         4.76335
     2011.88774         3.32813         4.81091
     2011.89048         6.69323         4.82475
     2011.89322         4.93333         5.00031
     2011.89596         1.51343         4.82561
     2011.89869         3.55453         4.96571
     2011.90143        -0.86838         4.81091
     2011.90417         3.48472         4.86886
     2011.90691         4.38982         4.82907
     2011.90965         2.89892         4.82475
     2011.91238         3.35901         4.88615
     2011.91512        -1.90989         4.81524
     2011.91786         0.46521         4.93717
     2011.92060        -5.40569         4.74000
     2011.92334        -2.98459         4.83945
     2011.92607        -2.70850         4.90431
     2011.92881        -2.80240         4.84464
     2011.93155        -0.44830         4.86021
     2011.93429        -1.39220         4.81610
     2011.93702         0.12890         4.80745
     2011.93976         0.36599         4.89912
     2011.94250         4.70009         4.90085
     2011.94524         0.58819         4.88702
     2011.94798         5.21229         4.86540
     2011.95071         4.60538         4.76594
     2011.95345         3.66648         4.90950
     2011.95619         0.75558         4.91123
     2011.95893         1.10668         4.73827
     2011.96167         9.05878         4.86713
     2011.96440         2.82287         4.81091
     2011.96714         7.43097         4.80313
     2011.96988         9.82107         4.72789
     2011.97262         1.29017         4.69676
     2011.97535        -2.22074         4.81005
     2011.97809        -3.73764         4.75297
     2011.98083         6.49846         4.76940
     2011.98357         4.79156         4.68552
     2011.98631         6.81766         4.79967
     2012.33128        -0.61402         4.90604
     2012.33401        -6.18192         4.89739
     2012.33675        -3.42882         4.73222
     2012.33949        -6.06573         4.77978
     2012.34223       -13.52463         4.66995
     2012.34496       -11.55753         4.73654
     2012.34770        -6.37643         4.75557
     2012.35044        -7.63133         4.70108
     2012.35318        -4.66724         4.72270
     2012.35592        -6.81314         4.77200
     2012.35865        -9.39804         4.70800
     2012.36139        -7.02094         4.69589
     2012.36413        -4.60184         4.72962
     2012.36687        -4.47275         4.68206
     2012.36961        -0.09265         4.73049
     2012.37234        -2.62255         4.74432
     2012.37508        -8.74545         4.72270
     2012.37782        -2.54136         4.81437
     2012.38329         0.20084         4.80054
     2012.38603         0.03594         4.96571
     2012.38877        -2.13496         4.84378
     2012.39151         2.74713         4.89134
     2012.39425        -0.73977         4.82475
     2012.39698        -7.99567         4.77719
     2012.39972        -3.69657         4.71405
     2012.40246        -5.59448         4.69330
     2012.40520        -1.45838         4.76681
     2012.40794        -5.41628         4.63968
     2012.41067        -2.28318         4.66995
     2012.41341        -1.53408         4.69849
     2012.41615        -2.18599         4.81264
     2012.41889         2.22911         4.87404
     2012.42162         3.21921         4.72011
     2012.42436         2.36331         4.68725
     2012.42710        -2.43459         4.70541
     2012.42984        -0.46350         4.66130
     2012.43258        -3.86540         4.77978
     2012.43531         0.69270         4.76940
     2012.43805        -1.37120         4.72270
     2012.44079        -6.73211         4.66649
     2012.44347        -9.20309         4.86280
     2012.44604         0.99875         5.13522
     2012.44855         3.78150         6.16174
     2012.45111        -1.56665         6.52582
     2012.45448        -5.27562         4.68206
     2012.45687         3.02797         5.59356
     2012.45995         1.29358         4.79881
     2012.46269         5.26068         4.74173
     2012.46543        -2.18623         4.75730
     2012.46817         1.32287         4.75124
     2012.47091        -4.64903         4.70541
     2012.47364         2.13207         4.75902
     2012.47638         1.17217         4.75384
     2012.47912         3.88126         4.73222
     2012.48186         0.51336         4.73308
     2012.48459         1.41946         4.66649
     2012.48733        -4.45244         4.75211
     2012.49007         0.67666         4.80659
     2012.49281         2.96075         4.68811
     2012.49543         2.32768         4.92507
     2012.49811         3.82769         5.00982
     2012.50068        -0.34747         5.53994
     2012.50319         5.10829         6.61663
     2012.50576         4.53013         7.10784
     2012.50827         4.26789         9.71350
     2012.51083         1.48073        13.90088
     2012.51454        -2.39072         4.97955
     2012.51705         0.75704         5.71550
     2012.52019        -0.05627         4.83340
     2012.52292        -2.40617         4.73308
     2012.52566         2.42193         4.72011
     2012.52840         1.12602         4.63882
     2012.53114         2.40712         4.88442
     2012.53388         6.26822         4.75211
     2012.53644         2.89206         5.18624
     2012.53901         8.11490         5.43790
     2012.54158         6.84175         6.01386
     2012.54409         6.56550         6.84926
     2012.54665        21.95534         8.35143
     2012.54928         1.08827        10.51344
     2012.55304         4.06890         4.82821
     2012.55555         5.71366         5.05133
     2012.55738        -7.07061        12.76453
