# ================= DQRFIT RESULTS ================
# INPUT FILE: series/GRSV.rad
# OUTPUT: LDETRENDED
# FILTER FUNCTION: f(t)
# f(t)=+line(t)+annual(t)
# line(t)=+P 1+P 2*t
# annual(t)=+P 3*sin(2*pi*t+P 4)
# heav(t)=(t<0?0:1)
# TOTAL OBSERVATIONS MTOT= 3612
# INITIAL TIME INTERVAL= 2022.7488 - 2009.8261 = 12.9227
# TOTAL OBSERVATIONS AFTER PREFILTER M= 3609
# TIME-SPAN= 2022.7488 - 2009.8261 = 12.9227
# OBSERVATIONS: USED M=  3609 REJECTED MTOT-M=     3 %USED=   99.9169
# N=  4 PARAMETERS
# MAXSIG= 175.00000
# MAXRES=  28.43104
# SCALE FACTOR FOR LENGTHS: SCL=  10.00000
# SCALE FACTOR FOR SIGMAS: SCLSIG=   1.00000
# CHI^2=   2734.368 DOF=  3605 CHI^2/DOF=   0.75849
# RMS=      4.976 SDEV=      4.977 MEAN=    0.04108
#  P #       PARAMETER +-    SIGMA %error PARAMETER NAME
# P 1 =      3844.88905 +-   51.654   1.34 YZERO                              
# P 2 =        -1.90803 +-    0.026   1.34 SLOPE                              
# P 3 =         4.52762 +-    0.113   2.50 ANNUAL AMPLITUDE                   
# P 4 =        -2.93807 +-    0.035   1.18 ANNUAL PHASE                       
#       T            LDETRENDED       SIG_OBS
     2009.82614         2.33992         4.95115
     2009.82888         7.33515         5.02170
     2009.83162        13.17537         5.31345
     2009.83436        -4.20741         4.92764
     2009.83709        -0.80818         5.03650
     2009.83983        -6.26896         4.98860
     2009.84257         4.46027         4.92502
     2009.84531         1.01449         5.04782
     2009.84804         4.92571         5.49809
     2009.85078         1.11994         5.03302
     2009.85352         0.05016         4.93809
     2009.85626         0.17038         4.97118
     2009.85905        -2.96328         5.06873
     2009.86173        -3.80617         4.90586
     2009.86447         5.21806         5.21939
     2009.86721         1.18728         5.10356
     2009.86995         1.03250         5.00602
     2009.87269         6.09573         5.15930
     2009.87548         1.06306         5.14885
     2009.87816         4.38218         5.05479
     2009.88090         1.08840         5.24291
     2009.88364         4.36262         4.96683
     2009.88620         3.00352         5.40229
     2009.88911         7.78407         5.28471
     2009.89185         6.66730         4.94854
     2009.89459        -1.08048         4.87538
     2009.89733        -6.46226         4.89541
     2009.90006        -7.32003         4.89280
     2009.90280        -0.19781         4.88932
     2009.90554         2.56042         4.90412
     2009.90828        -5.85036         4.85013
     2009.91102        -8.27814         4.98163
     2009.91375        -2.18791         4.82574
     2009.91649        -5.55469         4.85535
     2009.91929        -8.88036         4.96683
     2009.92197        -7.25324         4.81703
     2009.92470        -9.59702         4.82226
     2009.92744        -5.43279         4.84577
     2009.93018        -6.42557         4.78829
     2009.93292        -3.77535         4.82574
     2009.93566        -3.44912         5.11750
     2009.93839        -3.51490         4.97989
     2009.94113        -1.27567         4.85622
     2009.94387        -1.48645         4.94767
     2009.94661         1.10777         4.91632
     2009.94935         0.62700         4.82487
     2009.95208        -6.15178         4.85187
     2009.95482       -15.42555         4.82226
     2009.95750        -7.39344         5.18630
     2009.96030        -8.40411         4.85013
     2009.96303       -10.58788         4.83706
     2009.96577        -5.35366         4.91370
     2009.96851       -10.51644         4.94593
     2009.97125        -5.45021         4.95028
     2009.97399         0.06701         4.89019
     2009.97672        -7.37076         4.77174
     2009.97952       -12.37243         4.91632
     2009.98220       -10.89032         4.77784
     2009.98494        -7.87809         4.92415
     2009.98767        -6.04687         4.76913
     2009.99041        -8.24264         4.73691
     2009.99315        -8.43642         4.80919
     2009.99589        -8.48520         4.74475
     2009.99863       -11.83197         4.79352
     2010.00410       -12.06452         4.75258
     2010.00684       -14.23730         5.13230
     2010.00958        -7.68208         4.82835
     2010.01232        -7.58285         4.92938
     2010.01505       -13.87163         4.80048
     2010.02059        -9.64307         4.85884
     2010.02327       -17.51596         4.78829
     2010.02600       -15.92673         4.76478
     2010.02874       -13.74851         5.11663
     2010.03148        -9.90229         4.96073
     2010.03422        -7.48306         4.87103
     2010.03696        -5.69684         5.06002
     2010.03969         2.93139         4.89106
     2010.04243        -2.99739         4.78307
     2010.04517         3.60083         4.77610
     2010.04796         3.10617         4.90499
     2010.05065        -0.31672         4.89541
     2010.05338         6.69851         5.24117
     2010.05612         3.43573         5.02779
     2010.05886         3.39395         4.76216
     2010.06160        -2.94082         4.77000
     2010.06433        -5.01060         4.76826
     2010.06707        -3.79637         4.77610
     2010.06981       -10.01015         4.87625
     2010.07255        -8.92993         4.87712
     2010.07529        -5.51470         4.88670
     2010.07797        -7.25759         5.66095
     2010.08076        -5.86125         4.84664
     2010.08350        -4.23203         4.73604
     2010.08629        -1.09370         4.83968
     2010.08898         6.77142         4.89541
     2010.09171         5.82464         4.75084
     2010.09451         0.76097         4.92677
     2010.09719         0.30209         4.89106
     2010.09993        -6.48569         4.76303
     2010.10266        -3.35046         5.08353
     2010.10540        -2.61524         4.83445
     2010.10814        -0.86102         4.83097
     2010.11088        -5.25979         4.91893
     2010.11362        -2.35557         4.82313
     2010.11635        -1.98234         4.80484
     2010.11909        -3.37412         4.79352
     2010.12183        -3.54490         4.79700
     2010.12457        -3.96567         4.77784
     2010.12731        -1.81045         5.26904
     2010.13004        -8.31122         4.81790
     2010.13278        -9.49200         4.81442
     2010.13552       -10.11578         4.80919
     2010.13826        -5.18555         4.75694
     2010.14099        -4.82633         4.72384
     2010.14373        -6.36211         4.88758
     2010.14647        -5.74088         4.89280
     2010.14921        -4.20666         4.81877
     2010.15195        -9.25843         4.73168
     2010.15468        -3.53321         4.72733
     2010.15748        -1.63188         4.85100
     2010.16016        -1.72776         4.73952
     2010.16290        -7.17154         4.75345
     2010.16564        -6.90731         4.79874
     2010.16837        -6.39309         4.79003
     2010.17111        -3.39787         4.74997
     2010.17385        -7.96064         4.99905
     2010.17659        -4.89542         4.72210
     2010.17932         0.57081         4.71513
     2010.18206         1.28103         4.74736
     2010.18480        -6.51575         4.74997
     2010.18754         0.00948         4.70294
     2010.19028        -1.70430         4.74387
     2010.19301        -3.47407         4.74475
     2010.19575        -1.87185         5.11576
     2010.19849        -4.79763         5.06002
     2010.20123       -12.27240         4.74823
     2010.20397        -8.72918         4.85535
     2010.20670        -9.34596         4.87625
     2010.20944        -8.66973         4.76216
     2010.21218        -4.79951         4.78829
     2010.21492        -5.23228         4.74562
     2010.21765        -4.38706         4.77784
     2010.22039        -5.10384         4.91283
     2010.22313       -11.69661         4.74126
     2010.22587        -4.84339         4.83793
     2010.22861        -4.49916         4.87451
     2010.23134        -8.92094         4.81006
     2010.23408       -11.53172         4.86058
     2010.23956        -1.32727         4.91719
     2010.24230        -2.55104         5.82903
     2010.24503        -4.59182         5.11576
     2010.24777        -3.86760         4.88148
     2010.25051         1.15463         5.09747
     2010.25325         2.48485         4.90325
     2010.25598         4.10808         4.91719
     2010.25872         1.50730         4.89977
     2010.26146        -1.91848         4.96683
     2010.26420        -1.82125         5.04173
     2010.26694         3.35297         5.21591
     2010.26967        -0.07881         4.89803
     2010.27241        -2.30658         4.89193
     2010.27515        -4.94936         4.82835
     2010.27789        -1.64413         4.87538
     2010.28062        -2.88591         4.82835
     2010.28336        -6.41169         4.86406
     2010.28610        -2.01646         4.87800
     2010.28884       -10.15324         5.39706
     2010.29158        -6.12001         4.91196
     2010.29437        -5.34868         4.99470
     2010.29705        -0.20157         4.73952
     2010.29985         1.03677         4.95115
     2010.30253         3.38488         4.81964
     2010.30527         6.66011         4.95202
     2010.30800         3.13933         4.81181
     2010.31074         1.63155         5.63482
     2010.31348        -2.54922         5.09660
     2010.31622         3.92700         4.75433
     2010.31895         4.59222         4.96247
     2010.32169         8.31645         4.86493
     2010.32443         6.86067         4.94767
     2010.32723        -3.93799         4.84838
     2010.32991         0.38912         4.82487
     2010.33264         5.42434         4.82487
     2010.33538        -1.51143         5.23768
     2010.33812         1.68479         4.86145
     2010.34086        -6.47698         4.74039
     2010.34360        -7.34376         4.72036
     2010.34639        -2.58743         4.90761
     2010.34913        -5.20920         4.90151
     2010.35187        -0.95098         4.87103
     2010.35455         1.14814         4.72994
     2010.35728        -9.39064         5.68185
     2010.36002        -3.53342         4.99644
     2010.36276        -0.46619         4.75694
     2010.36550        -4.52497         4.95638
     2010.36824         0.77626         4.87016
     2010.37103         5.35059         4.84403
     2010.37371         8.46170         4.82139
     2010.37645         1.25393         4.79613
     2010.37919        -1.10685         5.15756
     2011.87177         1.15205         5.89174
     2011.87405        -0.61460         4.69597
     2011.87953        -0.37015         4.78045
     2011.88227         5.28208         4.71339
     2011.88501         0.76030         4.74126
     2011.88774        -1.55748         4.79613
     2011.89048        -1.16825         4.74910
     2011.89322         1.49897         4.82922
     2011.89869         2.46642         4.78829
     2011.90143        -4.48936         4.88061
     2011.90417         2.71287         4.87712
     2011.90691         2.65209         4.75868
     2011.90965         2.69431         4.72297
     2011.91238        -3.92146         4.87103
     2011.91786        -1.52001         4.88758
     2011.92060        -3.68179         4.75084
     2011.92613        -7.82823         4.95289
     2011.92881        -5.68712         5.00079
     2011.93155         2.74411         4.80658
     2011.93702        -2.57245         4.80658
     2011.93976        -0.47122         4.82226
     2011.94250        -0.93500         4.83445
     2011.94524        -0.55877         4.78394
     2011.94798         3.63645         4.78394
     2011.95071         1.80667         4.70294
     2012.02863         2.23534        17.11087
     2012.03559         2.03261         4.66549
     2012.03833         3.61684         4.64982
     2012.04106         5.27706         4.64198
     2012.04300         5.07176         7.13715
     2012.04700         2.73838         5.81858
     2012.05207        -2.16393         4.68291
     2012.05475        10.20418         4.70643
     2012.05641         1.91734         9.89185
     2012.06040         1.11496         5.06263
     2012.06297        -2.24815         4.70555
     2012.06570        -2.26092         4.67856
     2012.07118        -8.65548         4.59234
     2012.07392        -1.83625         4.60453
     2012.07666        -5.66903         4.64633
     2012.07939         2.91720         4.85361
     2012.08213         1.46242         4.64894
     2012.08453         0.42499         5.41361
     2012.09034        -7.62991         4.62978
     2012.09308        -1.15068         4.69075
     2012.09582        -3.03546         4.69336
     2012.09856        -3.74924         4.66027
     2012.10130        -4.54601         4.72559
     2012.10392        -4.81901         4.78394
     2012.10934         1.24933         5.11663
     2012.11225        -1.84612         4.75694
     2012.11498        -2.01689         4.67856
     2012.11772         1.79033         4.70033
     2012.12046         2.01256         4.76129
     2012.12320        -0.41922         4.72123
     2012.12867        -5.05277         4.83271
     2012.13141        -5.28755         4.75345
     2012.13415        -2.37233         4.72907
     2012.13689        -1.39910         4.76478
     2012.13963         2.15512         4.93635
     2012.14236         2.51535         5.04173
     2012.14784        -6.58821         4.66810
     2012.15058         0.55002         4.75607
     2012.15331        -1.68776         4.68465
     2012.15600        -4.24664         4.86319
     2012.15845        -3.77996         5.56689
     2012.16153         2.57091         4.70033
     2012.16700        -2.79364         4.73342
     2012.16974        -1.84541         4.69510
     2012.17248        -6.64519         4.65591
     2012.17522        -5.11297         4.86754
     2012.17796         0.23126         4.75084
     2012.18069        -7.05552         4.68901
     2012.18617        -6.96707         4.67943
     2012.18891        -0.45885         4.81268
     2012.19164         1.83238         5.90829
     2012.19438         1.41860         4.79439
     2012.19712         3.50782         4.71862
     2012.19986        -3.09895         4.94854
     2012.20533         2.26850         4.83358
     2012.20807         0.38672         4.72994
     2012.21081         1.45494         4.69859
     2012.21343        -2.59205         4.89716
     2012.21783        -7.75667        12.52986
     2012.22096        -9.41068         8.63948
     2012.22381       -10.21824         6.90374
     2012.22741        -4.56739         5.07918
     2012.23277        -1.58316         4.78829
     2012.23539        -0.13915         4.80658
     2012.23745        -8.90923         7.26082
     2012.24144         5.53739         5.87955
     2012.24366         1.32363         4.71078
     2012.24640         0.03785         4.67072
     2012.24914         0.27508         4.62804
     2012.25188        -5.92270         4.66201
     2012.25462        -8.49747         4.69249
     2012.25735        -3.12825         4.68291
     2012.26283        -9.53180         4.61672
     2012.26557        -6.20258         4.60975
     2012.26819       -15.04657         7.06835
     2012.27110        -3.79402         4.86580
     2012.27378        -4.22091         4.67856
     2012.27658        -4.59057         4.71513
     2012.28199        -1.89323         4.62891
     2012.28473        -0.25301         4.63414
     2012.28747        -5.95379         4.63501
     2012.28901       -15.48085        14.69060
     2012.29295        -8.02334         4.64894
     2012.29568        -5.96311         4.65765
     2012.30116        -9.05967         4.79526
     2012.30390        -7.18344         4.67246
     2012.30663       -11.62422         4.66985
     2012.30937        -1.96300         4.76391
     2012.31211        -4.76577         4.88583
     2012.31485        -5.48055         4.78307
     2012.32032        -6.94110         4.73952
     2012.32306        -9.43488         4.62282
     2012.32580        -7.54065         4.64982
     2012.32854        -4.09043         5.12795
     2012.33128         0.14880         4.76129
     2012.33401        -4.36198         4.72994
     2012.33955        -6.32842         4.73865
     2012.34223       -12.23331         4.64198
     2012.34496       -13.05708         4.63675
     2012.34719       -17.05384         6.03544
     2012.35124         0.13089         8.63948
     2012.35318        -3.96841         4.91806
     2012.35843       -11.67640         6.94381
     2012.36145        -4.27363         6.40471
     2012.36413        -9.47352         5.18369
     2012.36692        -8.03918         4.71078
     2012.36961        -9.13707         4.62630
     2012.37234        -5.59085         4.73342
     2012.37782        -9.82740         4.75607
     2012.38056        -9.22417         4.74300
     2012.38329        -5.62995         4.72907
     2012.38603       -10.11673         4.85100
     2012.38877       -10.45650         4.97641
     2012.39151         1.31472         4.75084
     2012.39698        -5.29783         4.73778
     2012.39972        -5.35161         4.61498
     2012.40246        -6.07038         4.64982
     2012.40520        -7.40716         4.68901
     2012.40794       -12.00893         4.67333
     2012.41067       -10.45471         4.68639
     2012.41615        -5.90326         4.68204
     2012.41889        -3.39704         4.85361
     2012.42162        -5.54782         5.71059
     2012.42442        -0.13248         4.75955
     2012.42710       -10.32437         4.66114
     2012.42989        -1.11303         4.74997
     2012.43531       -11.20770         4.70033
     2012.43805       -17.22147         4.66027
     2012.44079       -12.54525         4.63849
     2012.44353       -12.01802         4.63588
     2012.44626        -3.93280         4.71688
     2012.44900        -1.73858         4.67507
     2012.45448       -12.21813         5.82468
     2012.45722        -7.68190         4.71601
     2012.45995         0.09932         4.80484
     2012.46269        -0.45446         4.93896
     2012.46543        -7.32223         4.72036
     2012.46817        -3.30401         4.74475
     2012.47364        -1.05156         4.71165
     2012.47638         0.06666         4.68552
     2012.47912         0.57589         4.67072
     2012.49384         6.36797         9.38934
     2012.49555        -9.66277         4.73255
     2012.49828        -6.87555         4.72559
     2012.50102        -5.82032         4.67856
     2012.50376        -7.76410         4.77436
     2012.50650        -3.83587         4.63762
     2012.51197         1.05357         4.73255
     2012.51471        -2.76720         4.67246
     2012.51745        -0.87698         4.66027
     2012.52019        -2.06375         4.77523
     2012.52292        -4.09053         5.59040
     2012.52566        -0.63531         4.63936
     2012.53114        -5.46286         4.77784
     2012.53388        -5.33164         4.75520
     2012.53639        -2.16485         5.34916
     2012.53947         2.69403         5.48154
     2012.54209         7.14704         5.03389
     2012.54483        -4.39274         4.77174
     2012.55030        -1.28029         4.75520
     2012.55304        -0.46907         4.63153
     2012.55578        -3.29884         4.69162
     2012.55852         0.15638         4.66898
     2012.56125         0.92460         4.60627
     2012.56399        -0.53917         4.64459
     2012.56947         3.43428         4.72297
     2012.57221         3.27450         4.72820
     2012.57494        -1.24828         4.70207
     2012.57768        -8.75405         4.73168
     2012.58042         2.14717         4.65765
     2012.58316        -3.50360         4.65156
     2012.58863         4.91484         4.73952
     2012.59137        -2.34393         5.81510
     2012.59411         6.21229         4.64285
     2012.59685         5.03351         5.01734
     2012.59964         0.18785         4.83880
     2012.60238         3.42707         4.98338
     2012.60780         2.47741         4.65156
     2012.61054         2.37763         4.61846
     2012.61327         1.70586         4.65940
     2012.61601         5.14608         4.65417
     2012.61875         5.51231         4.74039
     2012.62149         8.15853         4.79352
     2012.62696         5.94298         5.56079
     2012.62970         3.47820         4.68378
     2012.63244         4.06943         4.72559
     2012.63518         6.85465         4.71078
     2012.63752         6.17511         5.47196
     2012.63951         7.37292        13.25184
     2012.64921         2.51142         5.51115
     2012.65075        12.32936         7.72676
     2012.65389         6.20135         5.82207
     2012.65708         2.52544         6.27146
     2012.65982        11.32866         8.06293
     2012.66529         4.73311         4.79613
     2012.66803         4.47034         4.69510
     2012.67077         8.46556         4.69685
     2012.67351         7.21278         4.70817
     2012.67613         9.02379         4.97031
     2012.67898         9.13123         4.67507
     2012.68423         3.52424         4.99121
     2012.69356        -3.26396         8.43568
     2012.69541         1.66958         4.72646
     2012.69815         3.20180         4.72733
     2012.70362         0.66625         4.75520
     2012.70636        11.50547         4.72733
     2012.70910         4.99069         4.68639
     2012.71184         5.61892         4.62456
     2012.71457         7.84014         4.64285
     2012.71731         8.90537         4.64807
     2012.72279         6.85381         4.63066
     2012.72553        10.04404         4.67507
     2012.72826         2.46026         4.80484
     2012.73100         3.27249         4.78045
     2012.73374         6.14671         4.75781
     2012.73648         5.74693         4.69249
     2012.74195         8.14338         4.74997
     2012.74469         5.95461         4.68988
     2012.74663        21.12431         7.29566
     2012.75017         4.34005         4.78307
     2012.75290         8.86928         4.70555
     2012.75564         3.69850         4.65852
     2012.76112         4.00995         4.64720
     2012.76386         5.44417         4.66549
     2012.76659         6.50040         4.73081
     2012.76933         8.65462         4.69075
     2012.77207         8.09584         4.72210
     2012.77481         3.10107         4.71339
     2012.79397        10.04464         6.64595
     2012.79557         3.35968        10.81328
     2012.79956        10.77730         5.22723
     2012.80139        14.13978         7.44458
     2012.80521         2.94008         5.36397
     2012.80766         6.37676         7.20508
     2012.80966        10.10256         6.88371
     2012.81314        -0.31980         4.77436
     2012.81587        -4.42657         4.74300
     2012.81861        -4.64235         4.83445
     2012.82135        -3.04712         4.75084
     2012.82409        -2.15390         4.88322
     2012.82683         1.65632         4.86667
     2012.82956         1.15655         4.77697
     2012.83230         1.85477         4.73778
     2012.83504        -0.65601         4.75345
     2012.83778        -3.48878         4.78829
     2012.84052         0.00544         4.81877
     2012.84251         3.75725         6.98300
     2012.85968         1.64001         4.98338
     2012.86242         0.90823         4.75258
     2012.86516         3.71946         4.99992
     2012.86789        -5.59032         4.89803
     2012.87063        -1.44209         4.72471
     2012.87337        -2.85787         4.77958
     2012.87611         4.60035         4.70991
     2012.87885         3.61158         4.71078
     2012.88158         1.15880         4.68814
     2012.88432         2.86102         4.73865
     2012.88706        -0.81475         4.97380
     2012.88980         0.77647         4.84403
     2012.89253        -0.78530         4.70817
     2012.89527        -3.61308         4.71252
     2012.89801        -4.43486         4.67943
     2012.90075        -4.59163         4.77784
     2012.90349        -3.23541         5.72365
     2012.90622         0.49982         4.70033
     2012.90896        -0.59496         4.91806
     2012.91170        -1.54574         4.70294
     2012.91444        -0.33251         4.70991
     2012.91718         5.14871         4.73081
     2012.91991         6.36394         4.71252
     2012.92265         8.12816         4.86232
     2012.92539         3.96538         4.72820
     2012.92813        -1.20739         4.65852
     2012.93086        -4.21017         4.80048
     2012.93360         2.34206         4.79874
     2012.93634         5.81428         4.65243
     2012.93908        -3.75550         4.68378
     2012.94182        -5.37627         4.68814
     2012.94455         6.98795         4.78655
     2012.94729         3.61417         4.73168
     2012.95003         3.66540         4.73081
     2012.95277         8.67262         4.63327
     2012.95551         7.90585         4.63501
     2012.95824         7.10607         4.64720
     2012.96098         6.70629         4.83010
     2012.96372         8.54852         4.73081
     2012.96646         8.50574         4.72733
     2012.96919         2.12197         4.74997
     2012.97193         3.92119         4.73691
     2012.97467         5.54741         4.64633
     2012.97741         5.57064         4.64024
     2012.98015         1.85486         4.61237
     2012.98288         1.04309         4.61411
     2012.98551         2.73009         4.88148
     2012.98836        -0.92447         4.61585
     2012.99384         1.03298         4.68291
     2012.99657        -0.73079         4.60104
     2012.99857        -4.58699         6.87326
     2013.00205        -1.99335         4.66985
     2013.00404        -5.67354         6.87065
     2013.00752        -7.07090         4.67856
     2013.01026        -7.02568         4.65591
     2013.01197        -1.20741         9.09932
     2013.01574        -0.63823         4.67072
     2013.01848         2.60500         4.71426
     2013.02081         8.72146         5.64963
     2013.02395         2.46344         4.82487
     2013.02669         0.17467         4.78307
     2013.02943        -5.84411         4.68814
     2013.03216        -2.50088         4.69423
     2013.03490        -5.77866         4.68378
     2013.03764        -3.58744         4.70294
     2013.04038        -8.61421         4.68030
     2013.04312        -9.03599         4.74213
     2013.04859        -7.91554         4.82661
     2013.05133        -4.56932         4.73517
     2013.05407        -5.73609         4.76652
     2013.05637        -4.55769         5.64353
     2013.06057         3.10130         9.75686
     2013.06228        -3.36642         4.86580
     2013.06502        -3.64920         4.81877
     2013.06776        -1.03597         4.94506
     2013.07049        -0.49675         4.76826
     2013.07323        -2.24253         4.69249
     2013.07597         3.68070         4.69075
     2013.07871         1.89492         4.66462
     2013.08145         1.20215         4.73342
     2013.08418        -9.80363         4.72559
     2013.08692        -8.94441         4.67681
     2013.08966        -9.76518         4.69859
     2013.09240        -6.27496         4.68117
     2013.09514        -0.83173         4.68988
     2013.09787         0.43249         4.90238
     2013.10061        -1.54029         4.97293
     2013.10335        -3.87606         4.74649
     2013.10609        -3.37684         4.69597
     2013.10882        -3.68861         4.67943
     2013.11156        -9.99139         4.76913
     2013.11430        -5.02517         4.66201
     2013.11704       -16.12394         4.79177
     2013.11978        -6.26572         4.91632
     2013.12251       -10.26150         4.71252
     2013.12525       -15.24027         5.17846
     2013.12799        -6.30805         4.67507
     2013.13073        -5.52982         4.73952
     2013.13347        -4.97760         4.73081
     2013.13620         1.96262         4.72297
     2013.13894        -2.21815         4.74823
     2013.14168        -1.20393         4.77523
     2013.14442        -0.63470         4.87887
     2013.14715         6.36852         4.96944
     2013.14989        -8.72426         4.73604
     2013.15263        -8.80003         4.70730
     2013.15537       -11.21681         4.66288
     2013.15811       -10.68858         4.69685
     2013.16084        -9.10336         4.68901
     2013.16358        -3.84214         4.72820
     2013.16632       -11.08891         4.67943
     2013.16906        -0.55469         4.72994
     2013.17180        -3.40546         4.67159
     2013.17453        -2.96524         4.66027
     2013.17727        -3.59802         4.79265
     2013.18001        -4.91879         4.79613
     2013.18275        -3.70557         4.69685
     2013.18548        -4.69435         4.77174
     2013.18822        -9.05512         4.70643
     2013.19096        -5.01990         4.71949
     2013.19370        -7.00867         4.68465
     2013.19644        -8.06645         4.74910
     2013.19917        -8.30723         4.77523
     2013.20191        -4.14100         4.75694
     2013.20465        -1.05178         4.70120
     2013.20739        -0.97255         4.78829
     2013.21013         0.45767         4.69685
     2013.21286        -4.69211         4.64024
     2013.21560        -3.33088         4.70555
     2013.21834         3.34834         4.70468
     2013.22108        -1.26843         4.65069
     2013.22381        -2.94221         4.63501
     2013.22655        -7.28699         4.66462
     2013.22929        -5.51276         4.63849
     2013.23203        -3.93054         4.62282
     2013.23477        -3.51432         4.61324
     2013.23750        -4.65209         4.76216
     2013.24024        -5.27487         4.77087
     2013.24298        -5.93864         4.75694
     2013.24572         1.85458         4.72907
     2013.24846         0.59980         4.74039
     2013.25119        -1.66097         4.74823
     2013.25393        -5.52575         4.77000
     2013.25667        -2.58952         4.93199
     2013.25941         7.85470         4.83358
     2013.26214        -1.53808         4.85361
     2013.26488         3.16815         4.76913
     2013.26762        -4.16963         4.89193
     2013.27036        -2.69840         4.76652
     2013.27310        -1.29018         5.21678
     2013.27486       -14.85581        10.18709
     2013.27857        -1.46573         4.81181
     2013.28131         7.55949         4.80223
     2013.28405        -1.38728         4.75520
     2013.28679        -2.43806         4.89628
     2013.28952        -4.48384         4.86929
     2013.29226        -5.72961         4.71426
     2013.29448        -8.43339         6.08334
     2013.29855         2.14339         8.21883
     2013.30047        -4.92494         4.86580
     2013.30316        -9.86183         4.90586
     2013.30595        -6.49549         4.79265
     2013.30869        -9.59727         4.71775
     2013.31143        -7.25205         4.78916
     2013.31416        -1.87782         4.79265
     2013.31690        -1.04160         4.81093
     2013.31964        -6.99237         4.72820
     2013.32238        -6.04815         4.80832
     2013.32512         6.97207         4.85796
     2013.32785        -6.18670         4.82835
     2013.33059        -7.97848         4.81964
     2013.33333        -8.74725         4.96683
     2013.33607       -10.13103         4.79613
     2013.33880        -2.92481         4.76739
     2013.34154        -2.18758         4.80745
     2013.34428        -2.66936         4.81964
     2013.34702        -0.79514         4.75955
     2013.34976        -5.67591         4.76216
     2013.35249        -6.85669         4.76042
     2013.35523        -3.62946         4.87103
     2013.35797         3.06276         4.83184
     2013.36076        -3.57391         5.02083
     2013.36344        -6.13479         4.88235
     2013.36538        -7.42609         8.09080
     2013.36892         0.24266         4.78045
     2013.37166        -2.41612         4.77174
     2013.37440        -5.02790         4.74736
     2013.37713        -4.01367         4.77349
     2013.37987       -12.36345         4.75607
     2013.38261        -9.23422         4.75607
     2013.38535        -3.73300         4.91196
     2013.38809        -0.22178         4.76478
     2013.39082        -2.46855         5.00689
     2013.39356        -4.13133         4.75607
     2013.39630        -4.63310         4.77000
     2013.39904        -4.00188         4.78394
     2013.40177        -4.30266         4.74213
     2013.40451        -0.35143         5.02605
     2013.40725         1.33879         4.90848
     2013.40999        -3.06299         4.77784
     2013.41273        -3.99476         4.77261
     2013.41546        -4.83154         4.94593
     2013.41820        -5.23031         4.81181
     2013.42094        -1.12409         4.79352
     2013.42368        -7.08887         4.83532
     2013.42642        -0.50164         4.78307
     2013.42915         0.28258         4.86929
     2013.43189       -11.97619         4.86145
     2013.43463         8.85503         4.88496
     2013.43737        -8.60175         4.82661
     2013.44010        -1.30552         4.95289
     2013.44284        -3.21730         4.75694
     2013.44558        -1.94507         4.87974
     2013.44832        -8.16685         4.75694
     2013.45071        -8.18228         5.89871
     2013.45379        -2.20040         4.78829
     2013.45653        -2.65318         4.82400
     2013.45927        -4.26295         5.00776
     2013.46201        -2.17073         4.81877
     2013.46475        -1.29651         4.90586
     2013.46748        -4.30028         4.75955
     2013.47022        -3.69906         4.75084
     2013.47296        -1.67484         4.69162
     2013.47570        -1.23361         4.72907
     2013.47843        -0.24839         4.74387
     2013.48117        -1.49216         4.77349
     2013.48391         2.63606         4.75694
     2013.48665        -3.70372         4.74649
     2013.48939        -4.84549         4.77087
     2013.49212        -6.61727         4.81006
     2013.49486         1.37296         4.78132
     2013.49760         4.71818         4.75694
     2013.50034         0.83040         4.74213
     2013.50308        -0.70637         4.79874
     2013.50581        -1.34015         4.77000
     2013.50855        -2.34892         4.77261
     2013.51129        -0.64470         4.70120
     2013.51403         2.08452         4.71949
     2013.51597        -1.46878         7.26256
     2013.51950         5.33597         4.71339
     2013.52224        -1.70781         4.85709
     2013.52498        -0.84158         4.92241
     2013.52772         3.16164         4.73517
     2013.53045        -3.04813         4.79613
     2013.53319        -0.34991         4.75258
     2013.53593         1.33031         4.79874
     2013.53867        -3.80446         4.84577
     2013.54141         3.51576         4.78219
     2013.54414        -0.37401         4.73865
     2013.54688        -0.09879         4.71688
     2013.54962         3.14243         4.71078
     2013.55236         0.92766         4.77436
     2013.55509         0.79488         4.77000
     2013.55681         5.33815         9.82915
     2013.57529        18.20341        10.48233
     2013.57700         6.28467         4.67681
     2013.57974         2.61190         4.69423
     2013.58247         5.57412         4.81616
     2013.58521         2.22134         4.82052
     2013.58795        -1.48143         4.79003
     2013.59069         3.45579         4.66288
     2013.59342         0.67402         4.71775
     2013.59616         6.84124         4.74039
     2013.59890         5.42146         4.76826
     2013.60164         6.69869         4.79874
     2013.60438         3.21291         4.76478
     2013.60711         2.77114         4.82052
     2013.60985         7.86336         4.84577
     2013.61259         4.16658         4.74736
     2013.61533         5.55281         4.90151
     2013.61807         6.46503         4.93460
     2013.62080         7.11726         4.76216
     2013.62263         5.73874         9.17945
     2013.63529         7.47290         7.68060
     2013.63723        10.94560         4.69946
     2013.63997         4.45382         5.30126
     2013.64271         5.24905         4.82313
     2013.64544         9.37127         4.80135
     2013.64818         7.02349         4.74300
     2013.65092         7.86672         4.74997
     2013.65366         3.98694         4.71513
     2013.65639         6.32817         4.77000
     2013.65913        14.20939         4.89019
     2013.66187        -0.76339         4.76042
     2013.66461         4.86784         4.69510
     2013.66735        12.26106         4.74997
     2013.67008         6.10929         4.74562
     2013.67282         7.60851         4.87625
     2013.67556         6.67173         4.87103
     2013.67830        11.57596         4.70120
     2013.68104        17.59418         4.79090
     2013.68377         4.57041         4.68465
     2013.68651         3.87763         4.66636
     2013.68925         8.23285         4.67594
     2013.69199         4.39008         4.71601
     2013.69472         8.06630         4.65243
     2013.69746         1.43452         4.69597
     2013.70020        13.51675         4.71078
     2013.70294        11.62997         4.69597
     2013.70568         6.71520         4.82748
     2013.70841         8.97842         4.79700
     2013.71115         7.53264         4.70817
     2013.71389         3.53087         4.70468
     2013.71663         4.47209         4.71165
     2013.71937         7.73432         4.68639
     2013.72210        13.27254         4.70468
     2013.72484        12.30376         4.82400
     2013.72758        11.17899         4.92502
     2013.73032         7.24821         4.67681
     2013.73305        10.90344         4.65330
     2013.73579         4.98566         4.66462
     2013.73853         7.63288         4.67594
     2013.74127        14.32211         4.69336
     2013.74401        12.53333         4.83880
     2013.74674        12.16756         4.90064
     2013.74948         9.75778         4.71513
     2013.75222        -0.79100         4.68030
     2013.75496         1.17323         4.66549
     2013.75770        -6.15055         4.65852
     2013.76043        -4.43133         4.67594
     2013.76317         1.41890         4.67072
     2013.76591         5.19712         4.73255
     2013.76865         2.17635         4.75955
     2013.77138         0.67157         4.71513
     2013.77412         4.81379         4.70207
     2013.77686        -3.45898         4.68378
     2013.77960         1.79824         4.71426
     2013.78234        -3.50953         4.71165
     2013.78507        -6.31331         4.83358
     2013.78781        -4.54409         4.68117
     2013.79055        -1.04086         4.70120
     2013.79329        -2.91764         4.68465
     2013.79603         1.40159         4.71862
     2013.79876        -0.06819         4.66375
     2013.80150         6.16103         4.74736
     2013.80424         4.17926         4.73081
     2013.80698         2.19048         4.67507
     2013.80971         5.94271         4.69510
     2013.81245         5.80293         4.66201
     2013.81519        -0.23985         4.68901
     2013.81793        -0.42262         4.67594
     2013.82010        -3.65749         6.05286
     2013.82352         8.55604        15.87330
     2013.82614         5.44005         4.81790
     2013.82882         4.53516         4.83010
     2013.83162         9.05150         4.71862
     2013.83436         3.07172         4.84316
     2013.83709         5.22394         4.87451
     2013.83983         8.96617         4.79787
     2013.84188        12.80009         6.51096
     2013.84621        -0.93766         8.69783
     2013.84804        -3.89516         4.68291
     2013.85078        -3.74094         4.77087
     2013.85352         2.93929         4.72123
     2013.85626         2.70951         4.69075
     2013.85900         1.15374         4.71513
     2013.86173        -4.06704         4.68204
     2013.86447        -4.33882         4.70033
     2013.86721        -4.35759         4.64807
     2013.86995         1.41763         4.68901
     2013.87269         5.81385         4.68378
     2013.87542        13.71208         4.70730
     2013.87816         6.30130         4.85100
     2013.88090        11.14353         4.77000
     2013.88364         5.41975         4.95638
     2013.88637        -0.10103         4.71078
     2013.88911        -1.68880         4.95115
     2013.89185        -7.20458         4.65852
     2013.89459        -4.40235         4.68988
     2013.89733         0.64787         4.68291
     2013.90006         0.57709         4.71513
     2013.90235        -3.04955         5.98232
     2013.90548         0.89043         4.81877
     2013.90828         5.17877         4.82835
     2013.91102         1.55599         4.70120
     2013.91375        -0.98779         4.67681
     2013.91649         2.85344         4.66462
     2013.91837         8.04003         7.78250
     2013.92197         2.94489         4.74213
     2013.92425         7.11224         5.87955
     2013.92744         1.32433         4.73691
     2013.93018         3.02756         4.64459
     2013.93292         1.27078         4.75084
     2013.93566         0.03900         4.65330
     2013.93839         0.00123         4.66636
     2013.94113        -1.40755         4.65330
     2013.94387         0.38168         4.65940
     2013.94661         3.30890         4.85013
     2013.94935         2.74712         4.65852
     2013.95208        -1.87165         4.66549
     2013.95482         4.72857         4.73691
     2013.95756        -3.00220         4.65852
     2013.96030         2.02102         4.65504
     2013.96303         2.46124         4.75607
     2013.96577         3.59047         4.68901
     2013.96851         7.80169         4.73865
     2013.97125        12.03892         4.69162
     2013.97399        -1.52286         4.69597
     2013.97672        -1.33564         4.68291
     2013.97946         1.06359         4.76216
     2013.98220        -2.29519         4.70207
     2013.98494        -4.10696         4.65504
     2013.98767        -5.06974         4.64372
     2013.99041        -5.93352         4.68552
     2013.99315        -7.29329         4.69772
     2013.99589        -1.90707         4.66462
     2013.99863        -5.82185         4.69162
     2014.00410        -3.78440         4.63414
     2014.00684         2.99983         4.88409
     2014.00958        -2.05395         4.70904
     2014.01232        -7.26873         4.72297
     2014.01505        -5.46050         4.74736
     2014.01779        -0.36828         4.73342
     2014.02053         2.27095         4.66898
     2014.02327        -3.07583         4.90064
     2014.02600         9.46439         4.96944
     2014.02874        -4.47438         4.77174
     2014.03148         4.79684         4.70033
     2014.03422         0.60007         4.73691
     2014.03696        -2.45571         4.70643
     2014.03969        -0.38449         4.68465
     2014.04243        -0.40826         4.89106
     2014.04517         1.55796         4.81529
     2014.04791        -0.00882         4.68901
     2014.05065        -3.20659         4.66549
     2014.05338        -1.95637         4.66723
     2014.05612        -4.30814         4.63849
     2014.05886        -4.79192         4.69075
     2014.06160        -0.49770         4.66462
     2014.06433         3.89253         4.84577
     2014.06707         4.23675         4.80484
     2014.06981         5.79398         5.02170
     2014.07255         9.37720         5.14972
     2014.07529         8.24142         4.69075
     2014.07791         6.05643         4.91370
     2014.08110         5.77252         5.65746
     2014.08304         1.46223         6.21485
     2014.09151        -1.04561         5.10269
     2014.12003         0.58179         8.67867
     2014.12183         7.23123         4.74649
     2014.12457         2.52645         4.66636
     2014.12731        11.27868         4.72471
     2014.13004         4.34890         4.71688
     2014.13278         6.49013         4.84316
     2014.13552         3.81435         4.80919
     2014.13826         2.71357         4.75433
     2014.14099        -1.01420         4.71252
     2014.14373         3.85402         4.76216
     2014.14647         5.13225         4.80484
     2014.14921        -2.56653         4.74126
     2014.15195        -1.68531         4.73604
     2014.15468         3.63192         4.81442
     2014.15742        10.75214         4.80571
     2014.16016         5.97037         4.89019
     2014.16290         2.92759         4.81964
     2014.16564        -3.36519         4.90412
     2014.16837        -1.80296         4.96683
     2014.17111        -2.61274         4.90238
     2014.17385        -3.85152         4.91719
     2014.17659        -0.18129         4.83706
     2014.17932         0.23293         5.03563
     2014.18206        -1.74684         4.86580
     2014.18480         1.18138         4.82835
     2014.18754         8.60260         4.91806
     2014.19028        -0.02117         4.74997
     2014.19301        -1.49895         4.72820
     2014.19575         1.54028         4.72994
     2014.19849         6.45250         4.85535
     2014.20123        -3.78528         4.75520
     2014.20397        -8.93305         4.80484
     2014.20670         3.28317         4.88670
     2014.20944        -0.29560         4.73517
     2014.21218        -0.59538         4.76478
     2014.21492        -3.02116         4.90674
     2014.21765        -2.01793         4.75433
     2014.22039        -3.59171         4.78219
     2014.22313        -1.06849         4.75084
     2014.22587        -0.43726         4.72820
     2014.22861        -2.04204         4.84490
     2014.23134         5.95219         5.06611
     2014.23408         6.15441         4.74736
     2014.23682         3.24863         4.79526
     2014.23956        -6.92414         4.85274
     2014.24230        -5.38492         4.73081
     2014.24503        -5.41669         4.71601
     2014.24777         3.05853         4.92415
     2014.25051        -1.14625         4.77871
     2014.25325        -6.06302         4.76216
     2014.25598        -1.13680         4.96160
     2014.25872        -1.73057         4.75258
     2014.26146         2.34265         4.90151
     2014.26420        -6.67113         5.15930
     2014.26694        -2.20890         4.75694
     2014.26967        -5.19268         4.89019
     2014.27241        -6.62245         4.87016
     2014.27515        -7.48623         4.87712
     2014.27789        -2.21001         4.81181
     2014.28062        -0.19778         4.76565
     2014.28336        -0.16856         4.82052
     2014.28610         3.98166         5.02518
     2014.28884        -7.45311         4.99818
     2014.29158        -5.89289         4.73865
     2014.29431        -2.01166         4.81006
     2014.29705        -2.29144         4.96422
     2014.29979        -4.76822         4.78045
     2014.30253       -10.17999         4.77436
     2014.30527        -2.77077         4.78219
     2014.30800        -0.88554         4.76042
     2014.31074         2.62668         4.83706
     2014.31348         2.24890         4.80310
     2014.31622         1.48513         4.73342
     2014.31895         0.57335         4.75694
     2014.32169        -9.94142         4.80397
     2014.32443       -10.18420         4.85013
     2014.32717       -12.06998         4.88148
     2014.32991        -0.25875         4.75171
     2014.33264        -3.72653         4.74475
     2014.33538        -0.64530         4.75694
     2014.33812        -2.26608         4.89454
     2014.34086        -1.19086         4.77436
     2014.34360        -3.03163         4.74910
     2014.34633        -2.85741         4.73168
     2014.34907        -4.44519         4.84577
     2014.35181        -6.02996         5.03563
     2014.35455        -3.09974         4.75433
     2014.35728        -7.35851         4.75084
     2014.36002       -12.08529         4.71949
     2014.36276        -8.28507         4.71426
     2014.36550        -5.56684         4.73517
     2014.36824        -5.50162         4.79439
     2014.37097        -5.55739         4.91196
     2014.37371        -0.27817         5.01647
     2014.37645         3.16105         4.74300
     2014.37919        -1.91572         4.74736
     2014.38193        -5.34350         4.78394
     2014.38466        -3.39327         4.84838
     2014.38740        -6.38005         4.80397
     2014.39014         2.38517         4.87712
     2014.39288        -4.02660         4.80397
     2014.39561        -5.48438         4.79439
     2014.39835        -5.10316         4.90761
     2014.40109        -3.91693         4.88496
     2014.40383        -5.02571         4.78916
     2014.40657        -7.77848         4.77174
     2014.40930        -5.53226         4.77610
     2014.41204        -0.91804         4.72384
     2014.41478        -4.51981         4.85971
     2014.41752        -1.22759         4.74300
     2014.42026        -5.54936         4.78394
     2014.42299        -6.01114         4.73429
     2014.42573        -7.80092         4.73168
     2014.42847        -2.11669         4.74126
     2014.43121        -2.63247         4.88583
     2014.43394        -1.20624         4.73255
     2014.43668        -8.58902         4.88322
     2014.43942        -1.97580         4.88758
     2014.44216        -4.35057         4.79265
     2014.44490        -0.93035         4.89106
     2014.44763         3.21388         4.87190
     2014.45037        -5.38490         4.86058
     2014.45311         0.14532         4.83184
     2014.45585         0.76455         4.76913
     2014.45859        -6.22823         4.70991
     2014.46132        -0.26401         4.78655
     2014.46406        -5.57278         4.78394
     2014.46680        -1.98056         4.81529
     2014.46954        -3.83333         4.90151
     2014.47227         0.70789         4.75607
     2014.47501         1.65811         4.77261
     2014.47775         1.34834         4.75084
     2014.48049        -3.90944         4.78481
     2014.48323         1.29079         4.77349
     2014.48597         3.16703         4.87016
     2014.48870         4.07323         4.82574
     2014.49144         2.00646         4.65852
     2014.49418        -2.22432         4.66288
     2014.49692         0.02791         4.71775
     2014.49965        -4.27787         4.75868
     2014.50239        -3.46165         4.82487
     2014.50513         0.92358         4.75433
     2014.50787         0.96180         4.67507
     2014.51060        -3.16097         4.82400
     2014.51334         4.85725         4.72907
     2014.51608         9.16747         4.80745
     2014.51882         0.47970         4.80048
     2014.52156         4.46392         4.77958
     2014.52429         1.67614         4.70817
     2014.52703         8.70037         4.71252
     2014.52977         2.35759         4.92764
     2014.53251        -4.39318         4.77958
     2014.53525         2.37804         4.69946
     2014.53798         8.31726         4.79177
     2014.54072         5.31049         4.85535
     2014.54346         9.57371         4.68901
     2014.54620         0.59494         4.85100
     2014.54893        16.85216         4.89367
     2014.55167        11.19138         4.79003
     2014.55441         0.13561         4.80310
     2014.55715         4.64983         4.87974
     2014.55989         2.52906         4.72471
     2014.56262         1.15228         4.69249
     2014.56536         4.41650         4.71252
     2014.56810         0.90073         4.72994
     2014.57084        -0.92605         4.74823
     2014.57357         3.29917         4.77087
     2014.57631         1.13340         5.10269
     2014.57905         3.31862         4.94331
     2014.58179         6.15885         4.78481
     2014.58453         2.11007         4.88845
     2014.58726        -0.38071         5.01908
     2014.59000         1.04752         4.87364
     2014.59274         3.20774         4.93722
     2014.59548        10.11697         4.89541
     2014.59822         5.10519         4.80310
     2014.60095         5.06841         4.84751
     2014.60369         4.41964         4.75607
     2014.60643         0.08186         4.90586
     2014.60917        -0.56791         4.87625
     2014.61190         7.57031         4.88845
     2014.61464         7.99453         5.41883
     2014.61687         7.66978         6.25578
     2014.62881        -3.75843        12.93396
     2014.63218         5.07200        13.78484
     2014.63381         6.56510         4.98076
     2014.63655        12.16532         4.95638
     2014.63928         3.61655         4.73865
     2014.64202         1.92377         4.73342
     2014.64476         1.25500         4.74213
     2014.64750         3.24022         4.73778
     2014.65023         0.65244         4.71252
     2014.65235         6.14147         6.41081
     2014.65942        32.65997         9.91363
     2014.66119        -2.50866         4.93460
     2014.66392         3.85856         4.78655
     2014.66666         9.92079         4.77784
     2014.66940         5.17401         4.71688
     2014.67214        20.41624         4.81006
     2014.67488         0.48246         4.72471
     2014.67739        -2.22875         5.17846
     2014.68035         4.65691         4.71949
     2014.68309         2.87813         5.35003
     2014.68577         2.66725         4.78132
     2014.68856         5.83558         4.77087
     2014.69130         1.29580         4.71339
     2014.69404         3.08003         4.71426
     2014.69678         0.06025         4.68117
     2014.69952         7.29147         4.68552
     2014.70225         7.83570         4.64024
     2014.70499         2.82792         4.70381
     2014.70773         3.11315         4.74475
     2014.71047         8.99937         4.70904
     2014.71321         9.41059         4.71252
     2014.71594         3.28882         4.75084
     2014.71868         7.04204         4.67072
     2014.72142         5.31327         4.76565
     2014.72416         6.19049         4.68204
     2014.72672        14.73539         5.02605
     2014.73596         1.26902         8.34598
     2014.73785         5.50961         4.69597
     2014.74058         5.06483         4.69859
     2014.74332        11.26006         4.79352
     2014.74606        13.72028         4.84664
     2014.74880         0.43350         4.72471
     2014.75154         4.15273         4.80484
     2014.75427         2.19795         4.71339
     2014.75701         5.18918         4.76913
     2014.75975         5.58840         4.93983
     2014.76249         4.22162         4.70294
     2014.76522         7.70585         4.67768
     2014.76796         5.96907         4.69249
     2014.77070         6.83830         4.68814
     2014.77344         8.19552         4.71339
     2014.77618         2.57174         4.98686
     2014.77891        12.64997         4.77261
     2014.78165         1.52019         5.00341
     2014.78439         5.41442         4.82661
     2014.78659         9.64461         5.82033
     2014.79094         6.45691        10.93434
     2014.79260         5.67909         4.70555
     2014.79534         3.17531         4.68901
     2014.79808         6.01754         4.77087
     2014.80082         2.61176         4.69336
     2014.80355         6.59898         4.81181
     2014.80629         6.80921         4.77087
     2014.80903        10.57143         4.77610
     2014.81177         8.00265         4.68465
     2014.81451        10.17588         4.70294
     2014.81724         3.73310         4.74039
     2014.81998         8.82333         4.70555
     2014.82266         5.00444         4.97728
     2014.82449        16.68992         9.17770
     2014.82905         0.96463         8.00284
     2014.83093         5.52522         4.77610
     2014.83367         3.67245         4.68988
     2014.83641        -6.62733         4.74213
     2014.83915         3.57589         4.74736
     2014.84188         7.37212         4.80484
     2014.84462         0.75434         4.81181
     2014.84736         1.65757         4.84751
     2014.85010         4.92579         4.76565
     2014.85284         0.75001         4.71688
     2014.85557        10.60624         4.92764
     2014.85831         5.46646         4.77784
     2014.86105         0.51669         4.73865
     2014.86379        -1.95209         4.69075
     2014.86653         4.62513         4.71339
     2014.86926       -12.66264         4.74649
     2014.87200        -9.34342         4.70381
     2014.87474       -10.82920         4.70643
     2014.87748        -8.76397         4.72210
     2014.88021        -3.91375         4.72210
     2014.88295         1.00948         4.83706
     2014.88569        -2.38030         4.90325
     2014.88843         6.75392         4.96770
     2014.89117        14.09615         5.12534
     2014.89390         1.09137         4.96944
     2014.89664         1.65960         4.92328
     2014.89938         1.31582         4.92067
     2014.90212        -8.96296         4.99296
     2014.90485        -3.73273         4.91632
     2014.90759         0.73249         4.93548
     2014.91033         6.91372         4.81355
     2014.91307         5.67994         4.72733
     2014.91581         3.30816         4.76042
     2014.91854         7.61539         4.74213
     2014.92128         4.94761         4.76216
     2014.92402         7.93383         4.71513
     2014.92676        -0.03694         4.71688
     2014.92950        -5.39172         4.77610
     2014.93223        -5.51549         4.71601
     2014.93497        -4.58627         4.78481
     2014.93771        -5.84305         4.84055
     2014.94045        -2.53482         4.87103
     2014.94318         6.66740         4.99209
     2014.94592         4.49363         4.75781
     2014.94866        -6.92015         4.70730
     2014.95140        -4.82193         4.64982
     2014.95414         1.59630         4.68378
     2014.95687         4.98752         4.65591
     2014.95961         9.03575         4.75868
     2014.96235         0.13197         4.66201
     2014.96509         1.11119         4.79352
     2014.96783        -3.52358         4.67943
     2014.97056        -2.11736         4.70033
     2014.97330        -6.62313         4.72559
     2014.97604       -11.17391         4.69685
     2014.97878         0.13031         4.72559
     2014.98151         4.44254         4.79265
     2014.98425        -6.06224         4.67159
     2014.98699         0.68198         4.64633
     2014.98973         1.56521         4.69597
     2014.99247        -4.34157         4.66288
     2014.99520        -9.91434         4.68465
     2014.99794        -1.73212         4.66898
     2015.00068        -2.43190         4.62195
     2015.00342        -6.99367         4.65156
     2015.00616       -10.19845         4.64372
     2015.00889        -5.34522         4.75171
     2015.01163        -8.84200         4.77784
     2015.01437        -5.95778         4.68727
     2015.01711        -5.96555         4.78307
     2015.01984        -1.29533         4.71252
     2015.02258         0.41590         4.85013
     2015.02532        -2.47388         4.76565
     2015.02806        -3.08566         4.71513
     2015.03080        -1.35443         4.74997
     2015.03353        -6.87721         4.75694
     2015.03627        -3.45398         4.73691
     2015.03901         2.03124         4.73517
     2015.04175         1.60446         4.69336
     2015.04449        -2.88331         4.72559
     2015.04722        -1.30009         4.96247
     2015.04996        -3.13087         4.71165
     2015.05270        -7.71164         4.70643
     2015.05544        -3.87442         4.70120
     2015.05817        -0.74319         4.67943
     2015.06091        -5.43597         4.70468
     2015.06365         3.23425         4.85187
     2015.06639        -3.44152         4.73342
     2015.06913        -5.68930         4.65940
     2015.07186        -7.23607         4.63501
     2015.07460        -7.20685         4.71601
     2015.07734        -7.41163         4.71688
     2015.08008        -9.85940         4.67594
     2015.08282        -4.82918         4.64894
     2015.08555        -2.66695         4.61933
     2015.08829         0.13327         4.71252
     2015.09103         2.00349         4.69685
     2015.09377        -2.30528         4.68901
     2015.09650        -3.85606         4.83271
     2015.09924         0.87616         4.81181
     2015.10198        -0.95261         4.77349
     2015.10472         0.59261         4.73168
     2015.10746         0.25884         4.69685
     2015.11019        -8.73694         4.78655
     2015.11293        -6.55172         4.74910
     2015.11567        -4.83949         4.70817
     2015.11841        -6.78927         4.68552
     2015.12115        -3.50404         4.76216
     2015.12388        -5.70682         4.65852
     2015.12662        -5.46260         4.68901
     2015.12936        -4.58937         4.69423
     2015.13210        -2.03515         4.97380
     2015.13483       -11.46492         4.77523
     2015.13757        -7.60670         4.77349
     2015.14031        -3.81248         4.68988
     2015.14305        -3.98825         4.68030
     2015.14579        -2.23103         4.69685
     2015.14852        -0.58680         4.72036
     2015.15126        -0.90058         4.76129
     2015.15400        -5.04336         4.63501
     2015.15674         0.30387         4.62369
     2015.15948         1.76609         4.65765
     2015.16221         1.03031         4.65417
     2015.16495         1.32654         4.64285
     2015.16769        -1.16724         4.63153
     2015.17043        -1.30901         4.66636
     2015.17316        -0.26279         4.76913
     2015.17590        -0.95357         4.78481
     2015.17864         0.16266         4.63675
     2015.18138         1.48688         4.64982
     2015.18412         3.29411         4.65591
     2015.18685        -0.16867         4.65156
     2015.18959         0.10955         4.69075
     2015.19233        -0.61322         4.78742
     2015.19507        -5.66200         4.64024
     2015.19780         1.36923         4.67943
     2015.20054         2.24645         4.65940
     2015.20328        -2.81033         4.69336
     2015.20602        -4.78310         4.70817
     2015.20887        -7.20366         4.90586
     2015.21149        -7.87965         4.61846
     2015.21423        -3.69643         4.94767
     2015.21697         1.23379         4.71165
     2015.21971        -1.69398         4.64894
     2015.22245        -2.70276         4.80135
     2015.22518         7.82446         4.66636
     2015.22792        -2.78231         4.64198
     2015.23066        -1.14609         4.64198
     2015.23334        -4.73797         4.92241
     2015.23613        -0.74764         4.79003
     2015.23887        -3.49942         4.86406
     2015.24161         1.03081         4.85622
     2015.24435         3.40703         4.88758
     2015.24709        -2.21474         5.17759
     2015.24982        -2.81452         4.61846
     2015.25256        -2.44430         4.65069
     2015.25530        -1.84007         4.66810
     2015.25804        -1.27885         4.64372
     2015.26078         2.89138         4.64546
     2015.26351         3.31260         4.64459
     2015.26625        -4.73518         4.64372
     2015.26899        -0.51795         4.67333
     2015.27173         4.19227         4.76391
     2015.27446         8.33449         4.77784
     2015.27720         2.10572         4.64459
     2015.27994         1.13494         4.68117
     2015.28268         9.61017         4.70120
     2015.28542        -6.09261         4.78307
     2015.28815        -5.48039         4.76129
     2015.29089         0.19484         4.67246
     2015.29363        -3.42994         4.66898
     2015.29637        -2.81271         4.67159
     2015.29911         1.93851         4.70730
     2015.30184         2.75973         4.78045
     2015.30458        -4.44104         4.67333
     2015.30732        -4.12282         4.61498
     2015.31006        -5.16159         4.61672
     2015.31279        -5.57337         4.60366
     2015.31553        -7.13315         4.57666
     2015.31827        -4.83692         4.53224
     2015.32101        -2.81170         4.56447
     2015.32375        -0.65547         4.56447
     2015.32648        -3.09625         4.64024
     2015.32922        -2.14303         4.64633
     2015.33196        -3.66680         4.59059
     2015.33470        -0.78058         4.54269
     2015.33744        -7.30336         4.52963
     2015.34017        -1.70213         4.53137
     2015.34291        -5.66391         4.56534
     2015.34565        -2.83368         4.55140
     2015.34839        -3.43046         4.56185
     2015.35112        -4.79224         4.52615
     2015.35386         1.27099         4.52789
     2015.35660        -5.08679         4.55489
     2015.35934        -5.04756         4.64024
     2015.36208        -1.74034         4.60192
     2015.36481        -2.16712         4.52615
     2015.36755         2.17211         4.49305
     2015.37029        -3.57967         4.56185
     2015.37303        -6.70544         4.54792
     2015.37577        -3.84922         4.54095
     2015.37850        -4.71500         4.65852
     2015.38124        -5.02677         4.48521
     2015.38398        -4.31355         4.59234
     2015.38672        -0.96032         4.59669
     2015.38945        -5.50910         4.58450
     2015.39219       -10.77288         4.61672
     2015.39493         3.75935         4.55837
     2015.39767        -8.28943         4.56795
     2015.40041        -3.02121         4.59146
     2015.40314        -2.18398         4.71862
     2015.40588        -3.71276         4.57840
     2015.40862         0.42747         4.73342
     2015.41136         0.27269         4.57753
     2015.41410        -3.27409         4.60540
     2015.41683        -2.56286         4.58363
     2015.41957        -7.51664         4.59669
     2015.42231        -0.92141         4.54182
     2015.42505        -5.33919         4.66723
     2015.42778        -1.53697         4.54618
     2015.43052         2.75926         4.54095
     2015.43326        -4.88552         4.57666
     2015.43600         3.27871         4.59843
     2015.43874         1.90593         4.58537
     2015.44147        -2.93285         4.73081
     2015.44421         9.70038         4.61324
     2015.44695        -3.30740         4.59495
     2015.44969        -1.73618         4.57230
     2015.45243        -2.68395         4.68988
     2015.45516        -0.16173         4.58624
     2015.45790        -7.91950         4.77087
     2015.46064         0.74572         4.69249
     2015.46338        -6.15506         4.69685
     2015.46611         3.35417         4.58363
     2015.46885         0.33239         4.59408
     2015.47159         1.17462         4.61062
     2015.47433        -3.93216         4.73865
     2015.47707        -4.78994         4.76826
     2015.47980        -1.54771         5.01212
     2015.48254        -3.01149         4.65243
     2015.48528         3.56474         4.63762
     2015.48802        -0.89904         4.58885
     2015.49076        -2.33282         4.72907
     2015.49349        -1.41159         4.91980
     2015.49623         6.19063         4.75781
     2015.49897         5.92286         4.72559
     2015.50171         2.88408         4.62456
     2015.50444         2.43330         4.58537
     2015.50718        -0.08447         4.66636
     2015.50992        12.11675         4.59669
     2015.51266         2.25397         4.67333
     2015.51540         0.17220         4.61324
     2015.51756         5.54733         5.98144
     2015.52047         9.82788         5.40577
     2015.52361         8.63287         4.67159
     2015.52635         8.69609         4.57666
     2015.52908         4.77232         4.64285
     2015.53182         5.06054         4.62717
     2015.53456         4.97677         4.61585
     2015.53701        -6.53155         5.10618
     2015.54095         7.69296         9.38324
     2015.54226         3.73046         5.69056
     2015.54565        10.15592         4.98599
     2015.54825         7.13089         4.72994
     2015.55099         7.58111         4.71165
     2015.55373         8.20133         4.78045
     2015.55646        12.80156         4.76303
     2015.55920         6.29878         4.69075
     2015.56194         8.29601         4.83532
     2015.56468         5.48323         4.73778
     2015.56741         1.34645         4.74387
     2015.57015         7.96768         4.78916
     2015.57289         6.72590         5.25510
     2015.57563         8.00712         4.63066
     2015.57837         5.70835         4.68291
     2015.58110         8.38757         4.67072
     2015.58384         4.78580         4.71165
     2015.58658        12.10802         4.70904
     2015.58932         4.30124         4.69075
     2015.59206         8.09547         4.95899
     2015.59479        10.21469         4.75433
     2015.59753         9.79992         4.69685
     2015.60027        13.21414         4.91022
     2015.60301        13.63836         4.83968
     2015.60574        13.53459         4.70991
     2015.60848        11.39181         4.72733
     2015.61122        13.39404         4.68727
     2015.61396        12.56626         4.66375
     2015.61670         8.51648         4.55837
     2015.61943         6.65071         4.58711
     2015.62217        13.06493         4.58798
     2015.62491        13.58715         4.57405
     2015.62765        11.56038         4.59408
     2015.63039         9.46660         4.53660
     2015.63312        10.22783         4.67420
     2015.63586        14.97205         4.86754
     2015.63860         8.89927         4.60104
     2015.64134        12.26550         4.54269
     2015.64407         7.98472         4.61324
     2015.64681         5.06895         4.65243
     2015.64955        11.18417         4.54705
     2015.65229        10.27439         4.57753
     2015.65503         9.74462         4.54792
     2015.65776         4.71584         4.92328
     2015.66050        11.98807         4.65156
     2015.66324         9.97429         4.52353
     2015.66598        14.53651         4.70207
     2015.66872        16.30374         4.81181
     2015.67145         9.73296         4.64372
     2015.67419         9.93219         4.58101
     2015.67693         9.28641         4.60279
     2015.67967         2.51763         4.57318
     2015.68240         6.62686         4.58798
     2015.68514         4.79408         4.57143
     2015.68788         9.47830         4.62717
     2015.69062        10.31253         4.63414
     2015.69336         4.15175         4.72123
     2015.69609        11.27498         4.56447
     2015.69883         8.61220         4.64459
     2015.70157        15.09642         4.60104
     2015.70431         8.06365         4.57666
     2015.70705         9.99787         4.56708
     2015.70978        12.44410         4.58537
     2015.71252         5.51932         4.56795
     2015.71526         9.12154         4.59321
     2015.71800        11.60977         4.58537
     2015.72073        11.39199         4.65504
     2015.72302        13.99434         5.50941
     2015.72992         5.30551         8.56458
     2015.73169         6.31889         4.56621
     2015.73357         5.60048         7.51687
     2015.73716         8.04833         4.55402
     2015.73990        12.61256         4.64546
     2015.74264         8.79678         4.68204
     2015.74538        14.55001         4.94070
     2015.74811         8.06723         4.76042
     2015.75085        -2.79455         4.61672
     2015.75359         0.23768         4.78045
     2015.75633         8.26390         4.58711
     2015.75906         9.10913         4.56621
     2015.76180         6.56735         4.55489
     2015.76454         2.21457         4.64024
     2015.76728        -0.43420         4.66114
     2015.77002         5.47702         4.62717
     2015.77275         3.90325         4.60888
     2015.77549         7.59047         4.59930
     2015.77823        13.51769         4.55314
     2015.78097        10.01292         4.59059
     2015.78371         9.38614         4.57753
     2015.78644        11.81337         4.60192
     2015.78918         8.57059         4.57840
     2015.79192        14.10981         4.59321
     2015.79466         7.25004         4.57405
     2015.79739        10.67426         4.57666
     2015.80013         8.49548         4.79439
     2015.80287         3.31471         4.58537
     2015.80561        10.53993         4.80745
     2015.80835         6.05316         4.57666
     2015.81108         2.62438         4.65940
     2015.81382         4.39260         4.94854
     2015.81656         2.95083         4.63066
     2015.81930         5.35505         4.58624
     2015.82203         8.59828         4.64546
     2015.82477        10.55250         4.59582
     2015.82751        10.74172         4.65591
     2015.83025        18.73495         4.76303
     2015.83299         8.47917         4.78916
     2015.83572         3.77040         4.64024
     2015.83846         0.84262         4.70120
     2015.84120         1.12684         4.70120
     2015.84394         6.62007         4.71601
     2015.84668        -0.13571         4.74910
     2015.84941         7.05052         4.87538
     2015.85215         8.10474         4.74387
     2015.85489         5.99996         4.68814
     2015.85763         3.44419         4.67420
     2015.86036         0.90441         4.77871
     2015.86310         3.06563         4.71601
     2015.86584         6.08986         4.76826
     2015.86858         8.71708         4.73691
     2015.87132        10.94931         4.76391
     2015.87405         6.71053         4.72123
     2015.87679         4.74775         4.82835
     2015.87953        10.20698         4.86493
     2015.88227         8.22920         4.71513
     2015.88501        -3.20257         4.68901
     2015.88774         0.02365         4.64372
     2015.89048         4.98987         4.68552
     2015.89322         6.27610         4.70730
     2015.89596         3.40332         4.68901
     2015.89869         6.89055         4.61411
     2015.90143        -0.31723         4.65330
     2015.90417        -1.95601         4.65417
     2015.90691         1.88322         4.66810
     2015.90965         3.14644         4.65678
     2015.91238         2.12966         4.73081
     2015.91512         3.39289         4.69859
     2015.91786         1.07611         4.69336
     2015.92060        -3.97066         4.73865
     2015.92334        -0.00444         4.72559
     2015.92607        -1.99322         4.72907
     2015.92881         3.60401         4.78481
     2015.93155         0.90923         4.90064
     2015.93429        -2.80154         5.11053
     2015.93702         3.10668         5.18543
     2015.93976         4.49790         4.99644
     2015.94250         5.38913         4.84142
     2015.94524         3.39535         4.81093
     2015.94798         7.03958         4.84229
     2015.95071         8.07180         4.65243
     2015.95345        -0.55898         4.66114
     2015.95619         7.65025         4.74213
     2015.95893         2.26447         4.83880
     2015.96988         7.85937         4.72733
     2015.97262        16.55859         4.66985
     2015.97535        13.87781         4.68030
     2015.97809         8.33004         4.67072
     2015.98083         1.48926         4.67333
     2015.98357        -5.02651         4.66114
     2015.98631        -4.58529         4.71949
     2015.98904        -0.56307         4.66027
     2015.99178        -1.19484         4.65417
     2015.99452        -0.61062         4.67943
     2015.99726        -1.01339         4.66723
     2016.00000        -1.12217         4.68378
     2016.00273        -3.99095         4.67594
     2016.00547         0.74928         4.71688
     2016.00821        -0.75550         4.69859
     2016.01095         5.56473         4.71688
     2016.01368        -0.25405         4.70120
     2016.01642         1.37317         4.75694
     2016.01916         0.09840         4.87277
     2016.02190         4.66762         4.75345
     2016.02464        -0.93315         4.77261
     2016.02737         1.16307         4.72559
     2016.03011         0.82129         4.66985
     2016.03285        -4.36448         4.62020
     2016.03564        -0.40315         4.73081
     2016.03833        -0.42404         4.74649
     2016.04106         1.52819         4.69859
     2016.04380         1.22641         4.62978
     2016.04654         1.66864         4.61585
     2016.04928         6.06286         4.59146
     2016.05201        -5.69792         4.63414
     2016.05475        -0.84169         4.64372
     2016.05749         0.35853         4.63240
     2016.06023        -0.64624         4.59495
     2016.06297        -3.98002         4.58188
     2016.06570        -2.04280         4.70817
     2016.06844        -5.59857         4.73081
     2016.07118        -5.45735         4.72471
     2016.07392        -0.27112         4.73778
     2016.07666         4.07310         4.93112
     2016.07939         7.57032         4.66898
     2016.08213         0.96555         4.84838
     2016.08487        -0.66723         4.70207
     2016.08761        -5.65601         4.70555
     2016.09034        -8.17478         4.68552
     2016.09308        -3.98556         4.68378
     2016.09542        -6.50910         5.55644
     2016.10478       -10.60225         6.78791
     2016.10677       -10.57344         4.66462
     2016.10951        -8.05121         4.69249
     2016.11225        -8.44299         4.78829
     2016.11498        -7.38477         4.70468
     2016.11772        -9.63454         4.69685
     2016.12046       -10.35532         4.68552
     2016.12320        -5.39409         4.66027
     2016.12594        -7.17887         4.68988
     2016.12867         1.23635         4.61672
     2016.13141         7.47158         4.67856
     2016.13415         4.42880         4.72733
     2016.13689        -3.93497         4.62108
     2016.13963         1.54025         4.73952
     2016.14236       -10.60653         4.61237
     2016.14510        -6.79430         4.65591
     2016.14784        -6.32208         4.66985
     2016.15058        -5.84686         4.61846
     2016.15331        -1.16763         4.73168
     2016.15605        -6.68541         4.61672
     2016.15879        -5.98818         4.74213
     2016.16153        -4.95596         4.72994
     2016.16427        -5.80474         4.79439
     2016.16700        -5.84451         4.72559
     2016.16974        -6.12729         4.71949
     2016.17248        -9.02606         4.74213
     2016.17522         0.77216         4.79874
     2016.17796         0.68638         4.67246
     2016.18069         0.90261         4.96422
     2016.18343        -5.48517         4.79439
     2016.18617        -2.16694         4.63936
     2016.18891         4.00328         4.56360
     2016.19164        -1.14450         4.57056
     2016.19438         7.73573         4.61585
     2016.19712         2.98995         4.56185
     2016.19986         0.02018         4.68378
     2016.20260        -8.17460         4.69249
     2016.20533        -7.26938         4.79352
     2016.20807        -3.04015         4.76129
     2016.21081        -8.51393         4.75345
     2016.21355        -4.87171         4.64111
     2016.21629        -5.06548         4.56272
     2016.21902        -2.72226         4.56185
     2016.22176         0.66397         4.59146
     2016.22450       -11.87281         4.74213
     2016.22724        -9.82259         4.62804
     2016.22997        -3.01136         4.60366
     2016.23271        -2.27714         4.60801
     2016.23545        -1.51591         4.57143
     2016.23819        -3.73069         4.55489
     2016.24093        -1.22847         4.65852
     2016.24366        -1.37724         4.57666
     2016.24640         2.15898         4.56272
     2016.24914        -3.70679         4.54356
     2016.25188         0.76143         4.58624
     2016.25462         0.33465         4.66288
     2016.25735        -8.13912         4.62717
     2016.26009       -10.02690         4.64024
     2016.26283       -12.61068         4.57056
     2016.26557        -2.28545         4.59930
     2016.26830        -3.18923         4.58537
     2016.27104        -3.11500         4.58798
     2016.27378        -2.33078         4.57492
     2016.27652        -4.75356         4.57056
     2016.27926         1.06267         4.57405
     2016.28137        -2.13930         6.27930
     2016.28810        -8.99946         6.26362
     2016.29021        -7.82044         4.59930
     2016.29295        -3.26421         4.59756
     2016.29568        -4.22899         4.59930
     2016.29842        -3.74376         4.69946
     2016.30116        -1.00554         4.70643
     2016.30390        -8.81332         4.68117
     2016.30663        -1.61909         4.66898
     2016.30937        -3.39787         4.64459
     2016.31211        -6.90564         4.61150
     2016.31485        -3.15242         4.63066
     2016.31759        -4.97720         4.60017
     2016.32032        -2.90797         4.60279
     2016.32306        -8.20475         4.61324
     2016.32580        -8.74253         4.61933
     2016.32854        -4.44230         4.58101
     2016.33128        -4.29008         4.58624
     2016.33401        -0.08785         4.67768
     2016.33675        -2.56963         4.67594
     2016.33949        -1.38241         4.91022
     2016.34223        -0.84018         4.68639
     2016.34496        -3.50796         4.74736
     2016.34770         4.41627         4.68727
     2016.35044         2.89549         4.81355
     2016.35318        -5.39929         4.79439
     2016.35592        -6.90306         4.57753
     2016.35865        -8.58984         4.58972
     2016.36139        -3.23261         4.57143
     2016.36413         6.16061         4.60888
     2016.36687         5.28083         4.65156
     2016.36961         5.93106         4.57840
     2016.37234         6.06828         4.56360
     2016.37508        -3.70249         4.56795
     2016.37782        -6.99427         4.72559
     2016.38056        -2.82505         4.70904
     2016.38329         0.39518         4.56969
     2016.38603         0.44840         4.56098
     2016.38877         6.98762         4.55489
     2016.39151        -4.04815         4.56882
     2016.39396        -8.28547         5.13143
     2016.41398       -11.13527         7.24863
     2016.41615        -4.99414         4.60975
     2016.41889        -5.54091         4.62978
     2016.42162        -1.88469         4.63675
     2016.42436        -6.24846         4.59059
     2016.42710         3.80876         4.56360
     2016.42984         0.86598         4.57405
     2016.43258        -3.49479         4.59930
     2016.43531         0.71843         4.68639
     2016.43805         1.05565         4.60192
     2016.44079        -3.47912         4.58363
     2016.44353        -5.10690         4.58537
     2016.44626        -5.81767         4.54618
     2016.44900        -6.55945         4.64982
     2016.45174         1.36877         4.65765
     2016.45448         1.54500         4.56882
     2016.45722         1.72322         4.57666
     2016.45995         2.73545         4.55576
     2016.46269        -0.49333         4.58363
     2016.46543        -5.83011         4.57056
     2016.46822         1.12323         4.65678
     2016.47096         3.97745         4.71426
     2016.47370        -2.66333         4.64720
     2016.47644        -0.39310         4.82052
     2016.47918         3.79012         4.83097
     2016.48191        -0.43265         4.65940
     2016.48465         0.67757         4.65765
     2016.48739        -4.94621         4.71426
     2016.49013        -2.46798         4.66027
     2016.49287         1.69824         4.65940
     2016.49560         2.20047         4.65330
     2016.49828         2.35858         4.76303
     2016.50102         2.88480         4.62195
     2016.50376         6.17903         4.86406
     2016.50650        -2.15875         4.73691
     2016.50924        -5.79152         4.66723
     2016.51197        -4.35830         4.79961
     2016.51477         4.98303         4.71513
     2016.51751        -0.69974         4.86493
     2016.52024        -1.39452         4.76826
     2016.52298        -1.58330         4.73429
     2016.52572        -1.83207         4.59669
     2016.52846        -5.70885         4.79874
     2016.53120        -5.20762         4.76478
     2016.53393         1.88860         4.69859
     2016.53667        -1.89318         4.68117
     2016.53941        -0.10895         4.65156
     2016.54215         5.25727         4.63153
     2016.54488         8.89150         4.74475
     2016.54762        -0.94928         4.70381
     2016.55036         4.52894         4.78655
     2016.55310         1.05417         4.76042
     2016.55584         2.46639         4.85535
     2016.55857        -2.20638         4.71601
     2016.56131         6.17884         4.69946
     2016.56405         8.07506         4.69597
     2016.56679         5.29529         4.84577
     2016.56953         4.47751         4.80658
     2016.57226         9.63074         4.72820
     2016.57500         6.31396         4.83793
     2016.57774        13.94518         4.75694
     2016.58048         1.22841         4.65504
     2016.58321         1.50763         4.62543
     2016.58595         0.51185         4.65852
     2016.58869         1.63208         4.68117
     2016.59137         3.36819         4.53573
     2016.59411         4.76342         4.59146
     2016.59685         5.82464         4.56098
     2016.59958         2.90887         4.54879
     2016.60232         0.02409         4.61237
     2016.60506        -5.49069         4.61846
     2016.60780         2.21054         4.54008
     2016.61054         3.34376         4.54879
     2016.61327         1.54398         4.52527
     2016.61601         4.46921         4.58101
     2016.61875         1.87143         4.73952
     2016.62149         7.46366         4.54356
     2016.62423         8.51188         4.59843
     2016.62696         4.45810         4.60104
     2016.62970         3.88733         4.59146
     2016.63244         3.63055         4.64285
     2016.63518         6.50478         4.52876
     2016.63791         6.35100         4.54356
     2016.64065        14.06322         4.57230
     2016.64339         5.79045         4.53834
     2016.64613         5.29567         4.59756
     2016.64887         4.74390         5.02605
     2016.65160         6.91712         4.82922
     2016.65434         8.22534         4.53660
     2016.65708         1.79557         4.60714
     2016.65982         7.49479         4.64285
     2016.66256         3.11102         4.58711
     2016.66529         4.34524         4.58101
     2016.66803         5.95946         4.63066
     2016.67077         4.60769         4.67943
     2016.67351         6.35191         4.53050
     2016.67624         9.42813         4.56098
     2016.67898         9.93336         4.54705
     2016.68172        11.32958         4.67594
     2016.68446         4.86481         4.74736
     2016.68720         7.26403         4.94680
     2016.68993         6.43225         4.84229
     2016.69267         3.76248         4.53660
     2016.69541        11.78370         4.78655
     2016.69815         7.29193         4.58450
     2016.70089         8.70915         4.51134
     2016.70362         8.22037         4.63240
     2016.70636         9.33560         4.86058
     2016.70910         7.41482         4.78307
     2016.71184        11.04705         4.58711
     2016.71457        12.13627         4.61846
     2016.71731        12.43749         4.52876
     2016.72005        11.04172         4.55053
     2016.72279        11.85994         4.64111
     2016.72553        10.05917         4.82922
     2016.72826         8.57639         4.77697
     2016.73100         3.46361         4.53834
     2016.73374         6.13384         4.51308
     2016.73648         5.72306         4.54705
     2016.73921         5.50628         4.66810
     2016.74195         7.54751         4.57579
     2016.74469         6.64973         4.56185
     2016.74743         4.08196         4.56272
     2016.75017         7.55918         4.55140
     2016.75290         7.88840         4.53834
     2016.75564         9.67863         4.55227
     2016.75838        10.12585         4.56447
     2016.76112        13.30008         4.55053
     2016.76386         7.05730         4.73778
     2016.76659         2.80452         4.53660
     2016.76933         4.37375         4.56882
     2016.77207         4.99497         4.62978
     2016.77481        10.03120         4.66114
     2016.77754         2.52142         4.55053
     2016.78028         1.56464         4.53573
     2016.78302         4.74587         4.55576
     2016.78576        12.49209         4.59146
     2016.78850        10.56031         4.55576
     2016.79123         4.19954         4.58101
     2016.79397         9.00076         4.60017
     2016.79671         2.40799         4.57840
     2016.79945        -1.19979         4.54792
     2016.80219         4.22043         4.77087
     2016.80492        -1.76234         4.66462
     2016.80766         2.16588         4.62717
     2016.81040        -0.55689         4.59234
     2016.81314         2.88133         4.67594
     2016.81587        -1.65945         4.58014
     2016.81861        -1.13422         4.51221
     2016.82135         4.42200         4.57840
     2016.82409        -4.56477         4.68639
     2016.82683         0.86045         4.55053
     2016.82956         0.92967         4.55314
     2016.83230         5.91290         4.56360
     2016.83504         1.36512         4.53311
     2016.83778         0.04135         4.58363
     2016.84052        -2.19443         4.54618
     2016.84325        -1.28821         4.56185
     2016.84599        -2.74198         4.59408
     2016.84873         4.65924         4.59930
     2016.85147         2.05046         4.56011
     2016.85420        -1.72031         4.56272
     2016.85694        -1.59709         4.58014
     2016.85968        -0.98186         4.73691
     2016.86242         1.26636         4.58885
     2016.86516         7.32758         4.72820
     2016.86789         2.32581         4.60888
     2016.87063         3.77003         4.55227
     2016.87337        10.69826         4.73778
     2016.87611         4.01948         4.53660
     2016.87885         0.01770         4.53311
     2016.88158        -2.96107         4.51918
     2016.88432         3.45515         4.55750
     2016.88706         0.87238         4.57579
     2016.88980        -1.21140         4.59321
     2016.89253         3.48282         4.56447
     2016.89527         3.81205         4.54879
     2016.89801         3.55527         4.55227
     2016.90075        -0.52050         4.57230
     2016.90349         7.72072         4.68901
     2016.90622         6.31594         4.66201
     2016.90896        11.12917         4.60192
     2016.91170         3.06639         4.56011
     2016.91444        -0.41839         4.60192
     2016.91718        -4.45616         4.66375
     2016.91991        -7.34194         4.68291
     2016.92265         0.09629         4.55402
     2016.92539         8.14151         4.57230
     2016.92813        -2.10627         4.59146
     2016.93086        -4.32904         4.65069
     2016.93360        -3.94882         4.55053
     2016.93634        -3.59959         4.55663
     2016.93908        -4.02937         4.64198
     2016.94182         2.98385         4.60888
     2016.94455        -2.06692         4.59059
     2016.94729        -0.50870         4.65765
     2016.95003        -2.30647         4.64894
     2016.95277         0.11275         4.64285
     2016.95551        -9.98603         4.56360
     2016.95824        -6.08980         4.58188
     2016.96098        -8.18058         4.58450
     2016.96372       -14.67936         4.58276
     2016.96646        -2.43813         4.57666
     2016.96919         1.75309         4.65765
     2016.97193        -0.27268         4.62282
     2016.97467         4.02954         4.63501
     2016.97741         0.43676         4.63762
     2016.98015         1.77199         4.69597
     2016.98288        -0.15579         4.56882
     2016.98562         0.77744         4.59408
     2016.98836         2.70566         4.64894
     2016.99110         2.37288         4.62282
     2016.99384         1.58011         4.62195
     2016.99657         1.99633         4.53660
     2016.99931         1.08756         4.51569
     2017.00091        10.45560        12.48718
     2017.00479         3.57400         4.56360
     2017.00695        -1.94886         6.23924
     2017.01003        -3.00598         4.98599
     2017.01300         2.17968         4.49653
     2017.01574        -0.67310         4.79787
     2017.01848         1.04912         4.56272
     2017.02121         1.22735         4.58624
     2017.02395         5.22657         4.58188
     2017.02669         2.61579         4.60104
     2017.02943         7.14402         4.53921
     2017.03216        -2.33576         4.55924
     2017.03490        -4.36753         4.67943
     2017.03764        -3.70031         4.58624
     2017.04038        -4.19009         4.56185
     2017.04312        -1.27786         4.55402
     2017.04585         0.41336         4.73255
     2017.04859        -1.62941         4.78481
     2017.05133         9.59081         4.82052
     2017.06616       -11.23789        11.02056
     2017.06776        -4.00385         4.58537
     2017.07049        -4.40662         4.56447
     2017.07323        -8.24940         4.54531
     2017.07597       -11.83717         4.55402
     2017.07871        -9.47695         4.55140
     2017.08145        -5.69373         4.61498
     2017.08418        -9.10850         4.61324
     2017.08692        -3.90928         4.57143
     2017.08966        -4.80406         4.67594
     2017.09240        -4.95383         4.56621
     2017.09514         0.72839         4.61933
     2017.09787         0.54862         4.58188
     2017.10061         2.04184         4.61237
     2017.10335        -6.24494         4.63849
     2017.10609        -3.48471         4.59930
     2017.10882       -10.96549         4.58188
     2017.11156         4.90474         4.62717
     2017.11430        -7.93604         4.55489
     2017.11704       -11.93482         4.54705
     2017.11978       -10.68359         4.55924
     2017.12251        -9.37337         5.22636
     2017.12537        -4.48993         4.81703
     2017.12805        -0.16981         4.68901
     2017.13078         3.34441         4.68291
     2017.13347        -1.68047         4.56621
     2017.13620         1.31675         4.59234
     2017.13894         0.00697         4.57666
     2017.14168        -4.70780         4.55837
     2017.14442        -6.47758         4.59408
     2017.14715        -7.26135         4.56534
     2017.14989        -6.37213         4.57492
     2017.15263        -2.05491         4.56185
     2017.15537         0.70032         4.60104
     2017.15811         0.68954         4.76913
     2017.16084         1.18277         4.73168
     2017.16358        -8.26301         4.56708
     2017.16632        -7.63779         4.73517
     2017.16911        -4.68645         4.71339
     2017.17185         0.16477         4.71426
     2017.17459         0.48999         4.70207
     2017.17733        -1.54578         4.75868
     2017.18001        -3.99167         4.55837
     2017.18275        -4.88944         4.61324
     2017.18548       -10.24322         4.55750
     2017.18822       -16.62699         4.66636
     2017.19096       -17.05777         4.63414
     2017.19370        -2.53055         4.57579
     2017.19644        -4.59732         4.59843
     2017.19917        -3.68310         4.58798
     2017.20191        -4.97188         4.61585
     2017.20465        -8.31165         4.72471
     2017.20739        -5.67543         4.58972
     2017.21013        -0.94320         4.59843
     2017.21286        -5.23498         4.55924
     2017.21560        -5.35076         4.57492
     2017.21834        -2.67853         4.62195
     2017.22108        -0.07431         4.64198
     2017.22381        -1.17608         4.69859
     2017.22655        -3.11786         4.67507
     2017.22929        -5.15264         4.55402
     2017.23203        -6.82641         4.56447
     2017.23477        -4.27619         4.60627
     2017.23750        -7.85996         4.61672
     2017.24024        -8.03174         4.59582
     2017.24298        -8.48152         4.59321
     2017.24572        -6.86829         4.53224
     2017.24846       -13.11607         4.61672
     2017.25119        -7.18084         4.63762
     2017.25393        -8.90662         4.56708
     2017.25667        -5.30440         4.57318
     2017.25941        -9.66317         4.57230
     2017.26186        -9.33249         5.15320
     2017.29317        -5.95675         8.29634
     2017.29500        -9.04026         4.59756
     2017.29871        -6.99719         8.73005
     2017.30047       -12.86681         4.58450
     2017.30321       -12.99859         4.57405
     2017.30595        -6.93837         4.59059
     2017.30869       -11.01214         4.59059
     2017.31143        -4.99492         4.55227
     2017.31416        -5.74770         4.58537
     2017.31690        -6.29547         4.62804
     2017.31964        -2.45125         4.68552
     2017.32238       -13.82102         4.64894
     2017.32512       -13.22980         4.56447
     2017.32785        -6.22958         4.57927
     2017.33059       -20.83535         4.58624
     2017.33333       -10.45313         4.55750
     2017.33607       -11.15790         4.53747
     2017.33880        -7.94068         4.59321
     2017.34154        -0.37646         4.93112
     2017.34428        -8.99623         4.55053
     2017.34702        -8.56801         4.52789
     2017.34976        -7.69878         4.53747
     2017.35249        -5.48756         4.55402
     2017.35523        -8.86934         4.57143
     2017.35797       -10.97911         4.58276
     2017.36071       -11.75989         4.57056
     2017.36344        -6.20266         4.58711
     2017.36618       -11.67644         4.55140
     2017.36892        -4.19322         4.63066
     2017.37166        -5.21799         4.59234
     2017.37440        -5.83377         4.72733
     2017.37713        -9.45755         4.63066
     2017.37987       -11.89832         4.64372
     2017.38261       -11.96710         4.72907
     2017.38535        -6.59287         4.54966
     2017.38809        -7.18365         4.54966
     2017.39077        -6.17753         4.60279
     2017.39328         1.65225         5.19065
     2017.39590        -2.63774         5.30649
     2017.39852        -4.24673         5.66095
     2017.40115        -2.57573         6.10686
     2017.40428        -1.12974         8.96433
     2017.40651         0.21550         8.14567
     2017.40919        -9.30238         7.09622
     2017.41187        -8.01327         8.67170
     2017.41672         9.84898        21.32436
     2017.41695        10.41242        20.35067
     2017.41963       -11.67847        72.39220
     2017.42282         4.41263        63.93562
     2017.42636        -4.25962         6.35681
     2017.42841       -11.27271        12.35480
     2017.43104        -3.03970        67.62569
     2017.43383        -2.50037        16.43417
     2017.43645         0.16864        17.71006
     2017.43896        11.80743        12.08830
     2017.44182         2.99287         9.14287
     2017.45003        13.60054        12.09179
     2017.45271         6.11066        10.66348
     2017.45545        11.26788        11.04843
     2017.45836         3.09643         7.87394
     2017.46115         0.51176         7.46548
     2017.46395        -2.88190         7.08664
     2017.46680         1.83054         6.77572
     2017.46976        -3.63980         5.83165
     2017.47262        -0.62136         5.35787
     2017.47564        -4.73859         4.67333
     2017.47843        -5.73026         4.61759
     2017.48117        -3.37704         4.56447
     2017.48391        -4.69781         4.72471
     2017.48665        -5.52059         4.59495
     2017.48939        -2.91037         4.68465
     2017.49212        -3.92914         4.59582
     2017.49486         1.85408         4.65504
     2017.49760        -0.02169         4.71165
     2017.50034        -0.12747         4.59495
     2017.50308         2.21375         4.61585
     2017.50581        -1.99702         4.63849
     2017.50855        -4.82280         4.63414
     2017.51129        -2.70057         4.64285
     2017.51403        -1.81335         4.65504
     2017.51676        -1.23713         4.60975
     2017.51950        -0.56790         4.65330
     2017.52224         1.36232         4.65069
     2017.52498        -0.47245         4.60104
     2017.52772         0.98477         4.71339
     2017.53045        -1.25001         4.60453
     2017.53319        -1.85378         4.64633
     2017.53593        -0.35456         4.73691
     2017.53867         4.20367         4.65852
     2017.54141         8.33189         4.56882
     2017.54414         1.51311         4.58101
     2017.54688         6.37834         4.79613
     2017.54962        -7.46044         4.62369
     2017.55236        -1.14822         4.60279
     2017.55509         3.23401         4.59669
     2017.55783         3.95523         4.61933
     2017.56057         3.83546         4.68901
     2017.56331         1.91668         4.59756
     2017.56605        -1.40210         4.64633
     2017.56878         0.76313         4.58537
     2017.57152         6.20535         4.62456
     2017.57426        -1.33342         4.64198
     2017.57700        -2.00820         4.62020
     2017.57974        -0.70798         4.62108
     2017.58247         0.30925         4.58101
     2017.58521        -2.65453         4.53660
     2017.58795        -0.97230         4.62978
     2017.59069         5.51892         4.70468
     2017.59342         0.79014         4.63153
     2017.59616         1.24637         4.58537
     2017.59890         4.90159         4.61237
     2017.60164         5.58182         4.55314
     2017.60438         0.58104         4.64546
     2017.60711         1.22626         4.64372
     2017.60985         2.39849         4.70120
     2017.61259         5.55471         4.72471
     2017.61533         8.36093         4.68988
     2017.61807         3.71716         4.68117
     2017.62080         1.79338         4.63762
     2017.62354         1.50461         4.70643
     2017.62628        -6.54517         4.85448
     2017.62902         6.01105         4.80571
     2017.63175       -10.22472         4.67072
     2017.63449         1.13050         4.61062
     2017.63723         0.16673         4.64807
     2017.63997         5.89695         4.78132
     2017.64271         5.76517         4.66114
     2017.64544         4.64740         4.62195
     2017.64818         2.65562         4.65330
     2017.65092         3.96985         4.61759
     2017.65366         4.22607         4.57230
     2017.65639         1.03529         4.65156
     2017.65913         7.88352         4.56098
     2017.66187         3.70274         4.61062
     2017.66461         5.62196         4.74475
     2017.66735         4.65719         4.67594
     2017.67008         6.35841         4.59495
     2017.67282         7.62964         4.69859
     2017.67556         4.95486         4.57318
     2017.67830         4.95008         4.58188
     2017.68104         5.31731         4.56795
     2017.68377         8.30353         4.74649
     2017.68651        14.98676         4.81442
     2017.68925         3.40298         4.63675
     2017.69199         1.08920         4.61585
     2017.69472         5.28943         4.56882
     2017.69746        10.36665         4.67072
     2017.70020         6.27088         4.76391
     2017.70294        14.66610         4.86667
     2017.70568         2.60632         5.12272
     2017.70841         8.06755         4.56272
     2017.71115         4.24577         4.67333
     2017.71389         4.22900         4.67159
     2017.71663        10.63222         4.64024
     2017.71937         7.71844         4.62978
     2017.72210         4.61167         4.55663
     2017.72484         2.44789         4.58188
     2017.72758         6.37811         4.63414
     2017.73032         5.44134         4.61933
     2017.73305         9.34356         4.58363
     2017.73579         3.30279         4.54618
     2017.73853         2.16501         4.77174
     2017.74127         3.40423         5.02170
     2017.74401         7.08046         4.66201
     2017.74674         1.75268         4.64459
     2017.74948         3.83291         4.61237
     2017.75222        -0.40087         4.56272
     2017.75496         2.91335         4.59059
     2017.75770         1.11058         4.67420
     2017.76043         2.27680         4.57143
     2017.76317        10.15003         4.69859
     2017.76591         7.69225         4.67856
     2017.76865         7.52347         4.61933
     2017.77138        -0.15430         4.58450
     2017.77412         4.44792         4.62369
     2017.77686        -0.67485         4.59582
     2017.77960         5.21337         4.68378
     2017.78234        -0.20541         4.65069
     2017.78507         1.57182         4.54095
     2017.78781        -1.37696         4.54356
     2017.79055         0.48326         4.57143
     2017.79329         2.76549         5.01734
     2017.79603         2.49471         4.57666
     2017.79876        11.08894         4.68552
     2017.80150         6.86416         4.67333
     2017.80424         9.08938         4.56708
     2017.80698         7.58561         4.67507
     2017.80971        -4.36517         4.57927
     2017.81245        -3.77894         4.85884
     2017.81519        -2.38772         4.64198
     2017.81793        -2.89850         4.65156
     2017.82067        -4.07227         4.67768
     2017.82340        -2.44005         4.56360
     2017.82614        -1.42282         4.54443
     2017.82888        -3.13160         4.97641
     2017.83162         3.67762         4.61672
     2017.83436         0.11585         4.63675
     2017.83709         2.09907         4.75084
     2017.83983        -0.95571         4.54095
     2017.84257        -1.93448         4.54095
     2017.84531         0.08074         4.57840
     2017.84804        -7.21403         4.57230
     2017.85078         1.53719         4.56360
     2017.85352         2.04841         4.61237
     2017.85626         1.35264         4.98512
     2017.85900        -0.83414         4.65504
     2017.86173         0.39809         4.64024
     2017.86447         2.21931         4.56447
     2017.86721        -0.11147         4.60104
     2017.86995        -1.92124         4.58101
     2017.87269         3.88798         4.56098
     2017.87542         0.66221         4.55489
     2017.87816         5.33343         4.56621
     2017.88090         2.33365         4.56360
     2017.88364         2.81588         4.56447
     2017.88637         9.25610         5.58779
     2017.88911         1.03233         4.58798
     2017.89185         1.37255         4.71339
     2017.89459        12.11677         4.89628
     2017.89733         6.55800         4.59408
     2017.90006        -2.19878         4.57579
     2017.90280         1.06444         4.79526
     2017.90554         2.75467         4.57753
     2017.90828         5.95989         4.57840
     2017.91102         0.07312         4.67594
     2017.91375        -0.93566         4.68117
     2017.91649        -1.66944         4.59059
     2017.91917         3.64968         4.68988
     2017.92197        -1.01299         4.57143
     2017.92470        -3.81576         4.56098
     2017.92744        -6.12354         4.61150
     2017.93018        -5.94732         4.60888
     2017.93292        -6.65609         4.58972
     2017.93566        -4.86287         4.60366
     2017.93839        -2.84264         4.58101
     2017.94113        -5.83342         4.59582
     2017.94387        -2.36520         4.60017
     2017.94661        -4.14597         4.56969
     2017.94935        -0.72475         6.25056
     2017.95208        -1.73252         4.71775
     2017.95482        -1.18330         4.65765
     2017.95756        -1.77008         4.59930
     2017.96030         4.58415         4.59843
     2017.96303         0.65037         4.62456
     2017.96577         4.08859         4.68378
     2017.96851         4.88982         4.55837
     2017.97125        -3.15596         4.56098
     2017.97399         1.92927         4.53573
     2017.97672        -2.58651         4.50263
     2017.97946        -0.31229         4.55402
     2017.98220        -2.15106         4.54008
     2017.98494        -3.40184         4.54095
     2017.98762        -8.92772         4.70468
     2017.99030        -9.81561         4.78655
     2017.99315        -1.91917         4.55663
     2017.99589        -6.70094         4.67681
     2017.99863        -4.09472         4.54966
     2018.00136        -6.20749         4.55314
     2018.00410        -8.93027         4.55402
     2018.00684        -6.31805         5.03999
     2018.00958        -5.29882         4.54443
     2018.01232       -12.24160         4.54879
     2018.01505        -5.53038         4.55402
     2018.01779        -3.63815         4.57056
     2018.02053        -2.42993         4.58276
     2018.02327         1.88830         4.53834
     2018.02600        -1.70648         4.55663
     2018.02874        -7.14026         4.57753
     2018.03142        -5.28514         4.69597
     2018.03422        -8.72381         4.57840
     2018.03696       -13.88458         4.55140
     2018.03969        -9.73136         4.54182
     2018.04243       -10.16814         4.57143
     2018.04517        -9.90891         4.57405
     2018.04791        -7.06169         4.63936
     2018.05065         0.32154         4.56969
     2018.05338        -0.11624         4.52789
     2018.05612        -3.70002         4.54356
     2018.05886        -8.26179         4.53050
     2018.06160        -4.93457         4.56882
     2018.06433        -0.93034         4.67333
     2018.06707        -1.07112         4.62804
     2018.06981        -7.39890         4.64024
     2018.07255        -3.90567         4.62282
     2018.07529       -16.34345         4.67507
     2018.07791        -7.44644         4.88932
     2018.08065        -7.32922         5.16453
     2018.08253        -3.27063         9.11848
     2018.08567        -3.41564         6.68602
     2018.08863        -4.66898         5.62698
     2018.09166         0.95979         4.84664
     2018.09445        -0.67788         4.68378
     2018.09719         3.16034         5.73323
     2018.09993        -5.03143         4.64720
     2018.10266        -8.19421         4.65156
     2018.10540        -5.99099         4.80048
     2018.10814        -5.00376         4.65156
     2018.11088        -4.53954         4.64024
     2018.11362        -4.39131         4.62456
     2018.11635        -4.85509         4.62195
     2018.11909        -5.86787         4.90412
     2018.12183        -0.17864         4.77523
     2018.12457        -4.09842         4.66462
     2018.12731       -11.84620         4.65852
     2018.13004         1.56403         4.70555
     2018.13278        -1.31775         4.67420
     2018.13552         1.31848         4.64459
     2018.13826        -2.60930         4.60714
     2018.14099        -5.46608         4.62108
     2018.14373        -7.26585         4.61498
     2018.14647        -4.20963         4.87800
     2018.14921         1.64660         4.73778
     2018.15195         2.48382         4.66636
     2018.15468         2.68504         5.62785
     2018.15742        -1.04973         4.64982
     2018.16016        -0.81451         4.65765
     2018.16290        -5.46528         4.74910
     2018.16564        -3.66006         4.75084
     2018.16837        -3.92184         4.65243
     2018.17111        -2.99361         4.66636
     2018.17385        -5.65739         4.62630
     2018.17659        -6.70016         4.64198
     2018.17932        -4.62994         4.67246
     2018.18206         0.84028         4.76391
     2018.18480         2.07051         4.72994
     2018.18754        -2.36427         4.66288
     2018.19028        -7.22405         4.62978
     2018.19301        -5.54682         4.64198
     2018.19575         2.46740         4.73691
     2018.19849        -0.73137         4.65504
     2018.20123         5.79185         4.71513
     2018.20397         4.18507         4.62804
     2018.20670        -3.41970         4.59843
     2018.20944        -1.88648         4.63327
     2018.21218        -1.64925         4.64720
     2018.21492       -13.53903         4.63675
     2018.21765        -0.19181         4.53050
     2018.22039        -7.90558         4.57753
     2018.22313        -2.94636         4.57318
     2018.22587        -7.73413         4.54792
     2018.22861        -8.75191         4.56360
     2018.23134        -9.29369         4.55837
     2018.23408       -11.58846         5.30823
     2018.23682        -7.07924         4.65591
     2018.23956        -7.10601         4.67856
     2018.24230        -6.18079         4.57405
     2018.24503        -8.58957         4.58711
     2018.24777        -4.15334         4.53573
     2018.25051         0.05288         4.59495
     2018.25325        -8.73890         4.56098
     2018.25598        -2.98367         4.90151
     2018.25872        -3.47545         6.59196
     2018.26146        -6.03722         4.63414
     2018.26420        -2.47000         4.76652
     2018.26694        -6.20778         4.53137
     2018.26967        -7.92655         4.54182
     2018.27241        -0.49533         4.68814
     2018.27515         1.80290         4.51308
     2018.27789         4.82112         4.64285
     2018.28062        -4.00066         4.73517
     2018.28336       -10.86543         4.53834
     2018.28610        -3.30321         4.51657
     2018.28884         4.40702         4.55053
     2018.29158         0.46924         4.65678
     2018.29431        -6.93254         4.59582
     2018.29705        -6.35431         4.48521
     2018.29979        -9.90209         4.51134
     2018.30253        -5.42287         4.58276
     2018.30527        -4.82364         4.53311
     2018.30800        -5.66442         4.50611
     2018.31074        -5.77519         5.24552
     2018.31348        -5.76197         4.52615
     2018.31622        -7.47875         4.52179
     2018.31895         4.93248         4.63153
     2018.32169        -3.58230         4.61237
     2018.32443        -4.08907         4.52353
     2018.32717        -8.16185         4.51134
     2018.32991        -2.03563         4.64372
     2018.33264        -2.88940         4.50002
     2018.33538        -3.04418         4.67594
     2018.33812        -6.77695         4.70730
     2018.34086        -2.04673         4.56360
     2018.34360        -3.34651         4.60888
     2018.34633        -3.32028         4.50699
     2018.34907        -3.68906         4.51744
     2018.35181         8.38817         5.56863
     2018.35455         0.50139         4.52179
     2018.35728         1.19361         4.50176
     2018.36002         2.19184         4.48608
     2018.36276         1.75906         4.57666
     2018.36550        -1.67572         4.56272
     2018.36824        -3.03149         4.53050
     2018.37097        -3.81327         4.57927
     2018.37371         0.14296         4.55837
     2018.37645        -6.11182         4.70381
     2018.37919        -1.98460         4.57579
     2018.38193        -0.70537         4.56708
     2018.38466         4.48485         4.52266
     2018.38740         0.62908         4.50176
     2018.39014         5.76530         4.80919
     2018.39288        -3.26248         4.54792
     2018.39561         0.22075         4.55837
     2018.39835         1.33297         4.54531
     2018.40109        -1.46480         4.54705
     2018.40383        -0.18058         4.70904
     2018.40657        -6.49736         4.58711
     2018.40930         7.89887         4.74475
     2018.41204         8.43109         4.57579
     2018.41478        -4.86168         4.53834
     2018.42299         2.19599         4.57405
     2018.42567         4.11410         4.63675
     2018.42841         2.88633         4.60192
     2018.43121         5.47666         4.62630
     2018.43394        -4.69112         4.74997
     2018.43668         2.48311         4.59843
     2018.43942         1.12933         4.54356
     2018.44216         0.75355         4.54008
     2018.44490         2.26478         4.51569
     2018.44763         5.47500         4.54705
     2018.45037        -0.15577         4.49653
     2018.45311         1.32045         4.53137
     2018.45585         2.71167         4.56708
     2018.45859         5.17590         4.58537
     2018.46132        -0.42188         4.53137
     2018.46406         2.70835         5.50767
     2018.46680         3.02857         4.73081
     2018.46954         5.44579         4.64459
     2018.47227        -0.08598         5.04173
     2018.47501         6.57924         4.60714
     2018.47775         3.84646         4.52092
     2018.48049         8.97469         4.63240
     2018.48323         5.01091         4.51047
     2018.48596        -3.24286         4.53137
     2018.48870         2.36436         4.65417
     2018.49144        -3.55342         4.53485
     2018.49418        -8.18419         4.77087
     2018.49692        10.86103         4.86406
     2018.49965        10.86226         4.68988
     2018.50239        -1.59552         4.55140
     2018.50513        -0.19230         4.52876
     2018.50787         4.53393         4.69946
     2018.51060         3.98415         4.62891
     2018.51334        -7.01862         4.67333
     2018.51608         0.40360         4.55053
     2018.51882         6.75982         4.54531
     2018.52156         0.16805         4.64198
     2018.52429         0.73327         4.52353
     2018.52703         2.96350         4.50002
     2018.52977        -0.20528         4.53747
     2018.53251         2.37694         4.53137
     2018.53525         4.33917         4.56185
     2018.53798         2.53339         4.54618
     2018.54072         0.90761         4.64982
     2018.54346         0.88484         4.93983
     2018.54620        -0.40194         4.55314
     2018.54893         4.06429         4.54182
     2018.55167         4.39451         4.53311
     2018.55441         1.22573         4.49741
     2018.55715         4.08096         4.48434
     2018.55989        -1.80282         4.67507
     2018.56262         3.03941         4.58450
     2018.56536         0.80963         4.56621
     2018.56810         3.81585         4.52615
     2018.57084         4.28608         4.64807
     2018.57357         6.93430         4.84142
     2018.57631         3.91353         4.71775
     2018.57905         0.71975         4.77523
     2018.58179         2.62197         4.63240
     2018.58453         5.86720         4.63066
     2018.58726         5.77742         4.50437
     2018.59000        -4.47635         4.58798
     2018.59274         9.93987         4.55489
     2018.59548         8.47109         4.50699
     2018.59822         9.47032         4.51831
     2018.60095         7.21254         4.52615
     2018.60369         6.10276         4.52615
     2018.60643         8.00599         4.56447
     2018.60917         3.92621         4.60627
     2018.61190        10.65644         4.53311
     2018.61464         5.54666         4.51308
     2018.61738         6.26188         4.53311
     2018.62012        10.52011         4.57143
     2018.62286        13.22433         4.60975
     2018.62559         4.41056         4.70904
     2018.62833         4.36278         4.50873
     2018.63107         7.72800         4.54356
     2018.63381         4.47823         4.64633
     2018.63655         2.43245         4.53573
     2018.63928         8.59268         4.72646
     2018.64202         8.93490         4.82400
     2018.64465        13.63891         5.31258
     2018.64750         3.32635         4.54966
     2018.65023         9.76557         4.73865
     2018.65297        19.84779         4.53311
     2018.65571         9.07902         4.81093
     2018.65845         5.40424         4.51395
     2018.66119         6.62747         4.56447
     2018.66392         3.44869         4.61150
     2018.66666         4.76891         4.56447
     2018.66940        11.02014         4.54095
     2018.67214         2.78236         4.58276
     2018.67488         0.19759         4.57492
     2018.67761         6.25481         4.54443
     2018.68035         1.20603         4.64285
     2018.68309        -0.69774         4.60279
     2018.68583         1.24548         4.67943
     2018.68856        -1.88929         4.58014
     2018.69130         5.59893         4.57230
     2018.69404         8.60015         4.65417
     2018.69678         5.72938         4.56534
     2018.69952         2.93560         4.53747
     2018.70225         2.48683         4.65069
     2018.70499        -2.39395         4.56447
     2018.70773         2.01727         4.54531
     2018.71047         4.87050         4.56795
     2018.71321         4.56072         4.52702
     2018.71594         2.43694         4.53921
     2018.71868        -7.19583         4.54356
     2018.72142        -0.53961         4.53573
     2018.72416         0.08762         4.64459
     2018.72689         1.73884         4.53660
     2018.72963         3.04406         4.54531
     2018.73237        -2.25771         4.54008
     2018.73511         0.85951         4.53224
     2018.73785         3.54974         4.54269
     2018.74058         3.17296         4.50524
     2018.74332         5.28718         4.51744
     2018.74606         3.48041         4.52353
     2018.74880         0.07063         4.53224
     2018.75148        -0.47325         4.74910
     2018.75387         4.47632         6.28017
     2018.75684         7.52298         5.04869
     2018.75946         0.48798         5.25859
     2018.76220         0.22221         5.24117
     2018.76511        -0.26924         4.91806
     2018.76785         0.96598         4.83271
     2018.77059         2.14321         4.88148
     2018.77338         5.96954         4.66898
     2018.77618         1.98887         4.52179
     2018.77891         6.75209         4.77871
     2018.78165         5.16332         4.66898
     2018.78439         0.16054         4.53660
     2018.78713         2.10077         4.51221
     2018.78987        -5.42001         4.59582
     2018.79260        -2.46379         4.70468
     2018.79534         8.58744         4.54879
     2018.79808        -0.58634         4.52876
     2018.80082         2.87489         4.51744
     2018.80355         3.88111         4.49915
     2018.80629         4.04133         4.62456
     2018.80903         2.19256         5.12446
     2018.81177         3.94178         4.79003
     2018.81451         2.24201         4.62804
     2018.81724         3.63823         4.59582
     2018.81998         2.35045         4.57927
     2018.82272         8.18368         4.59321
     2018.82546         7.09790         4.59495
     2018.82820        -1.66488         4.55489
     2018.83093         1.37835         4.53834
     2018.83367        -3.28943         4.55053
     2018.83641        15.18180         4.67420
     2018.83915         3.31302         4.63501
     2018.84188         4.00424         4.76826
     2018.84462         8.46247         4.56011
     2018.84736         2.50669         4.55053
     2018.85010         1.94392         4.84577
     2018.85284        -0.95886         4.51569
     2018.85557        -4.94664         4.57492
     2018.85831         2.09959         4.60017
     2018.86105        -1.19219         4.53747
     2018.86379        -3.71796         4.64198
     2018.86653         2.44426         4.53921
     2018.86926        -6.86352         4.58101
     2018.87200        -1.83429         4.56534
     2018.87474         1.99293         4.54095
     2018.87748         0.51716         4.62369
     2018.88021         2.14538         4.60975
     2018.88295         1.89960         4.63066
     2018.88569        -0.41417         4.63153
     2018.88843         4.32205         4.68988
     2018.89117         2.32127         4.68814
     2018.89390         2.23350         4.66375
     2018.89664        -1.56228         4.77087
     2018.89938        -2.16605         4.66462
     2018.90212         0.55417         4.69685
     2018.90485         5.60339         4.69249
     2018.90759         4.96962         4.68727
     2018.91033         4.02084         4.66027
     2018.91307         7.23607         4.74387
     2018.91581         6.09129         4.63588
     2018.91854         8.22751         4.61672
     2018.92128         3.58474         4.58972
     2018.92402         2.91896         4.61498
     2018.92676         4.92619         4.60627
     2018.92950         6.68441         4.57840
     2018.93223         3.42263         4.70120
     2018.93497        -1.91914         4.64024
     2018.93771         0.35908         4.61324
     2018.94045        -2.10569         4.59669
     2018.94318         8.43053         4.54966
     2018.94592         7.47575         4.59321
     2018.94866         6.31598         4.55750
     2018.95140        10.21320         4.72471
     2018.95414         9.03742         4.61324
     2018.95687         5.35765         4.54531
     2018.95961         6.10587         4.56534
     2018.96235         9.47410         4.99470
     2018.96509        -0.08868         4.62195
     2018.96783         0.11354         4.61672
     2018.97056         6.05277         4.62108
     2018.97330        -1.51801         4.55314
     2018.97604        -3.11978         4.65765
     2018.97878        -1.98656         4.58624
     2018.98151        -3.49134         4.56795
     2018.98425         0.17189         4.73342
     2018.98699        -5.92389         4.66898
     2018.98973        -2.94866         4.62282
     2018.99247         0.91656         4.66810
     2018.99520         1.53478         4.82487
     2018.99794        -7.46899         4.58624
     2019.00068        -8.57877         4.64894
     2019.00342        -7.27655         4.65852
     2019.00616        -1.66332         4.64807
     2019.00889         2.25790         4.63501
     2019.01163         0.09113         4.64894
     2019.01437         7.01735         4.59495
     2019.01711         5.57657         4.61324
     2019.01984        -3.18620         4.59756
     2019.02258        -3.08698         4.60714
     2019.02532        -6.99675         4.67420
     2019.02806        -1.43853         4.65330
     2019.03080        -5.85331         4.62369
     2019.03353        -6.59008         4.54966
     2019.03627        -9.10986         4.55402
     2019.03901         0.35837         4.56098
     2019.04175         0.97959         4.56621
     2019.04449         5.99381         4.57666
     2019.04722         1.34204         4.66810
     2019.04996        -8.74874         4.68204
     2019.05270        -6.00051         4.74126
     2019.05544        -0.46429         4.60104
     2019.05817        -5.72607         4.77087
     2019.06091        -2.64484         4.79090
     2019.06365        -5.14262         4.65330
     2019.06639        -0.09340         4.69685
     2019.06913        -4.07817         4.69423
     2019.07186        -4.23995         4.66636
     2019.07460        -4.39072         4.52179
     2019.07734         0.72950         4.56011
     2019.08008         3.81272         4.54182
     2019.08282         0.98795         4.69075
     2019.08555         1.41117         4.53485
     2019.08829         3.68540         4.49915
     2019.09103         4.40262         4.53660
     2019.09377         8.49284         4.51221
     2019.09650         5.14507         4.55053
     2019.09924         2.21029         4.50873
     2019.10198        -3.46048         4.51744
     2019.10472        -0.95326         4.51308
     2019.10746        -0.44904         4.52615
     2019.11019         0.39319         4.50263
     2019.11293         3.53241         4.61933
     2019.11567         7.85664         4.74387
     2019.11841        13.25986         4.52789
     2019.12388        12.71031         4.68291
     2019.12662         3.55953         4.72646
     2019.12936        -6.02925         4.55663
     2019.13210        -0.14202         4.56708
     2019.13483        -3.11280         4.56534
     2019.13757         0.87243         4.58276
     2019.14031         3.95965         4.56621
     2019.14305         0.01987         4.57318
     2019.14579        -1.79590         4.53485
     2019.14852         0.19032         4.53137
     2019.15126         1.43855         4.56447
     2019.15394        -7.85334         4.64198
     2019.15674        -0.39501         4.50176
     2019.15948       -12.22178         4.50960
     2019.16221       -10.84256         4.64198
     2019.16495        -6.44533         4.50786
     2019.16769        -9.58111         4.49653
     2019.17043        -9.02089         4.49131
     2019.17316        -3.96366         4.52615
     2019.17590        -7.92244         4.52615
     2019.17864        -8.97422         4.64982
     2019.18138        -0.87399         4.53311
     2019.18412       -19.92877         4.51831
     2019.18685        -9.28554         4.50611
     2019.18959        -5.48132         4.48957
     2019.19233         1.22190         4.57230
     2019.19507        -3.13887         4.55402
     2019.19780        -7.72365         4.53137
     2019.20054        -8.38242         4.60279
     2019.20328        -9.49120         4.50524
     2019.20602        -9.47598         4.51308
     2019.20876       -13.10175         4.54095
     2019.21149       -10.00053         4.54531
     2019.21423        -6.64330         4.55489
     2019.21697        -5.53608         4.48783
     2019.21971        -8.05486         4.70730
     2019.22245        -5.29363         4.49828
     2019.22518        -4.59741         4.50176
     2019.22792        -5.33218         4.56534
     2019.23066        -5.08396         4.52092
     2019.23340        -4.23774         4.50699
     2019.23613        -5.02051         4.53921
     2019.23887        -7.89229         4.52179
     2019.24161        -9.12107         4.64546
     2019.24435        -9.57784         4.60192
     2019.24709        -2.47562         4.75694
     2019.24971        -2.74961         4.72471
     2019.25256        -2.78617         4.62891
     2019.25530        -3.59795         4.55924
     2019.25804        -5.88072         4.57405
     2019.26078        -0.46250         4.50873
     2019.26351        -1.57927         4.59495
     2019.26619        -3.64716         4.56621
     2019.26870        -2.12937         5.26555
     2019.27173        -5.94160         4.73604
     2019.27446        -4.05338         4.51308
     2019.27720        -4.41315         4.58972
     2019.27994        -3.00193         4.50786
     2019.28268        -7.30771         4.52702
     2019.28542         1.04252         4.53921
     2019.28815        -0.92326         4.51221
     2019.29089        -3.78503         4.56534
     2019.29363        -5.78681         4.52702
     2019.29637        -4.88559         5.16191
     2019.29911         1.69564         4.55750
     2019.30184        -4.50614         4.54618
     2019.30452       -12.39702         4.58450
     2019.30732       -11.90169         4.56708
     2019.30994        -4.26669         4.69249
     2019.31279        -7.91924         4.56795
     2019.31553         4.72098         4.54879
     2019.31827        -2.48480         4.56011
     2019.32101        -6.98257         4.55489
     2019.32375       -11.74135         4.50002
     2019.32648        -4.47712         4.50350
     2019.32922        -6.16290         4.54269
     2019.33196        -8.31268         4.65156
     2019.33470         1.20855         4.65069
     2019.33744         1.89577         4.54618
     2019.34017        -3.72000         4.55053
     2019.34291        -1.85578         4.50437
     2019.34565        -3.58656         4.67072
     2019.34839        -9.54433         4.72907
     2019.35112        -4.18511         4.54966
     2019.35386        -2.23489         4.50960
     2019.35660         1.96134         4.50437
     2019.35934         3.55756         4.57492
     2019.36208        -1.86721         4.57666
     2019.36481        -4.30299         4.58450
     2019.36755        -4.67977         4.55140
     2019.37029         0.56646         4.56272
     2019.37303         3.16268         4.57318
     2019.37577         0.58091         4.67594
     2019.37850        -0.80087         4.58972
     2019.38124         3.99535         4.57405
     2019.38398         3.48058         4.54618
     2019.38672        -0.93220         4.52789
     2019.38940        -0.70508         5.30039
     2019.39219        -5.35575         4.79787
     2019.39493        -1.79753         4.56447
     2019.39767        -1.20130         4.59321
     2019.40041         0.81492         4.56098
     2019.40314         2.84315         4.50002
     2019.40588         1.67637         4.52615
     2019.40776         6.86196         7.47942
     2019.41220         1.20242         7.57261
     2019.41410         1.10604         4.54618
     2019.41683        -1.20574         4.53747
     2019.41957         3.06049         4.62108
     2019.42214        -4.58661         4.83445
     2019.42493        -1.92528         4.69510
     2019.42778         0.82316         4.69510
     2019.43041        -0.44583         4.70643
     2019.43326        -3.46739         4.54966
     2019.43600        -5.67717         4.84316
     2019.43874        -5.00694         4.65069
     2019.44147        -5.50972         4.61411
     2019.44421        -1.61850         4.77174
     2019.44609        -3.55090         7.69279
     2019.45049       -29.54652        20.53357
     2019.45265        -3.60139         6.54406
     2019.45499         8.66707         9.24128
     2019.45716        15.22921        13.30410
     2019.46018       -32.12902        19.46147
     2019.46338         0.45107         7.68757
     2019.46543         3.48499         6.79923
     2019.46857         3.00997         6.02499
     2019.47159         0.71074         4.62804
     2019.47689        -9.43814         4.97031
     2019.47980         4.06141         4.65678
     2019.48254        -3.24636         4.67856
     2019.48528        -7.44114         4.68030
     2019.48802        -6.34091         4.63675
     2019.49076        -0.33869         4.52615
     2019.49349         0.03853         4.58624
     2019.49623        -0.18024         4.57840
     2019.49897        -2.78702         4.61846
     2019.50171        -1.52879         4.52789
     2019.50444        -1.25457         4.53747
     2019.50718        -3.01935         4.52876
     2019.50992        -2.12312         4.66375
     2019.51266       -10.39390         4.56185
     2019.51540        -3.14667         4.58885
     2019.51808         1.86644         4.63327
     2019.52081        -4.74134         4.75433
     2019.52361         0.32000         4.58450
     2019.52635        -4.75478         4.59582
     2019.52908        -0.75156         4.83706
     2019.53182        -0.49433         4.70555
     2019.53456        -7.76411         4.69946
     2019.53730        -0.86188         4.65852
     2019.54004         1.66534         4.70381
     2019.54277         8.83956         4.70817
     2019.54551        -0.62921         4.86754
     2019.54825         2.00101         4.54966
     2019.55099        -2.05176         4.59408
     2019.55373         3.55246         4.72123
     2019.55646         2.80068         4.69859
     2019.55920        -1.39009         4.82139
     2019.56194        10.00013         6.86717
     2019.56468         0.37136         4.70120
     2019.56741        -0.71242         4.64111
     2019.57015         1.84280         4.58885
     2019.57289         1.76603         4.64111
     2019.57563        -2.15375         4.58885
     2019.57837         2.06348         4.77697
     2019.58110         2.66370         4.58450
     2019.58373         7.45771         4.94331
     2019.58658        -4.54285         4.61324
     2019.58898         4.83872         5.17324
     2019.59137        10.12729         6.59196
     2019.59405         3.19040         6.55799
     2019.59685         7.82274         6.83668
     2019.59970        10.21418         6.15476
     2019.60255         3.96762         5.47022
     2019.60535         6.82595         6.37336
     2019.60808         7.34218         5.68533
     2019.61088         0.11951         5.20981
     2019.61367         0.02284         5.19414
     2019.61641         1.84507         5.11576
     2019.61915         0.19629         5.16627
     2019.62200         2.86473         5.06873
     2019.62480         1.74106         4.77174
     2019.62765         8.62151         4.62020
     2019.63050         7.62795         4.82748
     2019.63312         0.07595         4.58711
     2019.63586         5.04918         4.97031
     2019.63860        10.65040         4.80310
     2019.64407        -2.47115         4.69423
     2019.64681        -4.40093         4.58972
     2019.64955        -3.03770         4.61324
     2019.65229         5.72652         4.58624
     2019.65503        -1.95026         4.67507
     2019.65776         0.24597         4.70730
     2019.66050         1.06919         4.72297
     2019.66324        -2.98258         4.60366
     2019.66598         3.75864         4.61498
     2019.66872         3.97286         4.59234
     2019.67145         2.77609         4.60017
     2019.67419         0.51831         4.58798
     2019.67693         0.94154         4.73342
     2019.67967        -0.14324         4.86319
     2019.68240         0.60798         4.63588
     2019.68514        -5.01079         4.81703
     2019.68788         4.01943         4.93460
     2019.69062         1.39866         4.65504
     2019.69336        -1.35212         4.57840
     2019.69592        -1.46722         4.93025
     2019.69883        -5.11167         4.62630
     2019.70157        -1.48245         4.60279
     2019.70431        -1.77223         4.59059
     2019.70705         3.54200         4.56272
     2019.70978        -0.60878         4.62369
     2019.71252        -4.78955         4.58101
     2019.71526        -1.08433         4.53660
     2019.71800        -0.01411         4.70381
     2019.72073         0.61112         4.70730
     2019.72347        -2.12866         4.55663
     2019.72621        -0.01043         4.84577
     2019.72895         0.00279         4.70120
     2019.73169        -0.89199         4.66898
     2019.73442        -0.73876         4.68814
     2019.73716        -0.38754         4.61411
     2019.73990         2.69569         4.76042
     2019.74264         1.90891         4.64807
     2019.74538         1.30913         4.52005
     2019.74811         2.95936         4.65417
     2019.75085         2.12458         4.64720
     2019.75359         1.14281         4.92677
     2019.75633        -1.51197         4.66288
     2019.75906        -2.05475         4.57492
     2019.76180        -2.41852         4.51221
     2019.76454         0.63870         4.65678
     2019.76728         8.49692         4.81006
     2019.77002         1.49715         4.67681
     2019.77275        -1.66263         4.74300
     2019.77549         1.37960         4.62891
     2019.77823         1.49982         4.64894
     2019.78097         4.78904         4.69336
     2019.78371         5.86427         4.65504
     2019.78644        -0.88351         4.66636
     2019.78918         8.33572         5.02866
     2019.79106         7.52931         7.70760
     2019.79386         2.24264         7.05006
     2019.79700         1.94363         5.69056
     2019.79996         5.60529         5.03128
     2019.80287        -2.08616         4.70033
     2019.80561         1.81806         4.80919
     2019.80835        -2.05272         4.64024
     2019.81108        -3.05349         4.63849
     2019.81382         1.64573         4.69075
     2019.81656         0.93396         4.72907
     2019.81930        -3.89882         4.63849
     2019.82203        -2.59560         4.66985
     2019.82477        -2.24537         4.66288
     2019.82751        -2.72315         4.80919
     2019.83025         0.17107         4.76303
     2019.83299        -2.10170         4.74562
     2019.83572        -2.38648         4.68552
     2019.83846         2.00075         4.67333
     2019.84120         3.03997         4.64720
     2019.84394        -0.41981         4.81181
     2019.84668        -3.54158         4.66201
     2019.84941        -1.30336         4.64459
     2019.85215         1.25887         4.67507
     2019.85489         3.30709         4.70991
     2019.85763         0.97631         4.68727
     2019.86036        -1.06846         4.70555
     2019.86310        -0.78524         4.80484
     2019.86584         3.51099         4.75258
     2019.86858         0.31721         4.67681
     2019.87132         5.70943         4.74997
     2019.87320         3.93702         7.73634
     2019.96167         1.02182         4.72471
     2019.96440        -0.46295         4.86667
     2019.96714         5.93627         4.89454
     2019.96988         1.27249         4.76652
     2019.97262         2.46472         4.75607
     2019.97535         1.71494         4.73255
     2019.97809         0.53717         4.72646
     2019.98083        -0.65061         4.73691
     2019.98357        -3.70539         4.77261
     2019.98631        -3.15116         4.79613
     2019.98904        -0.23694         4.82052
     2019.99178         2.34829         4.79526
     2019.99452        -3.20449         4.80135
     2019.99726         0.85273         4.85796
     2020.00000         8.13796         4.90935
     2020.00273         4.82818         4.84316
     2020.00547         9.07140         4.88496
     2020.00821         5.40163         4.84838
     2020.01095         1.97385         4.92241
     2020.01368        -2.53292         4.88322
     2020.01642        -4.92170         4.93635
     2020.01916         4.40352         4.83445
     2020.02190         0.00775         4.85796
     2020.02464         1.11197         4.92328
     2020.02737         1.33420         4.81790
     2020.03011        -0.66558         4.76739
     2020.03285        -3.89836         4.70033
     2020.03559        -2.86713         4.65417
     2020.03833         1.40209         4.64372
     2020.04106        -1.35368         4.74475
     2020.04380        -4.86146         4.72646
     2020.04654        -0.45524         4.62282
     2020.04928        -5.73501         4.61062
     2020.05201        -1.49279         4.61062
     2020.05475        -2.25157         4.67246
     2020.05749         0.69066         4.61585
     2020.06023        -3.84812         4.63414
     2020.06297        -3.86889         4.66723
     2020.06570         1.20233         4.63414
     2020.06844        -4.66545         4.67594
     2020.07118         3.34078         4.64372
     2020.07392         0.38000         4.75084
     2020.07666        -2.60577         4.67159
     2020.07939        -3.10255         4.70294
     2020.08213        -0.03733         4.69772
     2020.08487         4.91490         4.78655
     2020.08761         0.92712         4.67246
     2020.09034        -2.12365         4.67246
     2020.09308        -2.53643         4.65069
     2020.09582         3.64279         4.66288
     2020.09856         3.50002         4.70381
     2020.10130        -3.38676         4.75607
     2020.10403        -2.99753         4.69597
     2020.10677        -8.16331         4.69597
     2020.10951       -10.06309         4.67420
     2020.11225        -0.65186         4.74649
     2020.11498        -3.02064         4.74910
     2020.11772        -3.66842         4.83010
     2020.12046        -6.33419         4.81355
     2020.12320        -4.06397         4.66462
     2020.12594        -4.59274         4.68204
     2020.12867         0.40248         4.67594
     2020.13141        -4.90430         4.71426
     2020.13415        -8.78607         4.65417
     2020.13689        -6.00585         4.79003
     2020.13963        -1.63362         4.72733
     2020.14236        -2.31640         4.68291
     2020.14510        -0.13718         4.74387
     2020.14784         1.10605         4.74823
     2020.15058        -9.31173         4.70555
     2020.15331        -7.96450         4.67507
     2020.15605        -5.68928         4.75345
     2020.15879        -1.36406         4.67159
     2020.16153         1.52117         4.75433
     2020.16427        -1.30861         4.74649
     2020.16700        -5.10638         4.82313
     2020.16974         2.24284         4.72471
     2020.17248        -0.46394         4.72994
     2020.17522         0.57029         4.69336
     2020.17796        -1.39549         4.67159
     2020.18069        -2.88927         4.68378
     2020.18343        -2.99504         4.68727
     2020.18617        -3.93782         4.65504
     2020.18891        -1.82459         4.77436
     2020.19164        -1.39837         4.82487
     2020.19438        -1.88815         4.77349
     2020.19712        -5.02892         4.77261
     2020.19986        -7.13770         4.76216
     2020.20260        -3.70947         4.80658
     2020.20533        -1.52225         4.74910
     2020.20807        -1.51703         4.74039
     2020.21081        -5.61180         4.75781
     2020.21355        -5.04658         5.16714
     2020.21629        -2.05335         6.17914
     2020.21902        -2.84013         4.90586
     2020.22176        -3.96391         4.76565
     2020.22450         0.41932         4.79003
     2020.22724         0.34054         4.73604
     2020.22997         1.24176         4.68465
     2020.23271         1.61499         4.87974
     2020.23545        -1.56179         4.80310
     2020.23819        -1.40256         4.78568
     2020.24093         3.55866         4.78742
     2020.24366         1.33788         4.73081
     2020.24640         2.16611         4.75433
     2020.24914        -8.65567         4.77261
     2020.25188        -3.19044         4.82052
     2020.25462        -3.11222         4.77697
     2020.25735         1.79000         4.81790
     2020.26009         6.41823         4.74126
     2020.26283         2.24945         4.74736
     2020.26557        -1.88732         4.77000
     2020.26830        -0.15010         4.74823
     2020.27104        -0.54088         4.73168
     2020.27378        -1.98565         4.72820
     2020.27652         7.45157         4.79526
     2020.27926         1.10580         4.80919
     2020.28199        -1.32798         4.80484
     2020.28473        -3.99276         4.77000
     2020.28747         0.06747         4.78829
     2020.29021         1.09869         4.74562
     2020.29295        -0.33909         4.73691
     2020.29568         0.80114         4.81703
     2020.29842         3.72436         4.75781
     2020.30116         3.25959         4.78742
     2020.30390         1.59581         4.81181
     2020.30663        -1.21697         4.81529
     2020.30937        -8.05574         4.95812
     2020.31211        -3.28752         4.95202
     2020.31485        -1.32729         4.94157
     2020.31759        -2.55707         4.84142
     2020.32032        -5.71485         4.86058
     2020.32306        -2.98362         4.84229
     2020.32580        -3.16340         4.78219
     2020.32854        -2.19217         4.90586
     2020.33128        -3.48095         4.78132
     2020.33401        -2.50473         4.83010
     2020.33675        -2.96750         4.85100
     2020.33949        -0.23628         4.83445
     2020.34223        -3.41305         4.95986
     2020.34496        -5.73383         5.00254
     2020.34770        -8.73061         4.78307
     2020.35044        -3.86938         4.86842
     2020.35318        -6.37316         4.91893
     2020.35592        -4.47394         4.88932
     2020.35865         2.46429         4.84838
     2020.36139         2.42851         4.80310
     2020.36413         1.94774         4.70991
     2020.36687         0.11196         4.74475
     2020.36961        -3.39282         4.71775
     2020.37234        -1.93459         4.70294
     2020.37508         0.15963         4.69685
     2020.37782         2.42786         4.67420
     2020.38056        -3.22192         4.61498
     2020.38329        -4.01170         4.69597
     2020.38603        -2.03147         4.70730
     2020.38877        -4.77825         4.81790
     2020.39151        -0.92502         4.69075
     2020.39425        -3.45680         4.68552
     2020.39698        -2.62558         4.68814
     2020.39972        -8.66535         4.74213
     2020.40246         0.36587         4.69075
     2020.40520        -2.72391         4.80310
     2020.40794        -4.14268         4.71165
     2020.41067         4.46454         4.78916
     2020.41341         3.67777         4.70730
     2020.41615        -0.02201         4.76478
     2020.41889        -0.61879         4.76216
     2020.42162        -3.99856         4.77784
     2020.42436        -1.85234         5.01473
     2020.42710        -4.84911         4.88932
     2020.42984        -0.71289         4.80310
     2020.43258        -6.02067         4.82226
     2020.43531        -4.28844         4.89367
     2020.43805        -6.70522         4.89541
     2020.44079        -6.08999         4.81442
     2020.44353        -2.58077         4.84838
     2020.44626        -4.56155         4.74997
     2020.44900        -0.46632         4.76391
     2020.45174         1.41990         4.76913
     2020.45448         4.48813         4.73865
     2020.45722        -3.11365         4.68988
     2020.45995        -2.09043         4.69249
     2020.46269        -4.09320         4.71949
     2020.46543        -2.54198         4.74475
     2020.46817        -1.63476         4.84403
     2020.47091        -2.01953         4.71513
     2020.47364         5.17869         4.78655
     2020.47638         3.93892         4.71426
     2020.47912        -0.14586         4.80745
     2020.48186        -0.47964         4.77784
     2020.48459        -3.64841         4.94767
     2020.48733        -6.38619         5.14537
     2020.49007         2.05904         4.90586
     2020.49281        -1.74174         4.85796
     2020.49555       -11.80952         4.99296
     2020.49828         1.38271         4.66898
     2020.50102        -8.52407         4.73778
     2020.50376        -2.40084         4.74126
     2020.50650        -1.06362         4.70468
     2020.50924        -8.94440         4.73952
     2020.51197         0.04683         4.68030
     2020.51471        -1.52195         4.70468
     2020.51745         4.01028         4.61672
     2020.52019         2.34550         4.80484
     2020.52292         5.15572         4.79613
     2020.52566         0.64895         4.80658
     2020.52840         8.73317         4.79177
     2020.53114         0.60039         4.76216
     2020.53388         3.98162         4.75345
     2020.53661        -2.10616         4.80048
     2020.53935        -0.73093         4.82487
     2020.54209        -1.21671         4.87016
     2020.54483         3.46551         4.75433
     2020.54757         5.10274         4.73604
     2020.55030         3.17496         4.78394
     2020.55304         7.73319         4.81529
     2020.55578        11.60141         4.85013
     2020.55852         6.07363         4.86580
     2020.56125        10.71886         4.79700
     2020.56399        -3.43492         4.80745
     2020.56673         3.16431         4.78481
     2020.56947         6.73453         4.79177
     2020.57221         4.56675         4.97293
     2020.57494         1.80198         4.78045
     2020.57654         5.54502        12.16233
     2020.58076         7.19508         5.62437
     2020.58202         7.74847        12.27381
     2020.58572         1.14855         5.15233
     2020.58863         4.71410         4.82661
     2020.59137         6.36532         4.85187
     2020.59411        12.67754         4.85100
     2020.59616         0.48646         7.60657
     2020.61054         1.11889         5.09485
     2020.61327        10.98511         4.91719
     2020.61601         6.64734         5.38138
     2020.61875        -8.70744         9.32924
     2020.62063        -5.20385         7.80862
     2020.62696         2.41123         4.92590
     2020.62970        -2.83154         4.89541
     2020.63158         1.35405         7.99674
     2020.63791         7.52913         4.91109
     2020.63980       -10.47728         8.07164
     2020.64613         3.24180         4.75258
     2020.64801        12.40139         7.96103
     2020.65160         5.08225         4.72036
     2020.65349         2.26384         8.08296
     2020.72942        17.38573        15.42129
     2020.73015        -0.50289         8.15612
     2020.74469         5.52486         4.73168
     2020.74743         4.28808         4.71862
     2020.75017         2.99831         4.71078
     2020.75211         3.30201         7.06399
     2020.76363         2.00799         5.08353
     2020.83504         4.64025         4.77436
     2020.83778         4.37247         4.67768
     2020.84052         2.08670         4.72559
     2020.84325        -0.89808         4.87190
     2020.84599         3.25714         4.84490
     2020.84873         5.11237         4.69249
     2020.85147         1.22959         4.61933
     2020.85694         9.39304         4.64459
     2020.85968         7.22326         4.66810
     2020.86242         4.89949         4.65940
     2020.86516         2.97471         4.80048
     2020.86789        12.70593         4.81006
     2020.87063        12.78916         4.67856
     2020.87337         5.84438         4.75433
     2020.87611         7.12361         4.79090
     2020.87885         5.42983         4.81093
     2020.88158         6.49805         4.81093
     2020.88432         4.11128         4.69423
     2020.88706        -1.03250         4.92938
     2020.88980        -0.22527         4.72907
     2020.89253         4.07395         4.67246
     2020.89527         4.80517         4.84577
     2020.89801         2.26340         4.87712
     2020.90075         3.13662         4.67681
     2020.90349         3.03485         4.69685
     2020.90622         1.13007         4.72384
     2020.90896         6.49829         4.97293
     2020.91170         1.74652         4.88496
     2020.91444         5.10474         4.82922
     2020.91718         1.74497         4.71775
     2020.91991        -4.66281         4.70555
     2020.92168        -7.86644         8.90685
     2020.92545        -6.64925         4.85448
     2020.92704       -12.93621        10.69484
     2020.93765        23.78704       139.67214
     2020.93908        -8.46724         4.86406
     2020.94182        -7.33802         4.67594
     2020.94455        -7.29280         4.66114
     2020.94729        -8.39057         4.67594
     2020.95003        -8.44535         4.77697
     2020.95277       -13.39912         4.64546
     2020.95551        -8.17390         4.72907
     2020.95824        -6.82068         4.79352
     2020.96098        -4.51045         4.68727
     2020.96372        -8.36723         4.67594
     2020.96646        -1.13500         4.75694
     2020.96919        -2.83378         4.71252
     2020.97193        -7.59856         4.65417
     2020.97467        -1.31433         4.82052
     2020.97741        -9.40711         4.74910
     2020.98015        -8.30988         4.84229
     2020.98288        -5.75066         4.76478
     2020.98562         2.24756         4.61672
     2020.98836         4.29879         4.61237
     2020.99110        -1.16899         4.62456
     2020.99384        -2.03877         4.58885
     2020.99657         0.19246         4.63066
     2020.99931         3.12468         4.61411
     2021.00205        -2.38609         4.65504
     2021.00479         9.34513         4.66985
     2021.00752         9.30435         4.67333
     2021.01026         4.98458         4.63240
     2021.01300         4.32480         4.64982
     2021.01574         4.35003         4.68639
     2021.01848        -0.47875         4.64546
     2021.02121        -3.65053         4.65243
     2021.02395        -2.13930         4.62717
     2021.02669        -4.30408         4.62369
     2021.02943        -7.30985         4.64546
     2021.03216         0.05637         4.65504
     2021.03450         6.19383         5.78113
     2021.04038        -7.47796         4.71688
     2021.04312        -4.28574         4.67072
     2021.04585        -4.53451         4.74736
     2021.04859        -5.36529         4.66375
     2021.05133        -6.55906         4.68901
     2021.05407         0.06416         5.01995
     2021.05681        -3.17162         4.75433
     2021.05954        -9.27639         4.66375
     2021.06776         0.29128         4.66288
     2021.07049        -3.22050         4.74910
     2021.07323         1.53673         4.62543
     2021.07597        -7.47205         4.62891
     2021.07871        -6.21282         4.61411
     2021.08145        -6.20960         4.63675
     2021.08418        -8.61438         4.64459
     2021.08692        -5.68915         4.63414
     2021.08966        -4.09693         4.65417
     2021.09240       -12.15570         4.63327
     2021.09514        -7.85948         4.75258
     2021.09787        -9.40426         4.97467
     2021.10061         0.46597         4.73778
     2021.10335         0.91719         4.69859
     2021.10609        -8.91159         4.70207
     2021.10882        -6.35436         4.63066
     2021.11156        -9.65014         4.62456
     2021.11430       -10.94791         4.64024
     2021.11704        -5.47369         4.65069
     2021.11978        -4.75447         4.65243
     2021.12251        -6.12724         4.60453
     2021.12525        -8.03002         4.62195
     2021.12799        -0.09379         4.63240
     2021.13073         0.42043         4.74126
     2021.13347       -10.97035         4.73168
     2021.13620        -6.86512         4.67159
     2021.13894        -9.32790         4.62804
     2021.14168       -11.21167         4.63849
     2021.14442        -5.81345         4.65330
     2021.14715        -7.36123         4.70207
     2021.14989        -7.11000         4.63153
     2021.15166        -1.37763         9.40327
     2021.16358        -2.94388         4.73604
     2021.16632        -0.90366         4.74649
     2021.16906        -1.15144         4.60714
     2021.17180        -7.68121         4.58101
     2021.17453       -11.23799         4.78568
     2021.17727        -6.41876         4.75781
     2021.18001        -7.64054         4.71862
     2021.18377        -8.80336         8.92862
     2021.18548        -6.47709         4.59321
     2021.18822        -7.70787         4.60714
     2021.19079        -6.74297         4.96596
     2021.19318        -7.58740         6.08421
     2021.19644       -11.24420         4.60279
     2021.19917        -9.36397         4.64285
     2021.20191        -7.08675         4.58798
     2021.20465        -3.37552         4.61324
     2021.20739        -5.22230         4.62282
     2021.21013        -5.38608         4.71688
     2021.21286       -10.63585         4.74300
     2021.21560        -4.21563         4.59756
     2021.21834       -10.66341         4.61585
     2021.22108        -3.69818         4.59059
     2021.22381       -10.59196         4.62456
     2021.22655        -2.12273         4.63327
     2021.22929         0.21149         4.60017
     2021.23203        -3.13029         4.56621
     2021.23477        -7.44706         4.60888
     2021.23750       -10.30184         4.63501
     2021.24024        -2.07961         4.73255
     2021.24298       -10.15439         4.62456
     2021.24572       -10.56317         4.59146
     2021.25119        -6.39272         4.61237
     2021.25393        -4.76249         4.62456
     2021.25667        -7.99127         4.65069
     2021.25941        -3.00705         4.67072
     2021.26214        -4.72682         4.58450
     2021.26488        -2.21660         4.60192
     2021.26762        -2.00237         4.70207
     2021.27036        -5.08915         4.70120
     2021.27310        -7.28193         4.70904
     2021.27583        -5.95970         4.59408
     2021.27857        -5.89848         4.65243
     2021.28131        -4.07626         4.68727
     2021.28405        -3.34603         4.68639
     2021.28679        -2.86381         4.71339
     2021.28952        -1.72958         4.72471
     2021.29226        -3.43736         4.66985
     2021.29500        -2.41414         4.72994
     2021.29774         0.43209         4.87277
     2021.30047        -3.51069         4.72471
     2021.30321         3.61854         4.74910
     2021.30595         2.44076         4.83706
     2021.30869         3.44898         4.87103
     2021.31143         0.70821         4.65940
     2021.31416         7.29143         4.63936
     2021.31690         2.12666         4.65852
     2021.31964         2.76288         4.75955
     2021.32238        -1.87490         4.77784
     2021.32512        -2.20767         4.68465
     2021.32785        -2.75745         4.73691
     2021.33059        -7.99222         4.84664
     2021.33333        -8.76000         4.65330
     2021.33607        -3.35978         4.61498
     2021.33880       -13.81055         4.71601
     2021.34154        -6.83333         4.70643
     2021.34428        -4.42711         4.70817
     2021.34702        -6.42388         4.68204
     2021.34976        -8.26266         4.62020
     2021.35249        -8.24543         4.65591
     2021.35523        -4.54821         4.62282
     2021.35797        -3.21299         4.69946
     2021.36071        -4.10876         4.63588
     2021.36344        -8.12554         4.65852
     2021.36618       -11.35431         4.68901
     2021.36892       -11.12409         4.66898
     2021.37166        -1.91687         4.60453
     2021.37440        -3.86064         4.63849
     2021.37616        -9.44127         8.67519
     2021.37987        -8.20919         4.81616
     2021.38261        -2.85297         4.92067
     2021.38535        -7.26175         4.79003
     2021.38809        -3.89752         4.66549
     2021.39002       -12.90082         7.31917
     2021.67008        -0.27546         4.72907
     2021.67282         4.58876         4.85361
     2021.67556        -0.03901         4.90412
     2021.67830        -1.98179         4.84142
     2021.68104        -1.75756         4.74039
     2021.68377         4.89666         4.69685
     2021.68651         5.16088         4.70294
     2021.68925         5.21911         4.68291
     2021.69199        -0.40767         4.71688
     2021.69472        -2.64145         4.72994
     2021.69746         2.79678         4.74997
     2021.70020         4.55600         4.73952
     2021.70294         0.32623         4.70294
     2021.70568        -0.35555         4.81790
     2021.70841         3.51667         4.70294
     2021.71115         6.99090         4.70991
     2021.71389         9.64412         4.85884
     2021.71663         0.34935         6.83755
     2021.71937        -5.72243         4.72471
     2021.72210        -3.89121         4.67856
     2021.72484        -2.00498         4.73778
     2021.72758        -3.91776         4.70120
     2021.73032        -6.70453         4.95551
     2021.73305         6.48569         4.71078
     2021.73579         9.95891         4.80832
     2021.73853         9.20314         4.80223
     2021.74127         7.50736         6.25578
     2021.74401         1.12458         4.71426
     2021.74674         4.40381         4.70294
     2021.74948        -5.00397         4.88496
     2021.75222         0.19226         5.70972
     2021.75496         1.69648         4.86232
     2021.75770         2.32370         4.92067
     2021.76043         5.09393         6.46045
     2021.76317         7.15115         6.63899
     2021.76591         5.38138         6.16521
     2021.76865         7.62060         6.96819
     2021.77138         5.64782         6.90461
     2021.77412        12.48105         5.97709
     2021.77686         2.91827         6.34026
     2021.77960         1.79450         7.76595
     2021.78234         9.22072         7.34878
     2021.78507        16.14394         6.13473
     2021.78781        10.55617         6.51357
     2021.79009         2.87052         7.12060
     2022.35835        -0.56623        10.50324
     2022.36002         4.37196         5.70624
     2022.36276        -5.01081         8.14741
     2022.36550        -3.54359         6.81143
     2022.36824        -3.48636         6.23227
     2022.37097        -2.58514         6.15737
     2022.37371        -8.23792         7.51948
     2022.37645       -14.93969         7.02741
     2022.37919         7.10053         6.15650
     2022.38193        -6.49424         7.47245
     2022.38466        -5.08902         7.05180
     2022.38740       -17.53080         7.03786
     2022.39014         1.00143         5.95793
     2022.39288        -4.23935         6.55538
     2022.39561        -8.56113         6.19308
     2022.39835         0.60110         6.70605
     2022.40109        -3.62668         5.81858
     2022.40383        -0.29645         7.30001
     2022.40657         3.84677         6.31239
     2022.40930        -8.48901         6.82362
     2022.41204        -1.34178         6.12340
     2022.41478        -5.01356         5.86387
     2022.41752        -0.19733         5.43364
     2022.42026        -0.60411         5.71146
     2022.42299         2.25211         5.61566
     2022.42573        -8.11766         5.81945
     2022.42847         5.84356         6.46306
     2022.43121        -0.68521         6.49790
     2022.43394        10.27801         5.69056
     2022.43668         3.56523         5.82816
     2022.43942        -5.73654         5.59127
     2022.44216        -0.57532         6.40994
     2022.44490         3.53690         5.85516
     2022.44763         2.75313         7.11712
     2022.45037         2.93435         6.93945
     2022.45311       -12.08742         5.84907
     2022.45585         4.14980         6.13995
     2022.45859       -10.84798         6.00844
     2022.46132        -5.31975         5.96141
     2022.46406        -6.46453         6.43868
     2022.46680        -6.59030         6.05809
     2022.46954        -3.82808         5.62437
     2022.47227       -13.73686         4.74997
     2022.47501         3.29937         4.76042
     2022.47775       -12.41841         4.79961
     2022.48049        -6.73518         4.70730
     2022.48323         3.10304         4.68988
     2022.48596        10.68126         4.72297
     2022.48870        -7.10951         4.80571
     2022.49144        -9.91729         4.73081
     2022.49418        -1.52306         4.79874
     2022.49692        -2.76384         4.76216
     2022.49965        -9.31662         4.73778
     2022.50239       -17.12339         4.73081
     2022.50513        -3.78717         4.99296
     2022.50787         6.48405         4.97728
     2022.51060        -4.85072         4.89106
     2022.51334        -9.54550         4.77610
     2022.51608       -10.42627         4.77174
     2022.51882       -10.58505         4.72297
     2022.52156        -2.19783         4.73255
     2022.52378         0.09642         6.08857
     2022.53060         7.84843         7.43152
     2022.53251         0.58107         4.80658
     2022.53525         1.91229         4.79787
     2022.53798         0.19952         4.81006
     2022.54072        -3.66126         4.68030
     2022.54346        -0.88503         4.71775
     2022.54620        -2.08481         4.71078
     2022.54893         2.66041         4.71862
     2022.55167         3.08964         4.78655
     2022.55441         3.85586         4.74475
     2022.55715         9.34109         4.68465
     2022.55989         0.69931         4.68727
     2022.56262        -0.50147         4.71252
     2022.56536       -12.97924         4.74997
     2022.56810        -0.52702         4.84055
     2022.57084         2.79920         4.72733
     2022.57357        10.52743         4.84403
     2022.57631         0.94565         4.69075
     2022.57905        -4.38812         4.71949
     2022.58179         3.53610         4.72036
     2022.58453        14.62532         5.04695
     2022.58726        -1.78345         4.89803
     2022.59000         7.25377         4.94244
     2022.59274        -0.05800         4.66549
     2022.59548         2.52222         4.65940
     2022.59822        -7.46356         4.68465
     2022.60095        -5.26633         4.72036
     2022.60369         7.26589         4.87625
     2022.60643        11.87412         4.90064
     2022.60917         4.08334         4.80223
     2022.61190        13.67956         4.83880
     2022.61464         3.16979         4.74823
     2022.61738        13.01301         4.65765
     2022.62012        -1.03777         4.61933
     2022.62286         4.43546         4.59234
     2022.62559         5.38968         4.68117
     2022.62833         3.28991         4.62020
     2022.63107         3.15713         4.70730
     2022.63381         6.28735         4.62891
     2022.63655        10.16458         4.58885
     2022.63928         8.97380         4.69423
     2022.64202        11.04203         4.96944
     2022.64476         9.65025         5.01473
     2022.64750         8.47547         4.72646
     2022.65023        10.22070         4.75955
     2022.65297         3.74792         4.81877
     2022.65571         7.77415         4.74300
     2022.65845        12.78237         4.93025
     2022.66119        11.65459         4.61672
     2022.66392         8.30282         4.67159
     2022.66666         8.75004         4.62891
     2022.66940        11.99127         4.61062
     2022.67214        11.65549         4.77261
     2022.67488         8.70771         4.69772
     2022.67761        13.62094         4.71862
     2022.68035        10.89116         4.61672
     2022.68309        18.46338         4.65243
     2022.68583        10.34761         4.93460
     2022.68856        11.89283         4.66636
     2022.69130        10.59806         4.67681
     2022.69404        11.85428         4.68814
     2022.69678         9.28150         4.77784
     2022.69952         4.02873         4.68814
     2022.70225        13.54695         6.17566
     2022.70499        15.30718         4.81616
     2022.70773         8.46740         4.68378
     2022.71047         6.46862         4.61237
     2022.71321        14.41385         6.08247
     2022.71594        14.10007         6.03370
     2022.71868         8.38830         4.62020
     2022.72142        27.29552         6.54580
     2022.72421        14.17185         5.89087
     2022.72689         7.67297         5.53205
     2022.72963        13.44419         5.75152
     2022.73237         8.84842         4.59669
     2022.73511        12.98764         6.03980
     2022.73785        14.59686         5.15495
     2022.74058        14.06109         4.82139
     2022.74332        16.04131         5.93093
     2022.74606        14.71853         6.00235
     2022.74880         5.00576         6.34549
