# ================= DQRFIT RESULTS ================
# INPUT FILE: series/HAHD.rad
# OUTPUT: LDETRENDED
# FILTER FUNCTION: f(t)
# f(t)=+line(t)+annual(t)
# line(t)=+P 1+P 2*t
# annual(t)=+P 3*sin(2*pi*t+P 4)
# heav(t)=(t<0?0:1)
# TOTAL OBSERVATIONS MTOT= 3748
# INITIAL TIME INTERVAL= 2022.7488 - 2011.5166 = 11.2322
# TOTAL OBSERVATIONS AFTER PREFILTER M= 3725
# TIME-SPAN= 2022.7488 - 2011.5166 = 11.2322
# OBSERVATIONS: USED M=  3725 REJECTED MTOT-M=    23 %USED=   99.3863
# N=  4 PARAMETERS
# MAXSIG= 175.00000
# MAXRES=  40.64400
# SCALE FACTOR FOR LENGTHS: SCL=  10.00000
# SCALE FACTOR FOR SIGMAS: SCLSIG=   1.00000
# CHI^2=   4362.376 DOF=  3721 CHI^2/DOF=   1.17237
# RMS=      6.319 SDEV=      6.319 MEAN=    0.08692
#  P #       PARAMETER +-    SIGMA %error PARAMETER NAME
# P 1 =       -48.90271 +-   65.083 133.09 YZERO                              
# P 2 =         0.02539 +-    0.032 127.08 SLOPE                              
# P 3 =         4.75397 +-    0.140   2.94 ANNUAL AMPLITUDE                   
# P 4 =         2.73309 +-    0.038   1.40 ANNUAL PHASE                       
#       T            LDETRENDED       SIG_OBS
     2011.51658        -4.65582        17.02855
     2011.51813         4.60214         5.91186
     2011.52087         3.93007         5.90861
     2011.52361         3.82500         5.73104
     2011.52635        -4.31207         5.87397
     2011.52908        -0.11614         5.85556
     2011.53182        -9.38421         5.77652
     2011.53456        -5.73528         5.80467
     2011.54004        -5.00342         5.84690
     2011.54277       -10.22549         5.75378
     2011.54825        -7.40463         5.75378
     2011.55099        -1.03070         5.82849
     2011.55646        -1.11983         5.90212
     2011.56468        -0.66304         5.72346
     2011.56741         4.54389         5.73646
     2011.57015        -2.40218         5.82199
     2011.57289         1.34775         5.77868
     2011.57837        -2.38439         5.91403
     2011.58110        -8.65846         5.76136
     2011.58384        -0.01053         5.78085
     2011.58658         3.38240         6.10459
     2011.58932         0.57533         5.88696
     2011.59206        -2.12374         5.86530
     2011.59479         2.27419         5.81875
     2011.59753         5.33912         5.74079
     2011.60027        -0.60895         5.75161
     2011.60301         7.70198         5.81441
     2011.60574         0.43091         5.84473
     2011.60848         4.99084         5.89346
     2011.61122        -0.17222         5.86422
     2011.61396         1.28771         5.90104
     2011.61670         6.15464         5.81983
     2011.61943         0.54057         5.88588
     2011.62765         4.16936         5.83282
     2011.64134         2.32901         6.09052
     2011.64407        -1.15606         5.93677
     2011.64955        -3.25920         5.96059
     2011.65503         6.96666         5.79601
     2011.65776         6.42959         5.82091
     2011.66324        14.62545         5.87288
     2011.66598         4.40039         5.96492
     2011.67419        14.21018         5.81333
     2011.67693        15.85411         5.82524
     2011.68240        10.38297         5.85989
     2011.68514         9.95690         5.84365
     2011.69062        10.23676         5.89670
     2011.69336        15.73069         5.77219
     2011.69609         6.92562         5.84581
     2011.69883         4.74955         5.80575
     2011.70157         8.25648         5.79384
     2011.70431         9.19941         5.79276
     2011.71252        10.18720         5.91295
     2011.71526        -1.01787         5.97899
     2011.72073        13.22000         5.76136
     2011.72621         5.37286         5.82091
     2011.72895        12.24879         5.80575
     2011.73169        12.11272         6.16631
     2011.73716        11.56558         6.03746
     2011.73990         2.10451         5.75270
     2011.74264        13.45044         5.72888
     2011.74811        18.42630         5.86964
     2011.75085        13.53423         5.81225
     2011.75906        15.05102         5.83499
     2011.76180         9.43195         5.77868
     2011.76728         8.02281         5.85123
     2011.77002         5.96374         6.03638
     2011.77823         9.15954         5.86314
     2011.78097         6.30547         5.85123
     2011.78918        10.08126         5.89021
     2011.79192         2.05219         5.89346
     2011.79739        14.15805         5.92161
     2011.80013        14.97998         5.82524
     2011.80561         0.65584         5.81550
     2011.81108         8.09570         5.92919
     2011.81382        -1.90137         6.04829
     2011.82203         6.69442         6.75208
     2011.82478         4.69535         8.10120
     2011.82752        -0.35772         5.99524
     2011.83033        -5.49079         6.14141
     2011.83299         2.70715         6.03421
     2011.83572         2.45208         6.03746
     2011.83846        -5.15799         6.02447
     2011.84105        11.07394         6.32656
     2011.88606         9.36680        11.60176
     2011.88774         1.02376         5.94110
     2011.89048        -3.25031         5.91186
     2011.89325         2.02362         5.98657
     2011.89596        -2.00145         5.84473
     2011.89869         1.35248         5.86964
     2011.90143        -0.38159         5.89021
     2011.90417        -0.63966         5.93352
     2011.90691         1.71727         6.08944
     2011.90965         6.57420         5.82308
     2011.91238        -2.93487         5.96925
     2011.91512        -1.21094         5.89346
     2011.91786         6.32099         6.09377
     2011.92060        -1.09608         5.89454
     2011.92334        -1.54415         5.96925
     2011.92607        -3.67122         5.95842
     2011.92881         1.23071         5.96600
     2011.93155         2.11264         5.95626
     2011.93429         4.20357         5.96925
     2011.93702         4.51250         5.97683
     2011.93976         5.87643         5.95409
     2011.94251        -0.54564         5.91403
     2011.94524        -0.70770         5.92702
     2011.94798         9.11323         5.98224
     2011.95071         9.19316         6.06561
     2011.95345         3.39409         5.99740
     2011.95619         0.78702         6.00281
     2011.95893        -3.18605         5.79276
     2011.96165         3.70688         5.90970
     2011.96449        -3.49919         6.08619
     2011.96714         3.52974         5.95950
     2011.96988         6.72867         5.73537
     2011.97262         2.16660         5.70939
     2011.97535        -1.11547         5.70939
     2011.97809        -2.67254         5.73104
     2011.98084         2.16439         5.80250
     2011.98357         2.56632         5.77219
     2011.98631         3.48825         5.73321
     2011.98904         6.67718         5.76136
     2011.99178         8.15311         5.76677
     2011.99452         2.78804         5.79276
     2011.99726         4.28697         5.70289
     2012.00273         4.95084         5.74512
     2012.00547         4.51677         5.78085
     2012.00821         3.03970         5.93677
     2012.01095         2.50463         5.76894
     2012.01368         5.97856         5.70939
     2012.01642         4.15049         5.71480
     2012.01916         0.21342         5.73321
     2012.02190         4.14935         5.78085
     2012.02464        -1.41672         5.72455
     2012.02737         4.68421         5.70397
     2012.03011         5.26614         5.69098
     2012.03285         1.97607         5.75378
     2012.03559         3.54000         5.76136
     2012.03833         1.19693         5.76353
     2012.04106        -4.51314         5.71588
     2012.04380         4.08879         5.72455
     2012.04634         7.30573         6.24210
     2012.04928       -16.56135         6.34280
     2012.05475         7.31352         5.78301
     2012.05749         1.69545         5.82957
     2012.06023         3.00638         5.83390
     2012.06297         1.63031         5.76786
     2012.06570         5.25724         5.82091
     2012.06844        -0.82983         5.77327
     2012.07118        -5.93090         6.36770
     2012.07392         0.25103         5.69098
     2012.07666        -6.24404         5.72888
     2012.07939        -0.05611         5.69098
     2012.08213         0.65582         5.72888
     2012.08487        -4.56825         5.76244
     2012.08761        -1.33032         5.73429
     2012.09034        -0.52339         5.73862
     2012.09308         3.12554         5.71047
     2012.09582         2.33147         5.75053
     2012.09856         3.60940         5.77977
     2012.10130        -1.93467         5.88479
     2012.10403         2.78526         5.93027
     2012.10677        -5.32981         5.82416
     2012.10951        -0.13888         5.81875
     2012.11225         0.08906         5.79601
     2012.11498         0.98299         5.79926
     2012.11772         0.84392         5.80359
     2012.12046         1.08185         5.77868
     2012.12320        -0.57822         5.75378
     2012.12594         2.89371         5.83499
     2012.12867        -4.43436         5.79059
     2012.13141         0.05457         5.82199
     2012.13415         3.34850         5.80792
     2012.13689         2.14343         5.81983
     2012.13963        -0.33164         5.96167
     2012.14236        -9.12171         5.96275
     2012.14510        -2.51278         5.82849
     2012.14784       -12.73485         5.74945
     2012.15058        -3.13092         5.73646
     2012.15331        -5.71599         5.75161
     2012.15605        -9.12506         5.85881
     2012.15879         2.51987         5.82524
     2012.16153         4.03280         5.86964
     2012.16363        -1.99225         8.89162
     2012.47204        -6.46508        14.44725
     2012.47364        -2.22812         5.81225
     2012.47638         1.59781         6.52904
     2012.47912        -3.67326         5.74728
     2012.48186        -4.34233         5.78301
     2012.48459        -0.83340         5.82741
     2012.48733        -5.39747         5.74837
     2012.49007        -1.85254         5.79168
     2012.49281        -6.69361         5.75811
     2012.49555        -2.62268         5.77977
     2012.49833        -0.27375         5.82633
     2012.50102         2.06319         5.77435
     2012.50376        -0.70088         5.72563
     2012.50650        -1.44095         5.74079
     2012.50924        -1.62102         5.86639
     2012.51197        -0.54609         5.95409
     2012.51471        -3.62516         5.75919
     2012.51745        -3.74523         5.88155
     2012.52019        -0.52430         5.83174
     2012.52292        -6.39737         5.74620
     2012.52566        -1.24944         5.76244
     2012.52840         2.03349         5.74079
     2012.53114         2.37742         5.90537
     2012.53388         3.51835         5.85448
     2012.53662        -4.63472         6.03313
     2012.53935        12.07021         5.91511
     2012.54209         6.59414         5.80467
     2012.54483        -2.41193         5.74512
     2012.54757         2.60100         5.76461
     2012.55030         2.53493         5.88046
     2012.55304         1.98986         5.71372
     2012.55578         0.11579         5.74837
     2012.55852        -1.65727         5.72238
     2012.56125         2.08366         5.74295
     2012.56399        -0.81141         5.74187
     2012.56673        -0.00648         5.78193
     2012.56947         6.32745         5.73754
     2012.57221         6.50838         5.77977
     2012.57494        -1.11569         6.19446
     2012.57768         1.37424         5.80900
     2012.58042         9.14817         6.71202
     2012.58316        -0.97790         5.77219
     2012.58590         4.42203         5.72346
     2012.58858         7.17096         5.80034
     2012.59138         6.11589         5.91728
     2012.59411         8.94282         5.78085
     2012.59685        10.90275         5.92377
     2012.59958        -0.29532         5.75919
     2012.60232         1.65161         6.46732
     2012.60506         4.58154         5.76461
     2012.60780         6.57347         5.73537
     2012.61054         9.12640         5.80034
     2012.61328         6.94634         5.79926
     2012.61601        10.83327         5.78301
     2012.61875        10.54620         5.79709
     2012.62149        10.01613         6.14357
     2012.62423        16.03206         5.99632
     2012.62696        10.76899         6.08619
     2012.62970         5.75292         5.73862
     2012.63244         5.89485         5.93135
     2012.63518         9.87278         5.86314
     2012.63791         8.77171         5.79926
     2012.64065        12.87064         5.78951
     2012.64339        13.39157         5.74837
     2012.64613         8.13450         5.73862
     2012.64887         8.76743         5.80359
     2012.65161        14.91536         5.83390
     2012.65434         7.42729         5.99957
     2012.65708        12.69822         6.25726
     2012.65982         8.94515         6.05154
     2012.66256         8.39808         5.73862
     2012.66529        12.44501         5.75919
     2012.66803        11.99095         5.85339
     2012.67077        10.25988         5.86639
     2012.67351         8.39281         6.18905
     2012.67624         7.26074         6.20421
     2012.67897         9.52967         8.16400
     2012.68173        10.85360         6.73043
     2012.68446        12.52353         7.18952
     2012.68720        13.19046         5.95842
     2012.68994        11.54739         6.22695
     2012.69267         4.61932         6.00931
     2012.69541         5.50325         6.82571
     2012.69815         7.74218         5.92269
     2012.70089        10.24411         6.01581
     2012.70362         6.18604         5.79276
     2012.70636         4.59097         6.78240
     2012.70910         8.03190         6.42401
     2012.71184         9.69783         5.81550
     2012.71457        14.39976         6.39261
     2012.71731        14.53369         5.98333
     2012.72005        14.68262         6.15765
     2012.72279         9.57455         5.72346
     2012.72553        11.79149         5.96817
     2012.72826         8.12842         5.76353
     2012.73100         9.64035         6.08294
     2012.73374        12.78028         6.10026
     2012.73648         9.76221         5.99848
     2012.73921        11.76114         5.86530
     2012.74195         2.37507         6.33739
     2012.74469        10.80700         5.78410
     2012.74743        10.35493         5.85989
     2012.75017         8.49086         5.88696
     2012.75290        11.56579         5.90753
     2012.75564         6.29472         5.74079
     2012.75838         9.33365         5.96708
     2012.76112        12.08158         5.78843
     2012.76386        10.52651         5.77110
     2012.76659        14.43844         5.85339
     2012.76933        12.87637         6.03530
     2012.77207        12.07730         5.80900
     2012.77481         6.33723         5.94868
     2012.77754         6.99716         5.86314
     2012.78028        14.59910         5.90320
     2012.78302         6.84903         5.92486
     2012.78576         7.97196         5.91511
     2012.78850        10.82889         6.00390
     2012.79123        12.93782         6.02880
     2012.79397         9.51775         6.01256
     2012.79589         9.55070         9.25542
     2012.83621         8.80668        14.58476
     2012.83778         5.13764         5.90212
     2012.84052         6.64157         5.93244
     2012.84326         3.61850         5.90320
     2012.84599         4.02343         6.02555
     2012.84873         3.93436         5.90320
     2012.85147        -1.59271         5.97575
     2012.85420         2.53322         5.90645
     2012.85694         4.54115         5.84690
     2012.85968         5.18308         5.87721
     2012.86242         4.45001         5.87830
     2012.86516         6.47694         5.92053
     2012.86789         1.42287         6.06561
     2012.87063         3.05480         5.83932
     2012.87337         2.65073         5.88804
     2012.87611         1.18366         5.84040
     2012.87885         6.95059         5.87505
     2012.88158        -0.97148         5.79168
     2012.88432         8.29845         5.85015
     2012.88706         4.36638         5.95193
     2012.88980         2.68331         5.95193
     2012.89253        -0.81375         5.79926
     2012.89527         1.78218         5.79709
     2012.89801        -0.56889         5.82308
     2012.90075         2.49704         5.86639
     2012.90349         2.79997         5.80684
     2012.90622         4.50590         5.82849
     2012.90896         8.22483         5.92810
     2012.91170         9.14276         7.97777
     2012.91444         1.61369         7.52842
     2012.91718         8.37162         7.47970
     2012.91991         6.29255         8.07738
     2012.92265         2.33748         8.48017
     2012.92539         4.58041         7.99617
     2012.92816        10.10334         8.91544
     2012.93360        -2.61780         7.16895
     2012.93634         2.27913         6.24860
     2012.93908        -4.49994         6.32439
     2012.94182        -0.07501         7.16895
     2012.94459        14.39192         8.59710
     2012.94732         6.80985         8.86130
     2012.95003         8.29979         9.21428
     2012.95277         7.85172         9.06269
     2012.95551         7.70665         6.29408
     2012.95825         8.73658         6.17064
     2012.96098        10.57851         5.88046
     2012.96372         7.00244         6.18905
     2012.96645         8.02637         9.40051
     2012.96938         6.26329         6.85711
     2012.97193         2.95023         6.36879
     2012.97467         3.34216         5.88371
     2012.97741         3.85209         5.90212
     2012.98015         1.70702         6.54744
     2012.98288         5.44695         5.74512
     2012.98562         6.49788         5.76353
     2012.98836         7.46681         5.81225
     2012.99110         6.37874         5.81875
     2012.99384         0.56567         5.79276
     2012.99657         1.24860         5.72779
     2012.99931         2.04753         5.73970
     2013.00205        -0.69453         5.78518
     2013.00479         2.04140         5.81008
     2013.00752        -0.54167         5.75811
     2013.01026        -3.22674         5.90970
     2013.01300         0.68819         5.76894
     2013.01574         0.36512         5.88696
     2013.01848        -0.61095         5.85448
     2013.02121        -5.25302         5.87721
     2013.02395         2.62991         5.87613
     2013.02669         5.07084         5.92053
     2013.02943         0.41977         6.58642
     2013.03216         1.31170        13.27679
     2013.03493        -4.64637         8.08388
     2013.03764        -5.81644         6.73368
     2013.04038        -6.70851         5.76461
     2013.04312        -7.87358         5.86639
     2013.04585        -6.82565         5.93568
     2013.04859        -4.82872         5.94435
     2013.05133        -5.53879         5.82199
     2013.05407        -3.40486         5.80034
     2013.05681        -1.50493         5.81225
     2013.05954        -3.12099         5.84581
     2013.06228        -4.21806         5.99415
     2013.06502        -1.31713         5.98116
     2013.06776        -8.56220         5.91728
     2013.07049         1.19573         5.85773
     2013.07324         0.41566         6.29299
     2013.07597         0.75259         5.81441
     2013.07871         2.02752         5.82416
     2013.08145        -3.35155         5.87721
     2013.08418        -6.54262         5.78626
     2013.08692        -8.69569         5.82091
     2013.08966        -9.05876         5.81333
     2013.09240        -2.94483         5.80792
     2013.09514         0.17710         5.91295
     2013.09787        -7.31097         6.23777
     2013.10061        -5.59004         6.13491
     2013.10335        -2.67811         5.80034
     2013.10594        -3.91117         6.27026
     2013.11720       -15.20946         6.36229
     2013.11978        -9.90352         6.03097
     2013.12251        -8.53459         5.81225
     2013.12525        -9.57366         5.84365
     2013.12799       -10.45973         5.82849
     2013.13073        -0.39380         5.81875
     2013.13347        -0.70387         5.90320
     2013.13618         1.47306         5.86964
     2013.13894         2.06399         5.83824
     2013.14168        -1.46008         5.87830
     2013.14442        -0.77015         5.95193
     2013.14715        -2.23722         6.01689
     2013.14990        -9.55029         5.77652
     2013.15263        -8.53036         5.81766
     2013.15537       -15.20543         5.78735
     2013.15811       -12.92450         5.98549
     2013.16084       -12.39857         5.85231
     2013.16358       -10.71064         5.79709
     2013.16632       -13.42371         5.78410
     2013.16906        -5.47978         5.93785
     2013.17180        -3.94384         5.78085
     2013.17453        -0.66291         5.77435
     2013.17727        -0.77998         5.92053
     2013.18001       -10.03805         5.89887
     2013.18275        -6.11912         5.93568
     2013.18548        -5.01819         5.75378
     2013.18823       -13.32026         5.78951
     2013.19096        -6.04533         5.79709
     2013.19370        -2.80540         5.76894
     2013.19644        -8.70747         5.82416
     2013.19917         0.03746         5.83499
     2013.20191        -6.49361         5.80359
     2013.20465        -0.83968         5.80900
     2013.20739        -1.83575         5.81441
     2013.21013        -1.53582         5.75161
     2013.21286        -4.82989         5.76677
     2013.21560        -3.31596         5.76569
     2013.21834        -2.27903         5.81875
     2013.22108       -11.00910         5.84365
     2013.22381        -5.14317         5.72996
     2013.22656        -7.06323         5.75270
     2013.22929        -2.94030         5.83066
     2013.23203        -3.75637         5.84257
     2013.23477        -1.38244         5.78301
     2013.23750        -6.06251         6.98055
     2013.24024        -9.57258         8.09470
     2013.24298        -3.32865         5.90645
     2013.24572         6.42228         5.99199
     2013.24846        -1.67379         5.86530
     2013.25119        -0.19686         5.87072
     2013.25393         2.73007         6.06345
     2013.25667        -5.69100         6.28975
     2013.25941         2.19093         6.08402
     2013.26214        -5.18614         6.06345
     2013.26488        -4.27021         6.01689
     2013.26762        -9.23028         6.08077
     2013.27036        -5.84335         5.86314
     2013.27310        -7.13642         6.16198
     2013.27561        -9.81048         6.91450
     2013.35613       -13.12152        23.36810
     2013.37080        20.49810        65.51340
     2013.37409         5.78502        80.86692
     2013.37956         5.29788        37.49594
     2013.38455        -8.60825        18.79344
     2013.39658        -1.73555        14.19388
     2013.39905        10.29339        17.93806
     2013.40063        36.56235       112.24202
     2013.41308         6.10403        86.10748
     2013.41826        -1.37710        45.11531
     2013.42128        33.27782       143.99717
     2013.42916        -2.54738         6.07211
     2013.43191        -4.04945         5.95842
     2013.43463        -0.59452         6.10459
     2013.43737        -1.48159         5.89779
     2013.44010        -0.53766         5.85123
     2013.44284        -2.91773         5.85881
     2013.44558        -1.36480         5.98982
     2013.44832        -7.03786         5.89995
     2013.45106        -0.61893         5.89779
     2013.45379         1.10900         6.12300
     2013.45653        -3.03707         5.83390
     2013.45927        -3.98314         5.90212
     2013.46201         2.59779         5.86206
     2013.46475        -3.12728         5.85015
     2013.46748        -5.02135         5.98657
     2013.47022        -5.47642         5.89346
     2013.47284        -4.12449         6.04071
     2013.47570        -0.28656         5.81550
     2013.47843        -1.88563         5.84365
     2013.48117        -5.16470         5.93785
     2013.48391         1.90023         5.80359
     2013.48665        -5.66284         5.80792
     2013.48939        -3.49391         5.83390
     2013.49201        -6.54097         6.19230
     2013.49480        -2.81105         5.90970
     2013.49760         0.09688         6.06345
     2013.50034        -5.52619         5.78735
     2013.50308        -2.48326         5.93677
     2013.50581         1.71968         5.81875
     2013.50855        -2.43239         5.80684
     2013.51129         0.96854         6.06561
     2013.51403        -0.88053         5.78085
     2013.51676        -4.45260         6.02772
     2013.51950        -1.79767         5.80250
     2013.52224         5.60426         5.88046
     2013.52498         2.51319         6.05370
     2013.52772        -0.86188         5.78626
     2013.53034        -8.10795         5.87180
     2013.53313        -4.89202         5.86639
     2013.53593         0.34591         5.83282
     2013.53867         0.29884         5.93893
     2013.54141         1.02177         6.05370
     2013.54414        -2.57030         5.84365
     2013.54688        -4.95637         5.82633
     2013.54962        -0.54144         5.77652
     2013.55509         1.89042         5.88155
     2013.55783         0.64335         5.85989
     2013.56057         0.32329         5.91295
     2013.56331         1.50622         5.90212
     2013.56605         2.71015         5.81658
     2013.56878         6.40308         5.81766
     2013.57152         3.76901         5.84365
     2013.57426         2.77294         5.81550
     2013.57700         1.34487         5.84257
     2013.57974         2.63180         5.83824
     2013.58247         4.94973         5.75919
     2013.58521         4.27166         5.79926
     2013.58795         2.34859         5.98224
     2013.59069         6.23652         5.77002
     2013.59342         2.60545         5.82416
     2013.59616         7.58938         5.81225
     2013.59890         2.51231         5.91078
     2013.60164         8.42824         5.84798
     2013.60438         8.89517         5.84906
     2013.60711         4.09910         6.19555
     2013.60985         2.54203         5.86530
     2013.61259         6.14296         5.82199
     2013.61533        11.37790         5.99307
     2013.61807         6.28683         6.02014
     2013.62080         5.92176         5.93785
     2013.62354        11.33369         5.95301
     2013.62616         6.78362         6.29733
     2013.62890         4.15655         6.16523
     2013.63175         6.81048         5.84798
     2013.63449         5.05341         6.25401
     2013.63723         4.63334         5.80575
     2013.63997        15.25527         5.84473
     2013.64271         3.33820         5.84473
     2013.64533         7.41413         6.12084
     2013.64818         6.26906         5.83066
     2013.65092         4.97199         5.85881
     2013.65366         7.33392         5.86530
     2013.65639        11.23185         5.91078
     2013.65913         3.59778         5.96492
     2013.66187         8.91671         5.92486
     2013.66461         3.61064         5.83066
     2013.66740         6.56057         6.07969
     2013.67008         9.77650         5.89995
     2013.67282         7.91944         6.24210
     2013.67556         7.19237         6.05370
     2013.67830        15.29730         5.90428
     2013.68104        15.05623         5.84040
     2013.68377         6.29416         5.80900
     2013.68651         6.84209         5.80142
     2013.68925         8.04002         5.84148
     2013.69199         8.83195         5.80467
     2013.69472        12.51988         5.87072
     2013.69746         7.53881         5.85881
     2013.70020         8.00874         5.84365
     2013.70294         8.99467         5.82416
     2013.70568        12.88260         5.86639
     2013.70841        15.44753         6.00823
     2013.71115         8.98946         5.83824
     2013.71389         5.41939         5.81875
     2013.71663         8.56732         5.78193
     2013.71937        12.65225         5.80034
     2013.72210        22.36618         5.90320
     2013.72484        15.36611         5.90537
     2013.72758         6.75405         5.95517
     2013.73032         7.26398         5.78518
     2013.73305        12.25291         5.78843
     2013.73579         6.19784         5.76569
     2013.73853         4.80677         5.84473
     2013.74127         5.43570         5.83607
     2013.74401         6.91463         5.96925
     2013.74674         6.30456         5.94543
     2013.74948         2.61449         8.63825
     2013.75222        -0.71058         5.85556
     2013.75496        -0.88465         5.77110
     2013.75770        -3.56872         6.05804
     2013.76043        -3.06679         5.87505
     2013.76317         4.42814         5.81766
     2013.76591         5.69107         6.12841
     2013.76865        -0.16800         5.84365
     2013.77138         1.47593         5.79601
     2013.77412         2.93786         5.92810
     2013.77686         3.07579         5.80034
     2013.77960         0.90272         5.83499
     2013.78182        -4.31533         7.18086
     2013.78559       -10.70143         7.35410
     2013.78781        -6.54448         5.80792
     2013.79055        -1.27355         5.83390
     2013.79329        -2.34062         5.83282
     2013.79603         2.72331         5.83282
     2013.79876         2.18924         5.75811
     2013.80150         6.79317         5.91944
     2013.80424         6.42410         5.91078
     2013.80698         5.68603         5.79384
     2013.80971         7.27196         5.82416
     2013.81245         7.80589         5.77219
     2013.81519         2.34282         5.85339
     2013.81793         0.96175         5.80684
     2013.82067         4.83668         6.04937
     2013.82340        -0.59739         6.72935
     2013.82569         6.66155         8.04490
     2013.82888         4.87947         5.83607
     2013.83162         2.24540         5.83499
     2013.83436         4.39333         6.05912
     2013.83709         1.88626         5.94110
     2013.83983         0.87320         5.91511
     2013.84257        -1.55987         5.93460
     2013.84531         0.05706         5.97575
     2013.84804        -3.79001         5.81550
     2013.85078        -0.20608         5.84581
     2013.85352         1.20085         5.98441
     2013.85626        -2.31922         5.83390
     2013.85900         3.00271         5.72671
     2013.86173        -2.87136         5.84365
     2013.86447        -4.83443         5.89129
     2013.86721        -2.02850         6.01581
     2013.86995        -2.36157         5.88696
     2013.87269         3.00636         5.76677
     2013.87542         3.90129         5.78843
     2013.87816         4.38122         5.81658
     2013.88090         4.05215         6.02988
     2013.88364         6.03908         6.10026
     2013.88642        -0.73699         5.94435
     2013.88911        -3.27506         5.75378
     2013.89185        -7.63413         5.78626
     2013.89459        -4.22519         5.78626
     2013.89733         1.58374         5.80467
     2013.90006        -0.93633         5.87397
     2013.90280        -3.45740         5.89779
     2013.90554        -2.01247         5.81333
     2013.90828         4.42446         5.84257
     2013.91102        -0.68061         6.24860
     2013.91375        -6.44068         5.79817
     2013.91649        -1.84975         5.77977
     2013.91923         0.92118         5.94759
     2013.92197        -2.96689         5.86964
     2013.92470        -0.52196         5.79926
     2013.92744        -1.42603         5.84040
     2013.93018        -1.01110         9.90291
     2013.93292        -2.64517         5.72779
     2013.93566        -2.91624         5.82957
     2013.93839         0.49469         5.78301
     2013.94113        -2.90438         5.76677
     2013.94301         0.01358         9.32797
     2013.94661         0.64748         5.84798
     2013.94935        -5.83559         5.76569
     2013.95208        -1.57565         5.76028
     2013.95482        -6.93072         6.29083
     2013.95756        -2.41579         5.79276
     2013.96030        -3.70086         5.84040
     2013.96303        -8.21793         5.80575
     2013.96577        -5.45400         5.76786
     2013.96851         1.70793         5.83715
     2013.97125         3.87986         5.77868
     2013.97399        -9.22221         5.81766
     2013.97672       -15.11628         5.91295
     2013.97946        -2.75135         5.73862
     2013.98220        -5.61342         5.79276
     2013.98494        -4.58949         5.75919
     2013.98767       -13.56856         5.77002
     2013.99041        -8.43963         5.80684
     2013.99315        -9.61670         5.77868
     2013.99589        -3.39777         5.79709
     2013.99863        -2.77584         5.94218
     2014.00410        -8.05198         5.75486
     2014.00684        -9.34904         5.81333
     2014.00958       -11.39811         5.76244
     2014.01232        -5.86618         5.87938
     2014.01505        -4.38525         5.87613
     2014.01779        -3.12132         5.87721
     2014.02053        -4.54539         5.77652
     2014.02327        -3.16146         5.96384
     2014.02600         2.02147         5.97250
     2014.02874         4.24440         5.85448
     2014.03148         8.94933         5.80684
     2014.03422        -4.21674         5.78951
     2014.03696        -5.52581         5.79601
     2014.03969        -2.09188         5.89454
     2014.04243        -6.58995         5.97033
     2014.04517         2.69298         5.92919
     2014.04791        -0.22709         5.74945
     2014.05065         0.22084         5.76136
     2014.05338        -2.71023         5.74728
     2014.05612        -2.60330         5.80467
     2014.05886        -5.25637         5.82091
     2014.06160         1.19657         5.77544
     2014.06433        -1.13350         6.00065
     2014.06707         1.15243         5.99307
     2014.06981         4.88336         5.89021
     2014.07255         1.13129         5.92810
     2014.07529        -3.03078         5.92377
     2014.07802        -2.98485         5.90645
     2014.08076        -0.47292         6.20529
     2014.08350         1.63901         6.07644
     2014.08624        -8.16106         6.69145
     2014.09018        24.77984        24.45302
     2014.09171        -3.26920         6.43484
     2014.09445        -4.12827         6.41859
     2014.09716       -10.30234         7.76879
     2014.09987        -1.31741         7.12672
     2014.10266         1.26652         6.16739
     2014.10540         2.62945         5.92702
     2014.10814        -0.02162         5.92919
     2014.11088        -0.86469         6.26701
     2014.11362        -0.28776         6.17064
     2014.11635         0.07217         5.86747
     2014.11909        -3.76189         5.77652
     2014.12183         4.27604         5.89129
     2014.12457        -5.72603         7.87490
     2014.12731         5.02690         5.79817
     2014.13004         0.26683         5.80575
     2014.13278        -5.44424         6.06670
     2014.13552         2.91269         5.94868
     2014.13826        -2.22938         6.30707
     2014.14099        -2.17145         5.75811
     2014.14373        -2.80552         5.87072
     2014.14647        -9.88359         5.87938
     2014.14921       -10.22366         5.89779
     2014.15195       -10.23673         5.96817
     2014.15464         2.19720         5.95301
     2014.15742         6.18513         5.92919
     2014.16016         0.07806         6.12084
     2014.16290         1.48999         5.95734
     2014.16564        -4.99108         5.86855
     2014.16837        -7.58615         6.05587
     2014.17111        -2.74222         6.02122
     2014.17385        -5.82028         6.16956
     2014.17659         0.52665         6.04179
     2014.17932        -1.92642         6.31573
     2014.18210        -2.51449         6.10026
     2014.18480        -5.16256         5.82633
     2014.18754        -9.49763         6.39369
     2014.19028       -11.08570         6.22911
     2014.19301        -5.11077         5.89346
     2014.19575        -4.77084         6.02447
     2014.19849        -1.47191         6.06345
     2014.20123        -6.13198         6.53878
     2014.20397        -9.49605         6.17173
     2014.20670        -2.28512         5.99415
     2014.20944        -1.79319         5.90104
     2014.21218        -1.59526         5.88046
     2014.21492        -5.19233         6.15332
     2014.21765        -3.30040         6.22695
     2014.22039        -4.41347        10.26997
     2014.22313        -4.91854         5.87397
     2014.22588         0.19339         6.24860
     2014.22861        -2.05967         6.18255
     2014.23134         3.13826         6.29299
     2014.23408         1.27519         5.93568
     2014.23682        -5.79688         5.89346
     2014.23956        -6.99295         7.02494
     2014.24229        -5.97102         6.10026
     2014.24510        -6.02509         6.49222
     2014.24777         5.42484         6.97730
     2014.25051       -10.25423         5.94326
     2014.25325        -9.72130         6.07211
     2014.25598        -8.21337         6.21070
     2014.25873        -5.31044         5.82308
     2014.26146        -6.68951         6.04829
     2014.26420        -8.29758         5.92919
     2014.26694        -1.60165         7.69950
     2014.26967       -11.61772         5.94976
     2014.27241        -6.78579         6.68170
     2014.27515        -6.07786         6.32223
     2014.27789        -5.28793         5.94435
     2014.28062        -4.77400         5.94435
     2014.28336        -2.97007         5.86639
     2014.28610        -6.44313         5.99415
     2014.28884       -10.07520         6.12733
     2014.29158       -10.36427         5.87072
     2014.29431        -5.73434         5.91511
     2014.29715        -5.37442         6.25510
     2014.29979       -13.42448         6.00173
     2014.30253        -9.44455         5.90537
     2014.30527        -7.61262         5.91078
     2014.30800       -11.63569         5.92053
     2014.31074        -3.98776         6.11001
     2014.31348        -1.86383         5.90861
     2014.31622        -2.99890         5.89562
     2014.31895        -4.97197         5.81117
     2014.32169       -12.81404         6.00498
     2014.32443       -14.27711         6.07861
     2014.32717       -10.85118         6.04829
     2014.32991        -2.54725         5.86964
     2014.33264        -5.80632         5.87613
     2014.33538        -8.45239         5.86530
     2014.33812        -9.59146         6.02664
     2014.34086        -9.51952         5.88479
     2014.34360        -6.74959         5.91836
     2014.34633        -5.54866         5.81875
     2014.34907        -9.60873         6.00390
     2014.35181        -7.30480         6.11217
     2014.35455        -5.44687         5.92919
     2014.35728        -9.99894         5.89779
     2014.36002       -14.61501         5.91078
     2014.36276       -10.37208         5.82524
     2014.36550        -5.78215         5.92486
     2014.36824        -8.63022         6.02988
     2014.37097        -8.54729         6.21504
     2014.37371        -2.76236         6.24968
     2014.37645         3.17657         6.88959
     2014.37919        -3.96050         5.94651
     2014.38193       -10.83257         5.93677
     2014.38466        -9.00464         5.92919
     2014.38740        -7.18371         6.69578
     2014.39014        -7.83778         6.02447
     2014.39288        -8.03985         6.00606
     2014.39561        -8.41591         5.92053
     2014.39835        -4.23198         5.96925
     2014.40109        -6.62405         5.94001
     2014.40383        -4.91912         6.41426
     2014.40657        -6.58019         5.98657
     2014.40930       -10.47726         5.95517
     2014.41204        -9.93633         5.82633
     2014.41478        -8.78340         5.98549
     2014.41752        -5.44747         5.88696
     2014.42026        -3.84754         5.83932
     2014.42299        -4.78761         5.86855
     2014.42573        -5.41068         5.85231
     2014.42847        -3.67775         6.13816
     2014.43121        -7.50282         5.88371
     2014.43394        -7.45489         5.98549
     2014.43668        -6.16996         5.89454
     2014.43942        -5.40103         6.11434
     2014.44216        -7.55410         5.83932
     2014.44440        -6.44015         8.09146
     2014.46240        -2.94361        15.27015
     2014.46406        -7.94965         5.94110
     2014.46680       -10.49672         5.97466
     2014.46954        -9.43579         6.24319
     2014.47227        -6.97786         5.97791
     2014.47501        -4.54193         5.93785
     2014.47775        -6.27200         5.93244
     2014.48049        -7.66907         5.94435
     2014.48323        -1.77614         5.96059
     2014.48596        -3.92421         6.02014
     2014.48870        -5.60528         6.04396
     2014.49144         1.25965         5.76244
     2014.49418        -5.66042         5.81441
     2014.49692        -5.78549         5.86422
     2014.49965        -4.73356         5.84257
     2014.50239        -8.58763         5.86855
     2014.50513        -4.15870         5.88913
     2014.50787        -6.55876         5.86964
     2014.51060       -12.05383         5.85664
     2014.51334        -5.21590         5.79059
     2014.51608         0.09903         5.88155
     2014.51882         0.01996         5.85448
     2014.52156        -1.43411         5.89562
     2014.52429         0.49882         5.79601
     2014.52703         4.11875         5.86314
     2014.52977        -3.02132         5.88804
     2014.53251        -5.35839         5.88588
     2014.53525        -0.30946         5.89454
     2014.53798         1.58847         5.78085
     2014.54072         2.30940         6.01039
     2014.54346        -1.00567         5.84365
     2014.54620         0.91126         5.91619
     2014.54893         4.14119         5.91619
     2014.55167         2.25012         5.81658
     2014.55441        -5.89695         5.88913
     2014.55715        -2.66602         6.05262
     2014.55989        -5.77009         5.84040
     2014.56262        -0.58915         5.80142
     2014.56536        -2.38422         5.82741
     2014.56810        -0.87829         5.87938
     2014.57084        -4.97936         5.88804
     2014.57357        -3.41143         5.86314
     2014.57631        -1.98550         5.81658
     2014.57905        -1.63557         5.78518
     2014.58179        -7.00164         5.98766
     2014.58453        -1.15271         6.04937
     2014.58726        -5.34578         6.13816
     2014.59000        -0.24885         5.96167
     2014.59274         2.92108         5.97141
     2014.59548         0.49601         6.02014
     2014.59822         0.34594         5.97899
     2014.60095         0.17387         5.99848
     2014.60369        -2.93420         5.89670
     2014.60643        -9.11727         5.91403
     2014.60917        -3.05134         6.04613
     2014.61190         8.20959         6.12950
     2014.61464        -1.88348         5.96817
     2014.61738        -0.96955         6.00606
     2014.62012         1.87439         6.04829
     2014.62286         3.85932         5.88804
     2014.62559        -1.97475         5.90104
     2014.62833         2.12118         5.92810
     2014.63107         7.53311         5.95842
     2014.63381         6.99004         6.00498
     2014.63655         4.85597         5.92702
     2014.63928        -1.99310         5.90320
     2014.64202        -2.49017         6.07428
     2014.64476         1.35176         5.96275
     2014.64750         0.49269         5.90320
     2014.65023        -0.22238         5.84148
     2014.65297         3.94655         5.89670
     2014.65571         3.34648         5.91295
     2014.65845        10.33641         5.93352
     2014.66119         1.03734         5.88913
     2014.66392         9.20927         5.91295
     2014.66666         4.61020         5.85989
     2014.66940         3.98413         5.93568
     2014.67214         0.54506         6.06237
     2014.67488        -0.87500         5.86530
     2014.67761         0.14293         5.85448
     2014.68035         4.33886         5.92702
     2014.68309         0.63679         5.86314
     2014.68583         3.79972         6.05262
     2014.68856         0.78265         5.86206
     2014.69130        -1.28042         5.87072
     2014.69404        -2.92949         5.96817
     2014.69678        -1.16356         5.90320
     2014.69952         6.78637         5.83824
     2014.70225         4.34430         6.02122
     2014.70499         2.71023         5.88371
     2014.70773         7.28016         5.86097
     2014.71047         3.26509         5.97575
     2014.71321         0.18802         5.80467
     2014.71594        -1.84205         5.89129
     2014.71868         5.28188         5.83066
     2014.72142         9.22581         5.82633
     2014.72416         0.38474         5.92702
     2014.72689         3.16367         5.95409
     2014.72963         3.73060         5.92377
     2014.73237         0.56954         6.06345
     2014.73511        -3.69953         5.84257
     2014.73785         0.01140         5.80900
     2014.74058        -2.80267         5.86206
     2014.74332         4.59726         6.08510
     2014.74606         2.55419         6.65572
     2014.74880         2.39612         5.83499
     2014.75154         0.23605         5.96384
     2014.75427         2.14398         5.94326
     2014.75701         5.60191         6.10568
     2014.75975        -1.86316         6.22586
     2014.76249         1.06877         5.97250
     2014.76522         1.21070         6.03855
     2014.76794         2.73363         5.96492
     2014.77002         3.19058         8.08604
     2014.77344        -1.83251         6.13599
     2014.77618         5.46342         6.17497
     2014.77891         4.69235         5.87180
     2014.78165         9.59128         5.84690
     2014.78439         6.99021         5.91403
     2014.78713        10.14115         5.82416
     2014.79038        -0.16094         7.52193
     2014.79260         5.61901         5.84257
     2014.79534         4.34594         5.89454
     2014.79808        -0.19713         5.96817
     2014.80082        -2.67220         5.95517
     2014.80355        -6.34427         6.08727
     2014.80629        -1.39934         5.92269
     2014.80903         1.52359         5.92919
     2014.81177         7.41352         5.82849
     2014.81451        11.39545         5.94976
     2014.81724         2.46938         5.88046
     2014.81998         5.78831         5.89887
     2014.82272        -2.76576         6.12841
     2014.82546         1.17017         6.00715
     2014.82820        -3.26090         5.81766
     2014.83093         0.59203         6.08510
     2014.83367         2.54296         6.19446
     2014.83641         4.29889         5.91728
     2014.83915        -0.87718         6.54419
     2014.84188        -2.68624         6.04179
     2014.84462        -0.89131         5.95950
     2014.84736         3.91062         6.11434
     2014.85010        -0.76345         5.90104
     2014.85284         1.12348         5.90212
     2014.85557         0.57441         6.36770
     2014.85831         3.04034         6.00606
     2014.86105        -3.64773         6.41751
     2014.86379        -6.77580         5.81117
     2014.86653        -0.21887         5.88588
     2014.86926        -0.25894         5.88046
     2014.87200         1.87199         5.84798
     2014.87474        -1.76808         5.86747
     2014.87748        -2.45815         5.85123
     2014.88021         4.06778         5.84798
     2014.88295         5.72271         5.94868
     2014.88569         3.06764         6.41968
     2014.88843         3.42957         6.22586
     2014.89117         7.51250         6.19338
     2014.89390         1.59643         6.18255
     2014.89664         5.56036         6.12084
     2014.89938        -3.05270         6.07861
     2014.90212        -8.63177         6.06237
     2014.90485        -5.42784         6.02014
     2014.90759        -0.39991         6.00931
     2014.91033        -9.95798         5.93244
     2014.91307        -9.70805         5.87721
     2014.91581        -1.73612         5.85664
     2014.91854         4.48881         5.81875
     2014.92128         0.89774         5.82308
     2014.92402         3.22567         5.83499
     2014.92676        -1.49640         5.93135
     2014.92950        -4.74747         5.86314
     2014.93223        -7.02754         5.84365
     2014.93497        -4.54061         5.91511
     2014.93771        -8.68668         6.02664
     2014.94045        -3.12175         6.02664
     2014.94318        -1.04082         6.64056
     2014.94592         1.73611         5.96059
     2014.94866        -5.59996         5.78085
     2014.95140        -5.47103         5.89995
     2014.95414        -2.52709         5.85556
     2014.95687         4.99584         5.73970
     2014.95961         5.28977         5.79493
     2014.96235        -1.38130         5.77652
     2014.96509         1.25563         5.91511
     2014.96783        -6.98344         5.95734
     2014.97056        -3.58951         5.97141
     2014.97330        -8.14958         5.75270
     2014.97604       -12.64065         5.81983
     2014.97878       -11.63972         5.81225
     2014.98151         0.39721         5.88371
     2014.98425        -5.12086         5.90428
     2014.98699        -4.32693         5.82957
     2014.98973        -5.02500         5.72455
     2014.99247        -9.80107         5.72888
     2014.99520       -10.62514         5.73537
     2014.99794        -2.82821         5.75486
     2015.00068        -2.14228         5.70181
     2015.00342        -7.73935         5.78410
     2015.00616       -16.70342         5.76894
     2015.00889       -17.21048         5.94543
     2015.01163        -5.80655         6.02988
     2015.01437       -10.03262         5.85556
     2015.01711        -1.88769         5.92053
     2015.01984        -0.26976         5.83282
     2015.02258         1.55417         5.98333
     2015.02532         0.22110         5.85015
     2015.02806        -1.54497         5.96167
     2015.03080         1.40596         5.82416
     2015.03353        -6.54111         5.82524
     2015.03627        -2.68018         5.84365
     2015.03901        -2.08425         5.95409
     2015.04175        -5.82132         5.76569
     2015.04449        -3.73339         5.78843
     2015.04722        -1.49146         6.03746
     2015.04996        -7.19353         5.80142
     2015.05270        -5.96160         5.86097
     2015.05544        -4.63267         5.82957
     2015.05817         0.11026         5.83066
     2015.06091        -2.89781         5.78518
     2015.06365        -1.22888         5.97250
     2015.06639        -2.51494         5.88804
     2015.06913        -2.03001         5.80684
     2015.07186       -11.65708         5.81875
     2015.07460        -2.81015         5.78518
     2015.07734        -9.45722         5.82416
     2015.08008       -10.43029         5.81441
     2015.08282        -6.90736         5.82199
     2015.08555        -4.44243         5.80034
     2015.08829        -0.54550         5.85015
     2015.09103         3.97843         5.79926
     2015.09377         0.65036         5.90537
     2015.09650        -6.88371         6.04071
     2015.09924         4.94622         6.08402
     2015.10198         5.70915         6.35904
     2015.10472        -1.62092         5.81333
     2015.10745        -3.04199         5.90104
     2015.11011        -9.34905         6.25077
     2015.21276       -21.08166        21.93453
     2015.21423        -3.70770         5.97791
     2015.21697       -11.14777         5.90537
     2015.21971        -8.05084         5.79601
     2015.22245        -3.75191         5.82199
     2015.22518        -7.85598         5.79059
     2015.22792        -1.73705         5.74512
     2015.23066        -5.92112         5.84473
     2015.23340        -0.71318         5.96925
     2015.23613         2.08675         5.93027
     2015.23887        -6.44832         6.02772
     2015.24161        -3.04939         6.15765
     2015.24435        -4.64946         6.10459
     2015.24709        -3.41153         5.94110
     2015.24982       -11.53260         5.78735
     2015.25256        -7.52467         5.75811
     2015.25530        -5.53474         5.77760
     2015.25804        -2.08981         5.77544
     2015.26078         0.34012         5.79817
     2015.26351        -1.63595         5.77977
     2015.26625        -1.42102         5.77544
     2015.26899        -6.75609         5.78085
     2015.27173        -1.46616         5.93352
     2015.27446        -0.85723         5.91295
     2015.27720        -2.10930         5.76677
     2015.27994         0.49363         5.81225
     2015.28268        -3.96444         5.85123
     2015.28542        -7.44151         5.94759
     2015.28815        -4.69057         6.13924
     2015.29089        -4.50564         5.87180
     2015.29363        -4.46671         5.86747
     2015.29637        -8.89178         5.81550
     2015.29911         2.54515         5.83282
     2015.30184         4.08108         5.79817
     2015.30458        -1.01899         5.81225
     2015.30732        -4.23906         5.73104
     2015.31006        -7.49813         5.89346
     2015.31279       -17.12720         5.73754
     2015.31553        -6.62427         5.70181
     2015.31827        -6.48834         5.63035
     2015.32101        -4.59541         5.87613
     2015.32375        -8.06448         5.75919
     2015.32648        -6.01355         5.95084
     2015.32922        -6.05762         5.90861
     2015.33196        -2.58969         5.61952
     2015.33470        -4.84776         5.66932
     2015.33744        -3.76983         5.65200
     2015.34017        -6.41490         5.78626
     2015.34289        -6.97796         5.69856
     2015.34566        -7.21803         5.66932
     2015.34839        -3.61510         5.65633
     2015.35112        -7.06317         5.71155
     2015.35386         0.65976         5.64442
     2015.35660        -4.38231         5.65308
     2015.35934        -7.05638         5.79276
     2015.36208        -5.11645         5.71697
     2015.36481        -3.23652         5.62601
     2015.36755        -4.44259         5.62277
     2015.37029        -3.36866         5.76786
     2015.37303        -5.98873         5.61735
     2015.37577        -7.37580         5.68881
     2015.37850        -9.57887         5.79384
     2015.38124        -7.85994         5.67474
     2015.38398        -5.57501         5.76353
     2015.38672        -7.31408         5.63684
     2015.38945        -9.09915         5.62818
     2015.39219        -3.06422         5.64550
     2015.39493        -4.45429         5.65092
     2015.39767        -7.82636         5.79059
     2015.40041        -9.42942         5.92594
     2015.40314        -8.43249         5.87397
     2015.40588        -8.27856         5.75811
     2015.40862        -7.46463         5.84581
     2015.41140        -4.31270         5.77977
     2015.41410       -10.25777         5.70830
     2015.41683        -4.46884         5.71372
     2015.41957        -6.58991         5.66283
     2015.42231        -3.42098         5.75919
     2015.42505       -10.93205         5.90212
     2015.42779        -6.61212         5.71047
     2015.43052        -3.04119         5.77868
     2015.43326        -3.12426         5.78301
     2015.43602        -1.04033         5.76894
     2015.43869        -2.89840         5.76136
     2015.44147        -8.34347         5.94651
     2015.44424        -5.06754         5.75595
     2015.44692        -7.29961         5.71372
     2015.44969        -8.09268         5.73429
     2015.45243        -1.68175         5.97250
     2015.45516        -2.85381         6.28650
     2015.45790        -6.35688         6.02447
     2015.46064        -0.80095         6.19988
     2015.46336        -6.38902         5.96708
     2015.46613        -2.52909         5.89995
     2015.46885         1.01684         5.79384
     2015.47159        -0.54323         5.90537
     2015.47433        -4.63330         6.13058
     2015.47707        -4.86837         5.84257
     2015.47978        -3.65944         5.85556
     2015.48254        -4.46951         6.04071
     2015.48528        -4.64258         5.81333
     2015.48799        -3.15265         6.01256
     2015.49076        -1.53672         5.87938
     2015.49348         0.11121         6.18039
     2015.49624         0.35914         6.03097
     2015.49895         0.76607         6.04721
     2015.50171         1.19700         5.90645
     2015.50442         1.64293         5.82199
     2015.50722        -4.03314         5.79493
     2015.50992         1.32879         5.77002
     2015.51266         1.01773         5.95950
     2015.51540        -5.56234         6.02772
     2015.51813         2.43159         6.19121
     2015.52087         4.47952         5.81333
     2015.52361         1.40745         5.76569
     2015.52635         5.63338         5.77110
     2015.52908         3.33131         5.88913
     2015.53182         1.41424         5.70072
     2015.53456         6.59017         5.76353
     2015.53730         0.98210         5.82524
     2015.54004         3.37803         6.25185
     2015.54277         1.34296         5.91186
     2015.54551         6.57289         5.87613
     2015.54825         5.61682         6.04396
     2015.55099         4.90575         5.95950
     2015.55373         5.97068         5.84798
     2015.55646         8.69161         5.79926
     2015.55920         4.21254         5.83824
     2015.56194         6.37147         5.95734
     2015.56468         4.37740         5.95626
     2015.56741         2.85734         6.00390
     2015.57015         8.48527         6.12950
     2015.57289         3.37720         6.24860
     2015.57565         8.78413         6.17822
     2015.57837         7.14606         6.16415
     2015.58112         8.93899         6.11326
     2015.58384         5.44492         6.18039
     2015.58656         6.65185         6.21504
     2015.58932         1.43778         6.32115
     2015.59206         1.35071         5.96492
     2015.59479        10.49064         6.09052
     2015.59753         9.28757         6.16306
     2015.60027        11.32750         6.50088
     2015.60301         9.20243         6.31790
     2015.60574        14.15336         6.40452
     2015.60848         6.28329         6.17497
     2015.61119        11.65822         6.28000
     2015.61396        14.01715         6.13816
     2015.61670         9.05308         5.96275
     2015.61943         2.77001         5.99632
     2015.62217         7.51995         5.86747
     2015.62491        11.03788         5.85773
     2015.62765        11.31581         5.87180
     2015.63039        10.80574         5.95193
     2015.63312         8.41667         5.95517
     2015.63586        12.49060         5.85123
     2015.63857         2.84753         6.15657
     2015.64137        11.99646         6.00281
     2015.64407        10.13239         5.95950
     2015.64681         5.88132         5.97141
     2015.64955        10.34025         6.11001
     2015.65229        10.72518         6.02122
     2015.65503        17.77911         5.83824
     2015.65776        19.32304         6.09701
     2015.66050         7.23597         5.99307
     2015.66324        10.54890         5.92486
     2015.66598        13.85883         6.09052
     2015.66872         3.60276         6.34930
     2015.67145        10.11569         5.93460
     2015.67419         8.15962         5.84040
     2015.67693         8.37455         5.79709
     2015.67967         4.70549         6.06345
     2015.68240         8.10642         5.84581
     2015.68514         3.83235         5.97575
     2015.68788         6.56728         5.86097
     2015.69062         9.25621         6.24968
     2015.69333         8.04714         6.29083
     2015.69610         9.24507         5.91728
     2015.69883         9.22900         5.87830
     2015.70157         7.08693         5.94543
     2015.70431        10.22086         6.16848
     2015.70705         8.92179         5.79817
     2015.70978        11.10172         5.78410
     2015.71252         8.58465         5.87505
     2015.71526         4.62658         5.83932
     2015.71800         9.93551         6.00823
     2015.72073        10.05544         6.67196
     2015.72347         6.63137         6.49330
     2015.72622         1.25730         6.33630
     2015.72895         4.01923         6.04071
     2015.73169         6.05316         5.90970
     2015.73442         4.03210         5.89887
     2015.73702         6.28803         6.22153
     2015.73992         8.73396         6.08727
     2015.74264         8.82189         6.12841
     2015.74538        14.90682         6.08510
     2015.74811         3.96275         6.10135
     2015.75085         1.36968         5.88046
     2015.75359         8.34861         5.88046
     2015.75633        11.72954         5.88913
     2015.75906        11.38847         5.94435
     2015.76180         8.62740         5.96384
     2015.76454         3.42933         5.89562
     2015.76728         4.45626         6.07319
     2015.77002         1.34919         5.94218
     2015.77275        10.02912         5.91619
     2015.77549         8.70505         5.98874
     2015.77823        14.92198         5.94976
     2015.78097         7.55491         6.35471
     2015.78371        12.78284         5.83390
     2015.78644        10.15977         6.03963
     2015.78920         4.93570         6.09160
     2015.79192        13.24664         5.93785
     2015.79466         6.16957         5.85664
     2015.79739        11.89050         5.94759
     2015.80013         4.44343         6.06561
     2015.80287         3.91636         5.92919
     2015.80561         4.61629         5.89887
     2015.80835         0.93322         5.88804
     2015.81108         4.15515         6.05695
     2015.81382         8.03108         6.23344
     2015.81656        -0.38399         6.37961
     2015.81930         0.17094         5.86314
     2015.82203         0.58687         5.95842
     2015.82477         5.20380         6.08294
     2015.82751         4.20273         6.29624
     2015.83025         3.99866         5.95301
     2015.83299         2.73859         5.99090
     2015.83572         1.45052         6.02880
     2015.83846        -5.56155         6.12950
     2015.84120        -2.31162         6.01689
     2015.84394        -3.99269         6.42834
     2015.84668        -4.30975         6.08510
     2015.84941        -4.38282         6.09593
     2015.85215         0.87711         6.52037
     2015.85489        -0.64296         6.16956
     2015.85763         0.38997         5.96708
     2015.86036        -4.60210         6.20313
     2015.86310        -2.82917         5.96708
     2015.86584        -1.65924         6.09268
     2015.86858        -4.46031         6.12084
     2015.87132         1.05362         6.12950
     2015.87405        -1.27545         6.18797
     2015.87679        -2.94652         5.99848
     2015.87953        -2.61259         6.31573
     2015.88227        -7.45566         6.56801
     2015.88501        -9.61273         7.54899
     2015.88774        -3.96380         5.98766
     2015.89048         1.89013         5.98333
     2015.89260        -0.72192         8.44660
     2015.89973         2.10190        11.57253
     2015.90143        -2.55214         6.07211
     2015.90417        -3.54421         5.97033
     2015.90691        -0.90328         6.00281
     2015.90965        -2.10035         6.28650
     2015.91238        -4.83242         5.94001
     2015.91512        -8.26449         5.93893
     2015.91786       -13.58856         6.05695
     2015.92060        -0.51063         6.03421
     2015.92333        -2.18170         6.22153
     2015.92610        -3.71577         6.19879
     2015.92830       -17.39883         8.23763
     2015.93238        -3.81393         9.68961
     2015.93429        -2.06598         6.36987
     2015.93702        -3.04805         6.50088
     2015.93976         0.64588         6.35579
     2015.94250        -0.17519         6.20204
     2015.94524        -3.49626         6.14141
     2015.94798         2.22267         6.18905
     2015.95071         3.20660         5.97575
     2015.95345        -4.04547         5.89779
     2015.95619        -6.84653         6.02988
     2015.95893        -3.86460         6.27892
     2015.96167       -20.73367         6.52146
     2015.96440        -7.68974         6.32331
     2015.96714        -0.15581         5.99415
     2015.96988        -2.75188         6.06886
     2015.97262         8.34805         6.30924
     2015.97535         6.36798         6.19013
     2015.97809         3.82491         6.07861
     2015.98083        -0.54416         5.98766
     2015.98357        -7.33823         6.83437
     2015.98520        -3.74527        42.39867
     2015.98992         0.91261        10.39882
     2015.99178        -6.77344         6.09052
     2015.99452        -6.52951         6.07319
     2015.99726        -5.44158         6.05370
     2016.00000        -4.20265         6.07319
     2016.00273        -0.22072         6.02772
     2016.00547        -3.42279         6.02555
     2016.00821        -1.73786         6.10243
     2016.01095         0.92607         6.02664
     2016.01368        -7.71599         6.02122
     2016.01642        -7.36906         6.10135
     2016.01916        -8.13213         6.30815
     2016.02190        -5.63020         6.08077
     2016.02464        -3.49527         5.91078
     2016.02744        -9.68534         6.10784
     2016.03011       -22.00641         6.17281
     2016.03285       -22.79048         5.97899
     2016.03559        -8.98055         5.94651
     2016.03833        -7.91962         6.09593
     2016.04106        -3.29269         5.99090
     2016.04380        -2.49676         7.07908
     2016.04654        -1.34383         5.92377
     2016.04928        -2.10590         5.89129
     2016.05201        -8.11597         5.90645
     2016.05475        -7.65304         5.97466
     2016.05749        -6.62611         5.93893
     2016.06023        -5.14118         5.84798
     2016.06297        -7.17525         5.88263
     2016.06570        -3.91832         5.85015
     2016.06844        -5.64938         5.95517
     2016.07118       -11.04845         6.40777
     2016.07392        -8.93352         6.45757
     2016.07666        -1.22259         6.03530
     2016.07939         1.63534         5.82957
     2016.08213        -1.85873         5.98441
     2016.08487        -6.41580         5.83066
     2016.08761       -11.24887         5.83282
     2016.09034        -5.71594         6.82788
     2016.09308        -6.22301         6.04937
     2016.09582       -11.99808         6.08077
     2016.09856       -18.35515         5.87072
     2016.10130       -15.91722         5.84798
     2016.10403       -13.64929         5.83607
     2016.10677       -10.89936         5.86747
     2016.10951       -12.16443         5.86097
     2016.11225       -10.65750         6.46190
     2016.11498       -14.03957         5.90537
     2016.11772       -16.74664         5.82741
     2016.12046       -20.27771         6.42293
     2016.12320       -11.56077         5.79059
     2016.12594       -16.09184         5.90320
     2016.12867        -3.93191         5.75595
     2016.13141        -3.89998         5.84473
     2016.13415        -6.33805         5.86422
     2016.13689       -12.89712         6.29191
     2016.13957        -8.21119         5.89562
     2016.14239       -21.08626         5.95409
     2016.14510       -10.86933         5.78085
     2016.14784        -9.88140         5.78518
     2016.15058        -6.58847         5.75378
     2016.15331       -10.21354         5.93785
     2016.15605       -10.03061         5.72671
     2016.15879       -11.39668         5.91511
     2016.16153        -6.62775         5.87180
     2016.16427        -9.70182         5.82091
     2016.16700       -12.43389         5.78085
     2016.16974       -14.62896         5.85339
     2016.17248        -9.73303         5.89021
     2016.17522       -11.40710         5.84690
     2016.17796        -7.02817         5.88155
     2016.18069        -6.24723         5.86422
     2016.18343       -12.65130         6.67846
     2016.18617        -8.86337         5.76677
     2016.18891        -8.45544         5.80684
     2016.19164        -4.45651         5.69206
     2016.19438        -5.64458         5.67474
     2016.19712        -7.62965         5.73321
     2016.19986        -7.72872         6.00823
     2016.20260       -16.50979         6.09268
     2016.20533       -10.73786         6.07861
     2016.20807        -7.38893         5.89779
     2016.21081        -8.83400         5.92161
     2016.21355        -9.00507         5.77544
     2016.21629        -8.11914         6.61457
     2016.21902        -5.00521         5.71913
     2016.22176        -5.29528         5.64550
     2016.22450       -13.85835         5.80684
     2016.22724       -15.12042         5.96925
     2016.22997       -14.63749         5.63359
     2016.23271       -10.86256         5.65308
     2016.23545       -10.98962         5.72021
     2016.23819       -10.84969         5.67366
     2016.24093        -7.87076         5.73537
     2016.24366       -11.30983         5.65850
     2016.24640        -4.42890         5.68340
     2016.24914        -5.36697         5.68990
     2016.25188        -3.45304         6.45974
     2016.25462       -12.62111         5.91511
     2016.25735       -16.63718         5.76677
     2016.26009       -19.06925         5.68448
     2016.26283       -16.75632         5.71588
     2016.26557        -7.28839         5.72238
     2016.26830        -5.92046         5.67582
     2016.27104        -8.57353         5.79384
     2016.27378        -4.02460         5.66932
     2016.27652        -8.01867         5.69639
     2016.27926        -7.61774         5.70181
     2016.28199       -12.41881         6.34388
     2016.28473        -8.02788         5.71047
     2016.28747       -11.64095         6.26593
     2016.29021       -16.28902         5.72238
     2016.29295        -9.74408         5.76461
     2016.29568        -8.21615         5.75053
     2016.29842        -6.23522         5.89779
     2016.30116        -5.62429         5.84906
     2016.30390       -11.35636         5.80142
     2016.30663        -2.47043         5.74620
     2016.30937        -8.05450         5.78193
     2016.31211       -15.00557         5.87288
     2016.31485       -10.59364         5.66932
     2016.31759        -9.20571         5.77435
     2016.32032       -12.27578         5.75486
     2016.32306       -14.78785         5.71047
     2016.32580       -12.32092         5.74728
     2016.32854       -15.06299         5.75595
     2016.33128       -14.70706         5.86097
     2016.33401        -7.86713         5.80034
     2016.33675        -8.73820         5.85881
     2016.33949        -7.32127         5.77110
     2016.34223        -8.22434         5.80250
     2016.34496       -10.23041         5.92919
     2016.34770        -4.72347         5.88263
     2016.35044        -7.23154         5.96384
     2016.35318        -8.99361         5.71155
     2016.35592       -17.32568         5.72671
     2016.35865       -12.57775         5.69098
     2016.36139       -12.82382         5.74295
     2016.36413        -2.84089         5.99524
     2016.36687        -5.06996         5.80792
     2016.36961        -3.23903         5.70830
     2016.37234         0.79490         5.71480
     2016.37508        -5.56117         5.89346
     2016.37782       -20.53324         5.81550
     2016.38056       -10.87231         5.87505
     2016.38329        -4.73938         5.68015
     2016.38603        -7.29445         5.66824
     2016.38877        -0.25552         5.86314
     2016.39151       -10.22059         5.66608
     2016.39425        -8.64866         5.77002
     2016.39698        -3.51473         5.69098
     2016.39972        -2.47480         5.72996
     2016.40246        -6.65086         5.76136
     2016.40520       -15.10293         5.72455
     2016.40794       -13.75200         5.75270
     2016.41067       -15.63307         5.81117
     2016.41341       -16.38614         5.77544
     2016.41615       -10.06221         5.72888
     2016.41889       -16.07928         5.72671
     2016.42162        -5.20035         5.77868
     2016.42436       -11.85442         5.69856
     2016.42710        -4.97749         5.68773
     2016.42984        -7.04656         5.78301
     2016.43258        -6.71963         5.69098
     2016.43531        -4.24070         5.81333
     2016.43805        -3.34577         5.70939
     2016.44079        -5.22584         5.68990
     2016.44354       -14.62091         5.69856
     2016.44626       -14.36498         5.73754
     2016.44900        -8.77105         5.74620
     2016.45174        -6.17512         5.80575
     2016.45448        -4.56819         5.73429
     2016.45722        -4.63126         5.68232
     2016.45995        -1.29032         5.70722
     2016.46269        -7.99639         5.75161
     2016.46543       -11.65546         5.76677
     2016.46817        -3.42353         5.78843
     2016.47091        -3.10060         5.77868
     2016.47364        -8.27467         5.75270
     2016.47638        -0.77774         5.77435
     2016.47912        -9.50181         5.86747
     2016.48186        -7.27988         5.99415
     2016.48459        -7.59695         5.74837
     2016.48733        -2.76002         5.69531
     2016.49007        -3.05109         5.70614
     2016.49281        -7.62016         5.79168
     2016.49555        -3.73223         5.74404
     2016.49828        -5.59830         5.74512
     2016.50102        -4.66037         5.73429
     2016.50376        -6.64144         5.96817
     2016.50650        -4.70551         5.78518
     2016.50924        -2.55758         5.77110
     2016.51197        -3.82765         5.76894
     2016.51471        -1.12071         5.74187
     2016.51745         1.50022         5.89562
     2016.52019       -12.06685         5.84798
     2016.52292        -2.40692         5.68340
     2016.52566         0.11701         5.73537
     2016.52840        -5.05406         5.72779
     2016.53114        -2.98313         5.70397
     2016.53388        -3.50720         5.72779
     2016.53661        -2.12727         5.71588
     2016.53935        -1.36734         5.67257
     2016.54209         0.38059         5.72888
     2016.54483        -3.84148         5.74728
     2016.54757        -1.50855         5.72455
     2016.55030        -2.65362         5.86422
     2016.55304         1.07431         5.72455
     2016.55578         2.55924         5.87072
     2016.55852         0.37117         5.77435
     2016.56125        -0.03890         5.71805
     2016.56399         1.16203         5.74620
     2016.56673         2.66096         5.87938
     2016.56947        -4.44310         5.94543
     2016.57221         1.46183         5.71047
     2016.57494         0.90376         5.79276
     2016.57768         1.42569         5.67799
     2016.58042         0.01062         5.80684
     2016.58316         2.77355         5.68340
     2016.58590        -1.52652         5.84581
     2016.58863         2.11041         5.72779
     2016.59137        -3.63966         5.68340
     2016.59394         3.66727         6.08510
     2016.59959         2.51213         5.86747
     2016.60232         5.31106         5.93785
     2016.60507         3.21299         5.79817
     2016.60780         1.49092         6.17064
     2016.61054        -2.33815         6.09052
     2016.61334         1.08978         5.95842
     2016.61602        -4.43829         5.85123
     2016.61875         1.37664         5.76894
     2016.62149         1.04757         5.84148
     2016.62423         6.56550         5.82524
     2016.62697        -1.29156         5.83607
     2016.62971        -2.39663         5.88696
     2016.63244         2.11830         5.99307
     2016.63518         0.20323         5.74945
     2016.63788        11.04016         5.86747
     2016.64066         5.44009         5.85556
     2016.64339         1.83402         5.75811
     2016.64613         5.75395         5.82849
     2016.64889         0.47288         6.01906
     2016.65144         0.54881         8.27553
     2016.65434         0.45974         6.13924
     2016.65708        -2.44933         6.01906
     2016.65982        -5.71140         5.88155
     2016.66256         6.68153         5.83282
     2016.66530         4.63146         5.99740
     2016.66804        -1.78061         5.86964
     2016.67077         8.27032         6.07969
     2016.67351         4.37125         5.76461
     2016.67625         4.33718         5.78301
     2016.67899         5.33311         5.83932
     2016.68172        10.35905         5.98116
     2016.68446         7.42398         6.00715
     2016.68720        -0.76909         6.02014
     2016.68993         1.28484         5.82633
     2016.69267        -0.06623         5.81333
     2016.69541         7.47770         5.79709
     2016.69815         7.76663         5.63901
     2016.70086         4.08656         5.75703
     2016.70362         7.20749         5.81658
     2016.70636         4.63942         6.01039
     2016.70910         3.71035         5.93244
     2016.71184         6.37528         5.74079
     2016.71457         8.00321         5.77760
     2016.71731         6.54914         5.74295
     2016.72005         6.35007         5.76461
     2016.72279         5.17100         5.66608
     2016.72553         3.51693         5.78843
     2016.72826         4.15986         6.01581
     2016.73100         0.80079         5.73213
     2016.73374         4.93272         5.72996
     2016.73648         2.41766         5.65308
     2016.73921         3.04059         5.83390
     2016.74195         2.27152         5.70722
     2016.74469         0.49645         5.73429
     2016.74743         1.86438         5.74837
     2016.75017         5.08331         5.72130
     2016.75290         2.55524         5.68665
     2016.75564         7.17017         5.62493
     2016.75838         5.65410         5.70722
     2016.76112         6.28703         5.76786
     2016.76386         4.66396         5.66932
     2016.76659         1.13389         5.79926
     2016.76931         4.35082         5.77110
     2016.77207         5.55475         5.85881
     2016.77481         4.90168         5.69098
     2016.77754        -0.55439         5.65525
     2016.78028         0.15554         5.69315
     2016.78302         1.78147         5.67907
     2016.78576        -0.69760         5.97250
     2016.78850         4.36433         5.81333
     2016.79123        -1.27974         5.81008
     2016.79397         3.85820         5.68773
     2016.79671        -1.36987         5.68015
     2016.79945        -8.31294         5.68665
     2016.80219        -7.99401         5.74945
     2016.80492        -6.12908         5.70939
     2016.80766         0.06085         5.68448
     2016.81040        -4.41322         5.74079
     2016.81314        -0.21029         5.73754
     2016.81587        -5.75836         5.76894
     2016.81861       -11.42743         5.70397
     2016.82135        -6.22750         5.74728
     2016.82409        -4.51657         5.78410
     2016.82683       -11.93564         5.68124
     2016.82956        -2.53371         5.66824
     2016.83230        -6.10678         5.77544
     2016.83504        -7.00885         5.74620
     2016.83778        -6.46392         5.74079
     2016.84052       -10.65599         5.76353
     2016.84325        -5.58506         5.73646
     2016.84599        -9.30213         5.80359
     2016.84873        -3.40919         5.88479
     2016.85147        -2.32326         5.80467
     2016.85420        -7.82333         5.69964
     2016.85694        -3.55740         5.82091
     2016.85968        -9.34247         5.91619
     2016.86242        -1.15254         5.77652
     2016.86516        -3.73961         5.92053
     2016.86789        -6.11168         5.69315
     2016.87063        -7.25475         5.71264
     2016.87337        -3.44982         5.76786
     2016.87611        -3.54889         5.84148
     2016.87885        -2.46696         5.68340
     2016.88158       -10.31803         5.67799
     2016.88432        -0.83310         5.80467
     2016.88706        -1.37217         5.68881
     2016.88980        -5.96424         5.68990
     2016.89253        -4.29331         5.79926
     2016.89527        -9.26738         5.70830
     2016.89801        -6.52245         5.82957
     2016.90075        -8.20752         5.73321
     2016.90349        -3.17658         5.90428
     2016.90622        -4.52865         5.83174
     2016.90896        -2.65372         6.01797
     2016.91170       -11.47479         5.68124
     2016.91443        -9.25786         5.84906
     2016.91718       -12.39893         5.89346
     2016.91967       -14.56800         6.54095
     2016.92271         5.72393         5.93785
     2016.92538        24.68886         5.73213
     2016.92809         9.28579         6.41210
     2016.93086        -0.03128         5.77760
     2016.93360        12.94065         5.92594
     2016.93634        11.71758         5.75486
     2016.93908         7.82651         5.91078
     2016.94182        12.65244         5.87830
     2016.94455        11.82637         6.17822
     2016.94730        11.69130         6.22153
     2016.95006         9.15323         8.11203
     2016.95368        13.24314         9.82712
     2016.95551        10.38209         5.67149
     2016.95824        11.73902         5.72671
     2016.96098        12.41896         5.72346
     2016.96372        10.86389         5.75919
     2016.96646         6.41482         5.80359
     2016.96919        18.58075         5.87505
     2016.97195         9.90968         5.83607
     2016.97467        13.21561         5.84473
     2016.97741        21.27454         5.86639
     2016.98015         9.65047         5.84690
     2016.98288        11.76840         5.78085
     2016.98562        11.14033         5.73429
     2016.98836        16.39926         5.89670
     2016.99219        14.98516        13.12412
     2016.99384        13.68712         6.13491
     2016.99657        14.52005         5.71372
     2016.99931        12.63298         5.66391
     2017.00205        14.56191         5.73970
     2017.00479        16.64784         5.67907
     2017.00752        10.76377         5.68124
     2017.01026         7.59470         5.66608
     2017.01300        16.06363         6.02880
     2017.01574        12.26257         5.64226
     2017.01848        12.90950         5.66932
     2017.02121        16.96443         5.84798
     2017.02395        17.25736         5.77760
     2017.02669        13.17529         5.82849
     2017.02943        14.23922         5.66932
     2017.03216         8.30715         5.66391
     2017.03490         6.92008         5.65741
     2017.03764         7.26401         5.67799
     2017.04038         9.46694         5.73862
     2017.04312        11.68287         5.90753
     2017.04585        18.93380         6.64489
     2017.05407        24.12659         5.88588
     2017.05681        20.03452         5.72455
     2017.05954        11.88245         5.74187
     2017.06228        14.56438         5.82957
     2017.06502         7.64831         5.80250
     2017.06776         8.02024         5.75270
     2017.07049        14.63517         5.69423
     2017.07324         7.51911         6.36229
     2017.07597         6.02604         6.08402
     2017.07871        10.20497         5.99090
     2017.08145         3.53290         5.76136
     2017.08418         6.46083         5.70939
     2017.08692         8.88676         5.66391
     2017.08966         6.46369         5.67907
     2017.09240         6.78962         5.77110
     2017.09514        21.36055         5.77002
     2017.09787        16.72848         5.78951
     2017.10061         4.00441         8.62742
     2017.10324        15.02734         6.34930
     2017.10612        14.19127         7.29779
     2017.11156         5.75013         8.35240
     2017.11430         0.15506         5.70072
     2017.11704         0.12799         5.83282
     2017.11978         2.89492         5.97791
     2017.12251         4.95985         5.79168
     2017.12525         6.60378         5.87072
     2017.12799        10.26272         5.76677
     2017.13073         7.85065         5.89670
     2017.13347        10.09658         6.10459
     2017.13620        12.47351         5.76677
     2017.13896         6.12444         5.84906
     2017.14168         4.12837         5.95734
     2017.14442         5.42930         6.96755
     2017.14715         4.72823         5.78301
     2017.14989         8.41616         6.09052
     2017.15263        12.13809         5.90428
     2017.15537         9.37702         5.83824
     2017.15811        11.49295         6.90800
     2017.16084         4.93588         5.85556
     2017.16358        -4.43419         6.09810
     2017.16633         9.92074         5.90320
     2017.16905         0.64867         5.93460
     2017.17180         8.96260         5.77652
     2017.17453         7.86753         5.82091
     2017.17727         5.24846         5.96925
     2017.18001         7.50539         5.91944
     2017.18274         4.55533         6.02880
     2017.18548        -5.19074         5.83174
     2017.18822        -1.42581         5.86747
     2017.19096         4.89112         6.08727
     2017.19370         1.87205         5.78193
     2017.19644         1.99098         5.83390
     2017.19917        -1.25109         5.81333
     2017.20191        -1.98216         5.78085
     2017.20465        -2.68623         5.90537
     2017.20739         5.96370         5.75270
     2017.21013        11.62363         5.76894
     2017.21286         4.49056         5.72779
     2017.21560         3.15249         5.70289
     2017.21834         6.25942         5.71155
     2017.22108         5.89935         5.79493
     2017.22381         4.49428         5.83066
     2017.22655         9.67321         5.80359
     2017.22929         7.36014         5.66824
     2017.23203         5.94407         5.68232
     2017.23477         2.50400         5.73862
     2017.23750         2.21993         5.73537
     2017.24024         3.13987         5.72779
     2017.24298         0.99280         5.66608
     2017.24572         4.73473         5.64659
     2017.24846        -0.40734         5.72563
     2017.25119         1.20859         5.82308
     2017.25393         3.55652         5.70289
     2017.25667         3.34545         5.71913
     2017.25941        -2.67162         5.71697
     2017.26214         2.72731         5.72563
     2017.26488         6.52424         5.73862
     2017.26762         4.19417         5.70506
     2017.27036         4.11910         5.68990
     2017.27310        -0.16097         5.95301
     2017.27583         4.35796         5.71372
     2017.27857        -4.52011         5.69531
     2017.28131        -1.72618         5.72238
     2017.28405         0.78675         5.72888
     2017.28679        -2.71832         5.66932
     2017.28952         1.24161         5.68340
     2017.29226         0.91354         5.78193
     2017.29500        -1.11452         5.75270
     2017.29774        -1.28859         5.72563
     2017.30047        -3.08266         5.68881
     2017.30321         0.12327         5.71264
     2017.30595         1.26520         5.72130
     2017.30869        -3.16187         5.66391
     2017.31143         2.39606         5.64767
     2017.31416        -3.78701         5.68773
     2017.31690         2.66092         5.76028
     2017.31964        -5.08115         5.79817
     2017.32238        -5.60422         5.77327
     2017.32512        -2.12929         5.66283
     2017.32785        -4.22236         5.75595
     2017.33059        -3.11343         5.66824
     2017.33333        -6.19950         5.66066
     2017.33607        -6.86657         5.70072
     2017.33880        -0.44664         5.75811
     2017.34154         1.93229         6.05804
     2017.34428        -4.35278         5.73646
     2017.34702        -3.99385         5.64117
     2017.34976        -0.49791         5.69964
     2017.35249        -0.46898         5.64334
     2017.35523        -4.47105         5.72671
     2017.35797        -2.88312         5.80684
     2017.36071        -3.69319         5.68990
     2017.36344        -0.17426         5.67257
     2017.36618         0.77967         5.73213
     2017.36892        -0.62640         5.67690
     2017.37166        -1.18747         5.73321
     2017.37440         2.06146         5.70939
     2017.37713        -1.26561         5.82957
     2017.37987        -6.47668         5.79817
     2017.38261        -4.07275         5.68448
     2017.38535        -5.95282         5.68773
     2017.38809        -6.50989         5.76569
     2017.39082        -3.08096         5.73537
     2017.39356        -2.01203         5.73537
     2017.39630         2.39990         5.66175
     2017.39904        -0.89817         5.71372
     2017.40177        -3.69324         5.69315
     2017.40451        -4.37731         5.88913
     2017.40725        -4.08537         5.66824
     2017.40999        -3.75244         5.72238
     2017.41273        -1.29551         5.72346
     2017.41546        -3.59158         5.74187
     2017.41820        -4.52165         5.84906
     2017.42094         4.54028         5.80900
     2017.42368         0.64421         5.61086
     2017.42642        -0.18786         5.70397
     2017.42915         0.40507         5.75486
     2017.43189         1.53400         5.86422
     2017.43463         2.31193         5.73862
     2017.43737         5.06786         5.66175
     2017.44010         5.20079         5.68665
     2017.44284         4.40572         5.84040
     2017.44558         3.26265         5.73970
     2017.44832         4.16458         5.70939
     2017.45106         5.96451         5.74295
     2017.45379         5.15544         5.81983
     2017.45653         4.96137         5.87830
     2017.45927         1.11830         5.83715
     2017.46201         0.52124         5.88371
     2017.46475        -0.52883         5.78843
     2017.46748         8.81210         5.81658
     2017.47022         2.33503         5.79601
     2017.47296         3.46796         5.74512
     2017.47570        -0.06111         5.72888
     2017.47843         0.00682         5.70397
     2017.48117        -0.11825         5.89237
     2017.48391         2.79068         5.74945
     2017.48665         6.78561         5.73321
     2017.48939         3.03754         5.68015
     2017.49212         2.94747         5.72130
     2017.49486         1.61140         5.78843
     2017.49760        -1.81167         5.83174
     2017.50034         6.18626         5.77652
     2017.50308         2.75419         5.73321
     2017.50581         4.02712         5.75595
     2017.50855         3.21105         5.86206
     2017.51129        -1.66002         5.87830
     2017.51403         1.88491         5.87072
     2017.51676         2.36985         5.72346
     2017.51950        -0.29622         5.78193
     2017.52224         5.01071         5.77327
     2017.52498         3.74964         5.76569
     2017.52772         3.06757         5.97466
     2017.53045         4.64050         5.75378
     2017.53319         2.61643         5.75486
     2017.53593        -0.91564         5.80575
     2017.53867         1.12529         5.76677
     2017.54141        13.46922         5.79709
     2017.54414         6.18215         5.70722
     2017.54688         8.58208         5.77435
     2017.54962         7.36501         5.89021
     2017.55236         4.37594         5.81333
     2017.55509         5.18787         5.75595
     2017.55783         5.43880         5.79926
     2017.56057         5.10673         5.71913
     2017.56331         4.04166         5.78193
     2017.56605         3.96359         5.79601
     2017.56878         5.24152         5.91944
     2017.57152         9.14345         5.71155
     2017.57426         4.40139         5.73537
     2017.57700         4.15132         5.68881
     2017.57974         2.65625         5.75919
     2017.58247         3.14018         5.70289
     2017.58521        -3.13089         5.74079
     2017.58795        -4.72296         5.83715
     2017.59069         2.51697         6.01689
     2017.59346         0.33990         7.36926
     2017.59616         4.22183         5.94976
     2017.59893         3.00376         6.66221
     2017.60173         0.95269         6.54636
     2017.60438        -5.21838         6.64489
     2017.60711        -3.95845         5.91836
     2017.60985         2.20148         6.05154
     2017.61259         4.55341         5.74837
     2017.61533         0.80534         5.92377
     2017.61807         7.41427         5.81333
     2017.62080         4.52520         5.72238
     2017.62354         3.42813         5.89129
     2017.62628         4.97606         5.84581
     2017.62902         9.88000         5.95409
     2017.63175        -0.04707         5.72130
     2017.63449         4.60186         5.77760
     2017.63723         3.12779         5.74295
     2017.63997         5.43872         5.84581
     2017.64271        11.34465         5.95409
     2017.64544         7.79558         5.72563
     2017.64818         7.06451         5.79926
     2017.65092         5.44344         5.70506
     2017.65366         6.09037         5.67041
     2017.65639         1.96230         5.83824
     2017.65913         8.96823         5.80142
     2017.66187        10.83016         5.79384
     2017.66461         9.95909         5.93568
     2017.66735         9.02602         5.81225
     2017.67008         8.04395         5.67799
     2017.67282         9.24888         5.86206
     2017.67556         7.80081         5.70289
     2017.67830         3.62874         5.65417
     2017.68104         4.28967         5.69531
     2017.68377        10.45361         5.94976
     2017.68651        10.13254         6.00065
     2017.68925        14.33947         5.72021
     2017.69199         9.29940         5.74945
     2017.69472        10.67233         5.62926
     2017.69746         9.87726         5.86639
     2017.70020        15.75819         5.95409
     2017.70294        12.96712         5.97575
     2017.70568         7.09605         5.86422
     2017.70841        10.27898         5.64334
     2017.71115         9.49391         5.76461
     2017.71389        12.80884         5.76786
     2017.71663        15.75577         5.81550
     2017.71937         8.97870         5.70181
     2017.72210         7.38263         5.73754
     2017.72484        10.19156         5.65741
     2017.72758        10.81449         5.70289
     2017.73032        12.46142         5.72238
     2017.73305         9.23435         5.70614
     2017.73579         9.07028         5.71155
     2017.73853        12.11721         5.89129
     2017.74127         4.83515         5.68124
     2017.74401        13.28508         5.76353
     2017.74674         4.58701         5.76028
     2017.74945        12.24594         5.79493
     2017.75222         6.58187         5.70181
     2017.75496        13.29280         5.68773
     2017.75770         7.61573         5.82633
     2017.76043         6.01566         5.75270
     2017.76317        10.88959         5.76786
     2017.76591         8.53352         5.79384
     2017.76865        13.04545         5.73321
     2017.77138         8.71638         5.70939
     2017.77412         8.55131         5.76894
     2017.77686         4.43224         5.74404
     2017.77960        11.79017         5.78085
     2017.78234        26.25610         5.68448
     2017.78507         8.74103         5.67366
     2017.78781         6.69596         5.68990
     2017.79055         8.62289         5.75486
     2017.79329        11.81882         5.92919
     2017.79603        15.33776         5.67799
     2017.79876        14.47569         5.80900
     2017.80150         9.03262         5.81441
     2017.80424        14.41055         5.67474
     2017.80698         6.88448         5.84148
     2017.80971         4.20041         5.73970
     2017.81245         5.47434         5.68665
     2017.81519         8.99227         5.76461
     2017.81793         0.79420         5.68448
     2017.82067         1.18613         5.79817
     2017.82340         5.10806         5.68881
     2017.82614         5.46399         5.64984
     2017.82888         3.33392         5.75053
     2017.83162        11.58985         5.68232
     2017.83436         1.29378         5.70506
     2017.83709         7.22871         5.85881
     2017.83983         6.69464         5.65092
     2017.84257         8.40357         5.66824
     2017.84531         3.66150         5.68340
     2017.84804         3.71843         5.67366
     2017.85078         8.14236         5.67690
     2017.85352         9.54130         5.73213
     2017.85626         9.09023         5.78410
     2017.85900         8.99016         5.81441
     2017.86173        11.93809         5.79168
     2017.86447         5.38402         5.68990
     2017.86721        11.54095         5.75595
     2017.86995         8.91688         6.18797
     2017.87269        13.38681         5.70506
     2017.87542         9.43374         5.64767
     2017.87816        10.34367         5.72130
     2017.88090         9.49460         5.67907
     2017.88364        11.26453         5.76677
     2017.88637        13.59546         5.69315
     2017.88911        10.62239         5.90753
     2017.89185        -3.13068         5.86964
     2017.89459         8.33725         5.84690
     2017.89733        10.68218         5.71480
     2017.90006         8.54611         5.70072
     2017.90280         0.82304         5.88588
     2017.90554         8.07197         5.72021
     2017.90828        10.28391         5.73754
     2017.91102         3.17984         5.80359
     2017.91375         7.01077         5.80142
     2017.91649         6.80070         5.68124
     2017.91923        13.17163         5.77652
     2017.92197         7.18656         5.71697
     2017.92470         8.10349         5.71047
     2017.92744         3.15042         5.75053
     2017.93020         5.16035         5.82199
     2017.93292         5.19228         5.70181
     2017.93566         4.70921         5.70072
     2017.93839         9.37314         5.77219
     2017.94113         5.26607         5.74079
     2017.94387         9.27900         5.72130
     2017.94661         8.00193         5.73537
     2017.94935         6.59386         5.70614
     2017.95208         8.82979         5.86530
     2017.95482         9.11172         5.79384
     2017.95756        19.11065         5.89346
     2017.96030        14.44358         5.67041
     2017.96303         6.35052         5.69531
     2017.96577        14.38445         5.81550
     2017.96851         9.60038         5.67366
     2017.97125         7.07331         5.65741
     2017.97399        11.29724         5.67041
     2017.97672        14.64217         5.63576
     2017.97946         5.10510         5.64659
     2017.98220         5.45503         5.60436
     2017.98494         3.64596         5.66391
     2017.98767         0.12089         5.66932
     2017.99041         3.14582         5.65958
     2017.99315         7.24075         5.67366
     2017.99589        -0.15832         5.71805
     2017.99863         4.64161         5.69423
     2018.00136        -0.38546         5.64767
     2018.00410        -0.10953         5.65958
     2018.00684         1.19640         5.69098
     2018.00958         0.88233         5.65525
     2018.01232        -1.20674         5.71805
     2018.01505         2.41719         5.67799
     2018.01779         4.38612         5.65200
     2018.02053         6.48306         5.77110
     2018.02327         8.12799         5.67149
     2018.02600         3.08492         5.69856
     2018.02874         7.47285         5.70289
     2018.03148         5.79178         5.68665
     2018.03422        -5.34229         5.66499
     2018.03696         0.19264         5.69639
     2018.03969        -0.92943         5.80575
     2018.04243        -7.23850         5.67474
     2018.04517        -0.93057         5.79276
     2018.04791         3.56236         5.87505
     2018.05065         8.53729         5.66932
     2018.05338         4.19822         5.65525
     2018.05612        -1.79885         5.70722
     2018.05886        -1.76892         5.71913
     2018.06160         4.31001         5.66716
     2018.06707         8.68987         5.77327
     2018.06981         3.36080         5.73646
     2018.07255        -0.01227         5.86855
     2018.07529        -6.76433         5.84906
     2018.07802        -1.84740         5.88696
     2018.08076         5.86453         5.81875
     2018.08350        -3.11854         5.75919
     2018.08624        -3.47161         5.78843
     2018.08898         0.74332         6.00065
     2018.09171        -4.04775         5.83390
     2018.09445        -0.78582         5.81658
     2018.09719         1.39111         5.92161
     2018.09993        -3.64596         5.78301
     2018.10266        -5.14203         5.78193
     2018.10433        -4.56507        12.88050
     2018.10920        -3.06120        12.16263
     2018.11088        -1.16124         5.74079
     2018.11362         0.11169         5.77110
     2018.11635        -4.09238         5.76353
     2018.11909        -2.07045         5.90861
     2018.12183         3.34648         5.92594
     2018.12457         2.67941         5.78843
     2018.12731        -1.65266         5.74728
     2018.13004        13.19728         5.87072
     2018.13278         3.98621         5.81008
     2018.13552         9.05814         5.77002
     2018.13826         5.36107         5.78951
     2018.14099         4.19000         5.81117
     2018.14373         2.97193         5.72346
     2018.14647         6.06286         6.05912
     2018.14921         2.02079         5.94543
     2018.15195         6.17372         5.79601
     2018.15468         4.39965         6.01364
     2018.15742        -0.34942         5.75161
     2018.16011         0.33451         5.88263
     2018.16300        -4.04256         6.09377
     2018.16564        -3.13863         6.79648
     2018.16837        -6.58070         5.77652
     2018.17111        -4.18577         5.77110
     2018.17385         4.97516         6.31357
     2018.17659        -2.59591         5.77435
     2018.17932        -1.68098         5.81441
     2018.18206         5.96695         5.93677
     2018.18480         3.34488         5.87830
     2018.18754        -1.27918         6.14682
     2018.19028        -3.41025         6.00931
     2018.19292        -0.38932         6.14357
     2018.19575         0.35061         5.86422
     2018.19849         6.21454         6.18580
     2018.20122         8.69447         5.98549
     2018.20392         5.36640         5.93568
     2018.20683         5.67733         6.02988
     2018.20944         2.63026         5.72996
     2018.21218        -1.94381         5.78410
     2018.21503       -11.97488         5.99524
     2018.21765         3.42405         5.74728
     2018.22039         4.25298         5.74945
     2018.22313         1.84991         5.70289
     2018.22587        -3.08816         5.72021
     2018.22847        -7.12322         6.11542
     2018.23143        -3.93830         5.84365
     2018.23408        -3.73937         5.69423
     2018.23682        -3.19744         5.67690
     2018.23956        -3.38551         5.71047
     2018.24227        -2.50157         5.74079
     2018.24507        -4.24165         5.75811
     2018.24777        -4.33971         5.79817
     2018.25051        -0.36378         5.63035
     2018.25325        -5.23185         5.65525
     2018.25598        -2.48792         5.65200
     2018.25872        -3.54099         5.82524
     2018.26146        -1.36406         5.85664
     2018.26420        -4.00713         5.75811
     2018.26694         1.34180         5.63035
     2018.26967        -7.53527         5.66175
     2018.27241        -2.66734         5.78410
     2018.27515         0.92759         5.65958
     2018.27789         3.06352         5.79276
     2018.28062        -1.95255         5.82308
     2018.28336        -5.26062         5.72130
     2018.28610        -6.16769         5.65633
     2018.28884         2.22124         5.71480
     2018.29158         4.91517         5.81225
     2018.29431        -6.22090         5.71264
     2018.29705        -4.34196         5.63468
     2018.29979        -3.76703         5.94868
     2018.30253        -5.93110         5.71588
     2018.30520        -8.45617         5.73537
     2018.30816        -2.17925         5.99632
     2018.31074       -10.94731         5.62385
     2018.31347        -4.68238         5.63359
     2018.31623        -1.61445         5.64550
     2018.31843         0.33149         7.63995
     2018.33366        -2.02489        11.56386
     2018.33538        -6.39994         6.14899
     2018.33812        -1.74301         5.89021
     2018.34086        -0.54808         5.64659
     2018.34360        -4.85715         5.66608
     2018.34633        -4.66022         5.63576
     2018.34907        -0.45729         5.69315
     2018.35181        -4.03736         5.89562
     2018.35455        -5.13742         5.62926
     2018.35700         2.41451         6.43808
     2018.36002         0.17444         5.70181
     2018.36276         3.65437         5.74295
     2018.36550        -0.60970         5.67582
     2018.36727        -0.30275        11.06038
     2018.37097        -1.07284         5.76786
     2018.37371        -1.54091         5.63035
     2018.37645        -0.58498         5.81875
     2018.37919        -2.93505         5.74187
     2018.38193        -1.38212         5.67690
     2018.38466        -0.50019         5.58054
     2018.38740         2.57174         5.66283
     2018.39014         3.70467         5.62710
     2018.39288         3.85960         5.68448
     2018.39561         1.47853         5.64875
     2018.39835         3.80146         5.74295
     2018.39995         2.58542        15.53975
     2018.40657         2.55525         5.68340
     2018.40930        12.83119         5.81117
     2018.41204         7.90412         5.64659
     2018.41392         2.90707         9.11250
     2018.41752        -9.87202         5.71805
     2018.42026        -1.98009         5.82741
     2018.42299         1.08384         5.69423
     2018.42459        18.53980        15.18677
     2018.42739        11.00473        13.18042
     2018.43012        27.91166        13.32335
     2018.43292         5.48959        11.88436
     2018.43645        -0.36850         6.12950
     2018.43822        -4.15255        18.34302
     2018.44164         3.08336         6.93182
     2018.44478         2.97528         5.85015
     2018.44632        30.00225       175.77723
     2018.45037        -3.43186         5.65308
     2018.45300         4.05308         5.85448
     2018.45499         7.48103         9.17422
     2018.45813        10.07195         6.82679
     2018.46132        -3.86614         5.72238
     2018.46281         3.90683        21.94644
     2018.46572         3.39675        13.23240
     2018.46874         8.36568         8.69347
     2018.47096        24.57162       118.90099
     2018.47376         8.38755        23.08767
     2018.47667        11.31848        12.80146
     2018.47929       -12.03159        17.22020
     2018.48294         4.72032         6.16306
     2018.48482        -4.66773        15.32104
     2018.48870         1.46817         5.66283
     2018.49144         0.98610         5.62601
     2018.49418         4.93203         5.76353
     2018.49646         7.92797         7.32919
     2018.49846        28.19592        16.77735
     2018.50216         3.40583         6.13383
     2018.50422        -1.07022         9.90183
     2018.50770         7.28269         5.97466
     2018.50941        -5.74136        17.29382
     2018.51249        -2.75543         9.16230
     2018.51505        17.36150        11.12210
     2018.51756       -14.91356        25.16656
     2018.52121         1.57034         6.43592
     2018.52372         3.96328         7.28588
     2018.52617        11.83722        11.88003
     2018.52874        15.35315        11.09070
     2018.53142         3.73408        12.22326
     2018.53525         2.64099         6.24319
     2018.53798        -2.43608         6.36770
     2018.54072        -0.47715         6.38611
     2018.54346        18.28078        12.43115
     2018.54514        11.26974        11.05388
     2018.55006        -6.00439        15.01137
     2018.55167        -0.98143        12.07168
     2018.55441        -5.76050         7.55224
     2018.55699        -2.80556         7.25665
     2018.56022        -5.29565         7.99076
     2018.56256         1.13329         6.38936
     2018.56555        -0.79478         7.68759
     2018.56814         4.49215         6.99137
     2018.57084        -2.55992         6.75317
     2018.57354        -0.75598         7.29563
     2018.57555        18.62696        35.87505
     2018.57909         0.59087         8.99448
     2018.58174        32.99081        18.74580
     2018.58454        16.04474        21.52308
     2018.58732         4.86267        11.09719
     2018.59004         3.75160        13.30927
     2018.59249        14.64253        15.62637
     2018.59447        17.95548        19.71920
     2018.59783         3.96340        12.28390
     2018.60050        -1.29267         9.63222
     2018.60255        10.41428        13.01909
     2018.60557        -9.51580        13.04291
     2018.60917         9.52811         7.73956
     2018.61190         1.26704         7.73090
     2018.61468         5.65597         8.01566
     2018.61709        10.86291         8.37297
     2018.62012         6.13083         7.37359
     2018.62283         3.22176         7.42664
     2018.62559         3.90469         7.38983
     2018.62833         3.64762         7.11806
     2018.63107        -0.59245         6.96106
     2018.63381         2.88949         7.65944
     2018.63626        -8.55858         8.52131
     2018.66525        15.66669       119.55822
     2018.66666         6.45465         5.68015
     2018.66940         5.49858         5.65741
     2018.67214         2.45451         5.72021
     2018.67488         4.78744         5.69098
     2018.67761         5.50537         5.85231
     2018.68035         4.99930         6.10351
     2018.68309         3.04623         5.73537
     2018.68583         3.93816         5.72888
     2018.68856         0.61410         5.69856
     2018.69130         2.85003         5.69531
     2018.69404         2.57196         5.87830
     2018.69674         7.82989         5.93244
     2018.69955         2.23982         5.85339
     2018.70225         3.79075         5.84690
     2018.70499        -0.35432         5.68881
     2018.70773         1.86961         5.73754
     2018.71047         3.37954         5.71697
     2018.71321         3.95047         5.66932
     2018.71594         4.73340         5.66932
     2018.71868        -1.26667         5.68773
     2018.72142        -2.07374         5.69964
     2018.72416        -1.51681         5.88263
     2018.72689         3.76512         5.68015
     2018.72963         2.71505         5.72130
     2018.73237        -1.60202         5.65092
     2018.73511         0.78291         5.66932
     2018.73785         3.02184         5.70722
     2018.74058        -1.04323         5.64875
     2018.74332         2.67471         5.61735
     2018.74606         3.38564         5.60869
     2018.74880        -1.04743         5.76244
     2018.75154         3.36750         5.85773
     2018.75427         9.46943         5.67257
     2018.75701         4.30036         5.78193
     2018.75975         2.61829         5.70506
     2018.76249         6.75122         5.66499
     2018.76522         4.76015         5.75703
     2018.76796         3.92408         5.66608
     2018.77070         5.53801         5.74187
     2018.77344         7.17894         5.68448
     2018.77618         2.53187         5.70722
     2018.77891         7.80380         5.80792
     2018.78165        11.31573         5.90104
     2018.78439         6.92866         5.67041
     2018.78713         4.10359         5.61952
     2018.78987        -4.61048         5.75486
     2018.79260         0.03445         5.62601
     2018.79534         8.71438         5.63901
     2018.79808        -0.46969         5.64984
     2018.80082         3.48325         5.60544
     2018.80355         8.67318         5.64442
     2018.80629         4.49811         5.83390
     2018.80903         0.26804         5.68232
     2018.81177         6.06797         5.96817
     2018.81451         6.22390         5.85556
     2018.81724         4.70883         5.87180
     2018.81998         4.61776         5.75378
     2018.82272         7.81669         5.73429
     2018.82546         3.19462         5.67149
     2018.82820         6.68055         5.69423
     2018.83093         2.08248         5.67799
     2018.83367         2.37141         5.70181
     2018.83641         3.67534         5.80250
     2018.83915         4.22327         5.69315
     2018.84188         3.46220         5.70939
     2018.84462         2.18613         5.65850
     2018.84736         0.33206         5.63684
     2018.85010         4.77699         5.65958
     2018.85284         1.08092         5.65633
     2018.85557        -2.56614         5.74837
     2018.85831        -1.06621         5.65417
     2018.86105         0.81672         5.67582
     2018.86379         4.56065         5.75811
     2018.86653         4.39158         5.71480
     2018.86926        -4.57049         5.75378
     2018.87200         4.52744         5.69964
     2018.87474         0.10037         5.68990
     2018.87748         4.22430         5.78085
     2018.88021         2.15223         5.88371
     2018.88295         6.43616         5.75703
     2018.88569         3.85809         5.76569
     2018.88843         7.16902         5.79059
     2018.89117         0.28895         5.82849
     2018.89390        -1.04612         5.79926
     2018.89664        -3.05219         5.94651
     2018.89938         6.25374         5.81225
     2018.90212         3.98567         5.78735
     2018.90485         5.56560         5.92269
     2018.90759         1.50453         5.75053
     2018.91033         4.54347         5.72888
     2018.91307         9.62440         5.84257
     2018.91581         5.58233         5.77327
     2018.91854        11.15026         5.74728
     2018.92128         4.78419         5.74404
     2018.92402         8.43912         5.76136
     2018.92676         8.02105         5.71264
     2018.92950        10.40298         5.70722
     2018.93223         8.45091         5.85339
     2018.93497         6.94484         5.76353
     2018.93771         5.35377         5.74620
     2018.94045        19.38670         5.79276
     2018.94318         9.11163         5.62601
     2018.94592         9.93556         5.69315
     2018.94866        10.79149         5.74404
     2018.95140         9.67242         5.97250
     2018.95414        14.36635         7.11806
     2018.95687         8.41528         5.74295
     2018.95961         2.20821         5.72346
     2018.96235        10.38714         5.74187
     2018.96509         3.20107         5.70830
     2018.96783         0.63901         5.76786
     2018.97056         9.56194         5.73537
     2018.97330         3.88187         5.71480
     2018.97604         6.15680         5.74728
     2018.97878        12.62373         6.02772
     2018.98151        -4.00534         5.68665
     2018.98425         5.24059         5.86639
     2018.98699        10.05752         5.82308
     2018.98973         4.29245         5.75378
     2018.99247         4.78838         5.79059
     2018.99520         2.41231         5.90537
     2018.99794         0.63124         5.76028
     2019.00068        -5.67183         5.74837
     2019.00342        -2.73190         5.77868
     2019.00616         0.98803         5.82308
     2019.00889        -1.36904         5.79168
     2019.01163         4.46089         5.78951
     2019.01437         2.85982         5.79817
     2019.01711        11.59075         6.46407
     2019.01963         3.17169         6.41318
     2019.06469       -16.69245        11.36680
     2019.06639        -0.10650         5.76028
     2019.06913         3.15543         5.81766
     2019.07186        -2.44664         5.80684
     2019.07460        -2.84871         5.64767
     2019.07734         0.45323         5.66391
     2019.08008         1.66316         5.64442
     2019.08282        -0.36091         5.91078
     2019.08555        -2.34598         5.68990
     2019.08829        -1.25205         5.65092
     2019.09103         0.60188         5.63143
     2019.09377        -3.36219         5.68990
     2019.09650         9.98874         5.66932
     2019.09924         3.28467         5.75703
     2019.10198        -1.34040         5.62493
     2019.10472         3.35953         5.61302
     2019.10746         4.05846         5.64009
     2019.11019         4.17239         5.62060
     2019.11293         8.06632         5.69423
     2019.11567         6.10625         5.90970
     2019.11841         7.09718         5.75161
     2019.12115        14.45611         5.94976
     2019.12388         7.33804         5.91295
     2019.12662         5.48297         5.90428
     2019.12936         4.27590         5.70722
     2019.13210         1.38483         5.68015
     2019.13483        -2.05223         5.70506
     2019.13757         5.14370         5.73321
     2019.14031         2.67763         5.74187
     2019.14305        -1.83144         5.74187
     2019.14579        -1.95251         5.72671
     2019.14852        -1.82858         5.71264
     2019.15126         0.46935         5.74837
     2019.15400        -1.94972         5.68232
     2019.15674        -2.46279         5.65525
     2019.15948        -2.47486         5.63359
     2019.16221        -7.33393         5.74079
     2019.16495        -4.23600         5.66066
     2019.16769        -6.24807         5.61844
     2019.17043        -5.59514         5.80467
     2019.17316        -2.93921         5.73862
     2019.17590         0.30572         5.73754
     2019.17864        -0.33735         5.70614
     2019.18138         1.85458         5.72996
     2019.18412        -9.62849         5.64984
     2019.18685        -8.05156         5.64009
     2019.18959        -3.01462         5.69206
     2019.19233         1.30731         5.70289
     2019.19507        -7.92376         5.70830
     2019.19780        -7.42683         5.68232
     2019.20054       -10.03690         5.77977
     2019.20328        -9.85897         5.66824
     2019.20602        -6.82004         5.94001
     2019.20876       -10.82911         5.68232
     2019.21149        -5.36218         5.66175
     2019.21423        -2.56825         5.69856
     2019.21697        -5.84532         5.63359
     2019.21971        -6.22939         5.95084
     2019.22245        -5.40446         5.65200
     2019.22518        -0.10653         5.63251
     2019.22792         1.49740         5.72130
     2019.23066        -9.97167         5.62926
     2019.23340         1.31526         5.64009
     2019.23613        -7.67181         5.79926
     2019.23887        -5.81688         5.84581
     2019.24161        -9.42695         5.98982
     2019.24435        -6.55601         5.90104
     2019.24709        -1.74908         5.74728
     2019.24982        -2.20015         5.69531
     2019.25256        -1.38322         5.81441
     2019.25530        -6.21629         5.72996
     2019.25804        -5.57936         5.89021
     2019.26078        -0.58843         5.61735
     2019.26351        -4.84050         5.92377
     2019.26625        -4.71957         5.76244
     2019.26899        -5.10864         5.77868
     2019.27173        -0.54871         5.83607
     2019.27446        -8.26578         5.60977
     2019.27720        -7.92685         5.75161
     2019.27994        -6.11792         5.71372
     2019.28268        -8.63599         5.69639
     2019.28542         5.00294         5.62601
     2019.28815        -2.66813         5.82308
     2019.29089        -6.00920         5.64550
     2019.29363        -5.00127         5.66391
     2019.29637        -5.24934         5.81441
     2019.29911        -0.19341         5.63576
     2019.30184        -5.51247         5.63901
     2019.30458        -8.03054         5.70072
     2019.30732        -7.24161         5.72238
     2019.31006        -3.03068         5.73104
     2019.31279        -5.35275         5.79493
     2019.31553         5.03418         5.67907
     2019.31827        -4.61589         5.62277
     2019.32101        -4.52496         5.94976
     2019.32375        -8.25203         5.78301
     2019.32648        -6.23910         5.67474
     2019.32922        -6.53517         5.62493
     2019.33196        -2.37824         5.72779
     2019.33470        -4.59731         5.83607
     2019.33744        -4.37038         5.71805
     2019.34017        -8.70445         5.69964
     2019.34291         0.89948         6.09810
     2019.34565        -7.61359         5.73537
     2019.34839        -9.38266         5.75486
     2019.35112        -7.08473         5.65092
     2019.35386        -7.14880         5.67582
     2019.35660        -3.30486         5.76569
     2019.35934         2.98607         5.71264
     2019.36208        -2.66700         5.60977
     2019.36481        -2.33907         5.71697
     2019.36755        -8.37614         5.71480
     2019.37029        -4.08921         5.76461
     2019.37303         0.59872         5.69423
     2019.37577        -2.64035         5.91078
     2019.37850         0.28858         5.72996
     2019.38124         0.82651         5.70506
     2019.38398        -3.56456         5.72238
     2019.38672         1.37437         5.76786
     2019.38945        -0.57370         5.70722
     2019.39219        -7.36177         5.70722
     2019.39493        -2.83484         5.61844
     2019.39767        -5.87691         5.67799
     2019.40041        -0.04898         5.69206
     2019.40314         1.15095         5.65200
     2019.40580        -1.46711         5.80359
     2019.41136         0.02175         5.63251
     2019.41410        -2.26932         5.69964
     2019.41683         1.32061         5.85664
     2019.41957        -1.60646         5.73104
     2019.42231        -5.48953         5.64226
     2019.42505         0.27040         5.73321
     2019.42778         2.56433         5.86639
     2019.43052        -3.95074         6.03638
     2019.43326        -8.30181         5.67690
     2019.43600        -5.84688         5.73754
     2019.43874        -8.10495         5.75811
     2019.44147       -10.34202         5.80792
     2019.44421        -3.38909         5.80684
     2019.44695        -6.55816         5.84690
     2019.44969        -2.38723         5.85448
     2019.45243        -2.07630         5.75053
     2019.45516        -1.20337         5.78085
     2019.45790        -5.13844         5.87072
     2019.46064        -4.37751         5.82957
     2019.46338        -6.86558         6.14899
     2019.46611         0.28935         6.04504
     2019.46885        -0.86571         5.98766
     2019.47159         1.85222         5.88263
     2019.47433        -5.51985         6.02988
     2019.47707        -3.42492         5.80034
     2019.47980         1.60001         5.80359
     2019.48254        -1.59206         5.95084
     2019.48528        -0.46413         5.85123
     2019.48802        -5.28720         5.81333
     2019.49076        -5.90927         5.66391
     2019.49349         0.33466         5.69315
     2019.49623        -1.97541         5.67366
     2019.49897        -5.98948         5.78193
     2019.50171        -0.65055         5.71264
     2019.50444        -4.32262         5.99524
     2019.50718        -3.61069         5.68773
     2019.50992        -5.99776         5.77760
     2019.51266        -3.11983         5.67474
     2019.51540        -1.40290         5.72779
     2019.51813        -3.55697         5.70614
     2019.52087        -2.43104         5.81225
     2019.52361        -9.76710         5.84798
     2019.52635        -0.24217         5.75378
     2019.52908        -2.28224         6.02772
     2019.53182        -6.78731         5.85123
     2019.53456         0.86562         5.85448
     2019.53730        -2.06745         5.89237
     2019.54004        -1.89052         6.00715
     2019.54277         2.08441         5.96600
     2019.54551        -6.78966         6.09593
     2019.54825         0.04327         5.77327
     2019.55099        -6.16980         5.91295
     2019.55373        -1.12587         5.93027
     2019.55646        -3.19494         5.92919
     2019.55920       -14.15401         5.99415
     2019.56194        -0.27108         5.71480
     2019.56468        -5.08915         5.90861
     2019.56741        -4.90222         5.80792
     2019.57015        -3.93229         5.71805
     2019.57289        -6.92236         5.79384
     2019.57563         1.18957         5.81658
     2019.57837         3.25150         5.90104
     2019.58110        -4.61956         5.88046
     2019.58384        -2.33663         6.14466
     2019.58658        -3.52270         5.75919
     2019.58932         0.31623         5.78626
     2019.59206         1.33816         5.82741
     2019.59479        -2.26191         5.76028
     2019.59753         3.36002         5.98982
     2019.60027         1.76295         5.99307
     2019.60301        -1.39512         5.77977
     2019.60574         5.53881         6.02772
     2019.60848         3.06474         6.02339
     2019.61122        -4.97533         5.81008
     2019.61396        -4.67940         5.88263
     2019.61670        -1.73947         5.75053
     2019.61943        -1.16654         5.74945
     2019.62217        -0.94061         5.93244
     2019.62491         1.90232         5.77760
     2019.62765         1.66225         5.72888
     2019.63039         5.17818         5.79059
     2019.63312         0.92111         5.77219
     2019.63586        -3.15095         5.94326
     2019.63860        -0.22302         6.03097
     2019.64134        -3.56209         5.85556
     2019.64407        -0.67316         6.09052
     2019.64681        -7.16623         5.77977
     2019.64955        -0.47130         5.73537
     2019.65229         7.01963         5.79926
     2019.65503        -2.58744         5.89995
     2019.65776        -4.26451         5.91619
     2019.66050         2.73742         5.87397
     2019.66324         0.01835         5.90970
     2019.66598         2.03228         5.81983
     2019.66872         0.84421         5.73862
     2019.67145        -4.68886         5.84040
     2019.67419        11.79307        24.27978
     2019.67695         1.22800         5.96167
     2019.67967        -3.53407         5.95626
     2019.68240        -7.26314         5.79384
     2019.68514         1.27279         5.89562
     2019.68788         2.77772         5.85448
     2019.69062         0.94166         5.88263
     2019.69336        -1.85441         5.83607
     2019.69609         1.60052         5.82849
     2019.69883        -0.50755         6.09593
     2019.70157        -0.69162         5.74187
     2019.70431        -0.07969         5.80792
     2019.70705         0.38224         5.81333
     2019.70978        -1.12283         5.81875
     2019.71252       -10.51390         5.84148
     2019.71526         0.70203         5.67690
     2019.71800         0.38196         5.93244
     2019.72073         4.31689         6.09268
     2019.72347        -0.19318         5.78193
     2019.72621        -7.96725         5.88263
     2019.72895        -6.60932         5.80900
     2019.73169         6.03361         5.74295
     2019.73442        17.19454         5.91295
     2019.73716        -0.88553         5.85123
     2019.73990        -0.88760         6.52579
     2019.74264         4.18333         5.85773
     2019.74538         0.09126         5.72238
     2019.74811         3.54120         5.79709
     2019.75085         3.66713         5.90537
     2019.75359         1.48706         6.05262
     2019.75633         0.56299         5.85015
     2019.75906        -0.45108         5.72455
     2019.76180         0.18185         5.72238
     2019.76454         1.27678         5.79601
     2019.76728        -5.57129         6.01473
     2019.77002        -0.74536         5.93135
     2019.77275         1.78157         5.96167
     2019.77549         2.21850         5.80792
     2019.77823         4.67443         5.81333
     2019.78097         5.76536         5.84040
     2019.78371         3.61929         5.81441
     2019.78644         5.49422         6.21937
     2019.78918         4.97915         6.08835
     2019.79192         2.25908         5.87938
     2019.79466         8.25201         6.13058
     2019.79739        13.74894         5.89995
     2019.80013         5.51287         5.81658
     2019.80287         2.39981         5.88588
     2019.80561        -0.90326         5.97033
     2019.80835        -2.35033         5.78301
     2019.81108         2.30960         5.83715
     2019.81382        -1.25847         6.05479
     2019.81656        -1.41254         5.88263
     2019.81930        -0.42661         5.83066
     2019.82203         2.61432         5.77435
     2019.82477        -0.20075         5.84798
     2019.82751         1.67618         5.84581
     2019.83025         4.63111         5.97899
     2019.83299        -0.48296         5.95084
     2019.83572         1.11297         5.85231
     2019.83846         7.84890         5.83282
     2019.84120         2.60183         5.83174
     2019.84394         4.41776         6.10459
     2019.84668        -2.35731         5.81225
     2019.84941         4.57562         5.83390
     2019.85215         2.45055         5.82633
     2019.85489         6.46748         5.98657
     2019.85763        -0.68858         5.84690
     2019.86036         1.75135         5.86639
     2019.86310        -1.18872         5.86206
     2019.86584         8.34621         5.95409
     2019.86858        10.19114         5.82416
     2019.87132        -2.87493         6.03855
     2019.87405         2.53000         5.76677
     2019.87679         4.09693         5.99740
     2019.87953         5.43186         5.82199
     2019.88227        14.50679         5.86206
     2019.88501         8.17572         5.81333
     2019.88774        10.40465         5.97141
     2019.89048        11.99258         5.75703
     2019.89322        13.70451         6.00823
     2019.89596         1.60544         5.85339
     2019.89869        16.04437         5.85989
     2019.90143        12.04830         5.83066
     2019.90417         9.57723         5.83066
     2019.90691         6.57116         5.77002
     2019.90965         4.54009         5.76028
     2019.91238         9.00302         5.75053
     2019.91512        10.92396         5.73213
     2019.91786        13.77189         5.73429
     2019.92060        10.63482         5.75811
     2019.92334         8.60075         5.80467
     2019.92607         0.88868         5.77435
     2019.92881         9.59161         5.83282
     2019.93155         6.04554         5.73104
     2019.93429         8.25947         5.79601
     2019.93702         3.93040         5.77544
     2019.93976         5.48333         5.83390
     2019.94250         0.10826         5.83066
     2019.94524        -1.03281         5.77110
     2019.94798        -1.85888         5.79926
     2019.95071        10.95405         6.11326
     2019.95345         9.85698         5.83066
     2019.95619         7.03991         5.86422
     2019.95893         3.37884         5.85448
     2019.96167         4.12777         5.83174
     2019.96440         8.10970         5.91078
     2019.96714         4.46463         5.95734
     2019.96988        -0.07543         5.79168
     2019.97262         3.88750         5.89779
     2019.97535         6.61143         5.77219
     2019.97809         0.83536         5.81008
     2019.98083         0.96329         5.76461
     2019.98357         0.30922         5.90320
     2019.98631         7.05515         5.87505
     2019.98904         2.57708         5.79276
     2019.99178         3.64701         5.76894
     2019.99452         0.08394         5.78843
     2019.99726         7.36387         5.79168
     2020.00000        11.55580         5.86206
     2020.00273         2.63473         5.78843
     2020.00547         5.80266         6.13491
     2020.00821         2.28359         5.94110
     2020.01095         3.97052         5.90320
     2020.01368         5.66345         5.95626
     2020.01642        -0.33362         5.94651
     2020.01916        -2.21669         5.94110
     2020.02190         6.31824         5.87830
     2020.02464        -1.79082         5.88046
     2020.02737         8.65211         5.89670
     2020.02888        10.87207        20.66337
     2020.04380        -0.47431         6.14466
     2020.04561        -4.69836        11.03548
     2020.05027       -15.94248        10.40639
     2020.05201         1.69148         5.74187
     2020.05475        -2.31859         5.76028
     2020.05749        -1.73466         5.77327
     2020.06023        -2.72873         5.73754
     2020.06297        -4.23280         5.72346
     2020.06570         0.98013         5.77110
     2020.06844        -2.01394         5.83824
     2020.07118        -1.81601         5.72130
     2020.07392         3.43692         5.83282
     2020.07666        -2.64715         5.75703
     2020.07939        -0.64022         5.71913
     2020.08213        -4.43028         5.69964
     2020.08390       -12.59933        12.24708
     2020.08855         5.19855         9.77406
     2020.09034         2.06451         5.68665
     2020.09308         1.96544         5.66175
     2020.09582         2.94737         5.68015
     2020.09856         2.44230         5.71913
     2020.10130        -4.86677         5.80467
     2020.10403         5.95016         5.80142
     2020.10677        -8.14291        11.02790
     2020.10951        -3.28198         5.67257
     2020.11225        -1.84405         5.80684
     2020.11498        -1.93312         5.69639
     2020.11772        -4.72719         5.90537
     2020.12046        -6.48126         5.86422
     2020.12320         1.01567         5.66716
     2020.12594         1.16260         5.66932
     2020.12867        -6.02347         5.65741
     2020.13141        -6.92954         5.77219
     2020.13415        -4.96861         5.70722
     2020.13689        -0.38467         5.97791
     2020.13963         1.72726         5.89237
     2020.14236        -5.94481         5.69206
     2020.14510         5.27512         5.80250
     2020.14784        -6.08995         5.74728
     2020.15058        -4.97402         5.76136
     2020.15331        -5.11809         5.90212
     2020.15605        -6.57316         5.68881
     2020.15879         2.45477         5.68448
     2020.16153         1.54870         5.76353
     2020.16427         4.78763         5.76136
     2020.16700         1.58256         5.73429
     2020.16974        -5.07651         5.71588
     2020.17248        -2.56258         6.10243
     2020.17522        -1.60965         5.66499
     2020.17796         1.97728         5.68015
     2020.18069        -0.56779         5.70289
     2020.18343        -1.10486         5.64767
     2020.18617        -4.10493         5.70506
     2020.18891        -5.53800         5.77110
     2020.19164        -9.01406         5.79059
     2020.19438        -6.39113         5.82957
     2020.19712        -0.93220         5.74945
     2020.19986        -5.54427         5.73754
     2020.20260        -4.66834         5.88371
     2020.20533        -3.56441         5.77652
     2020.20807        -7.62648         5.82308
     2020.21081        -8.03855         5.86530
     2020.21355        -8.70662         6.37637
     2020.21629        -4.36369         6.06561
     2020.21902        -4.41776         5.89779
     2020.22179        -4.04883         5.90861
     2020.22450        -5.45190         5.91403
     2020.22724         0.83403         5.88479
     2020.22997         0.98396         5.75486
     2020.23271         2.26389         5.76894
     2020.23545        -2.82118         5.85664
     2020.23819        -8.46325         5.85773
     2020.24093        -7.35432         5.82741
     2020.24366        -3.56539         5.83499
     2020.24640         8.48054         5.93352
     2020.24914        -4.22952         5.77110
     2020.25188        -5.23759         5.83174
     2020.25462        -2.83766         5.77002
     2020.25735        -0.57073         5.81008
     2020.26005         3.83320         5.86206
     2020.26291         6.16313         6.36879
     2020.26557        -3.34394         6.35038
     2020.26830        -5.56301         5.91186
     2020.27103        -3.44808         5.81658
     2020.27383        -2.15215         6.21828
     2020.27652        -3.65022         5.79817
     2020.27929        -2.64429         5.98766
     2020.28199         1.87964         9.00964
     2020.28473       -10.63443         8.72054
     2020.28747        -0.23350         8.65882
     2020.29021        -2.07357         5.78735
     2020.29295       -12.68064         5.83390
     2020.29568        -0.62471         5.85881
     2020.29842        -3.29378         5.80467
     2020.30116         0.96415         5.75811
     2020.30390        -2.22891         5.78193
     2020.30663        -7.08698         5.79168
     2020.30937        -6.00905         5.90861
     2020.31211       -10.49712         6.00390
     2020.31485        -4.36419         5.89129
     2020.31759        -4.28726         5.74079
     2020.32032         0.26767         5.99632
     2020.32306        -5.20640         5.76136
     2020.32580        -8.21747         5.76028
     2020.32854        -8.60354         5.77327
     2020.33128        -6.78461         5.70939
     2020.33401        -4.72168         5.78193
     2020.33675        -5.61275         5.80142
     2020.33949        -5.64482         5.79276
     2020.34223       -13.68989         5.97575
     2020.34496       -10.32096         6.00931
     2020.34770       -11.03003         5.72996
     2020.35044        -8.48810         5.83932
     2020.35318        -8.20617         5.84690
     2020.35592        -9.34724         5.96167
     2020.35865        -8.02431         5.79817
     2020.36139        -3.26137         5.72021
     2020.36413        -6.43044         5.72779
     2020.36687        -4.32051         5.81333
     2020.36961        -9.39758         5.81983
     2020.37234        -3.05565         5.75486
     2020.37508        -3.63972         5.77652
     2020.37782        -3.83179         5.71913
     2020.38056        -8.04286         5.70289
     2020.38329        -6.04693         5.90753
     2020.38603       -11.97900         5.75703
     2020.38877        -2.46807         5.95084
     2020.39158        -7.38214         5.92269
     2020.39425        -6.81621         5.68340
     2020.39698        -7.35728         5.81333
     2020.39972       -12.60635         5.80359
     2020.40246        -7.80942         5.72779
     2020.40520        -7.71349         5.85556
     2020.40794       -10.99256         5.80142
     2020.41067        -6.28763         5.84581
     2020.41341        -8.23970         5.77327
     2020.41615        -9.83776         5.74295
     2020.41889        -7.71783         6.13275
     2020.42162        -6.11790         5.83174
     2020.42436        -8.05497         6.17281
     2020.42710        -7.57204         6.03097
     2020.42984        -1.74811         5.95734
     2020.43258        -9.57218         5.84473
     2020.43531        -7.90025         6.02772
     2020.43805        -6.63032         5.86097
     2020.44079        -9.02039         6.03746
     2020.44353        -5.75746         6.00606
     2020.44626       -12.04053         5.80250
     2020.44900        -5.32660         5.82633
     2020.45174        -2.89467         5.83824
     2020.45448        -2.36874         5.74837
     2020.45722       -10.02081         5.72238
     2020.45995        -4.92888         5.69639
     2020.46269        -7.64895         5.77219
     2020.46543        -7.34002         5.83607
     2020.46817        -4.58809         5.83607
     2020.47091        -5.54615         5.87288
     2020.47364        -8.33422         5.72671
     2020.47638        -5.75329         5.81875
     2020.47912        -6.85736         5.95842
     2020.48186        -6.80043         5.85231
     2020.48459        -8.25550         5.98333
     2020.48733        -7.61157         6.01797
     2020.49007        -4.39764         6.00065
     2020.49281        -5.34271         5.93244
     2020.49555        -7.52278         5.96925
     2020.49828        -0.44685         5.87721
     2020.50102       -15.03592         5.78626
     2020.50376        -4.49399         5.81441
     2020.50650        -7.08906         5.82199
     2020.50924       -10.65113         5.80467
     2020.51197        -4.43420         5.85448
     2020.51471        -7.25827         5.76677
     2020.51745       -12.60134         5.79168
     2020.52019        -1.67341         6.03638
     2020.52292        -2.02448         6.04721
     2020.52566        -7.07355         6.01364
     2020.52840        -7.97161         6.03746
     2020.53114        -7.62468         5.98008
     2020.53388        -7.33075         5.98874
     2020.53661        -7.50282         6.09810
     2020.53935        -7.71889         6.11542
     2020.54209        -9.84996         6.00390
     2020.54483        -6.55303         6.01906
     2020.54757        -8.68810         5.88263
     2020.55030        -1.39117         5.97683
     2020.55304        -7.25624         6.26917
     2020.55578        -5.66231         6.02014
     2020.55852         1.43962         6.06778
     2020.56125        -0.69945         5.91511
     2020.56399        -4.81352         5.90861
     2020.56673        -4.65859         5.95842
     2020.56947        -7.08066         6.07753
     2020.57221        -0.67373         6.25618
     2020.57494         1.93020         6.06995
     2020.57768        -1.53387         5.95734
     2020.58042        -8.30994         6.09701
     2020.58316        -4.08900         6.14574
     2020.58590        -5.66307         6.07103
     2020.58863        -6.26514         6.03097
     2020.59137        -4.55021         6.07211
     2020.59411        -3.09928         5.95084
     2020.59685         4.79065         6.36770
     2020.59958        -5.41242         6.09160
     2020.60232         0.16251         6.02014
     2020.60506        -7.98556         5.97358
     2020.60780        -2.25163         5.97791
     2020.61054         3.48530         6.02555
     2020.61327        -3.63877         6.17281
     2020.61601        -3.40484         6.05912
     2020.61875        -6.81091         5.96167
     2020.62149       -10.11398         5.97358
     2020.62423        -2.79005         6.07319
     2020.62696        -8.40612         6.09377
     2020.62970        -9.12719         6.07536
     2020.63244        -4.13926         6.02664
     2020.63518        -3.08233         6.12517
     2020.63791        -0.80739         6.23777
     2020.64065        -4.56546         6.05804
     2020.64339        -8.71053         5.98766
     2020.64613        -1.24760         6.00606
     2020.64887        -7.46167         6.00823
     2020.65160        -5.18574         5.95084
     2020.65434        -9.40081         5.95193
     2020.65708        -2.65488         5.97683
     2020.65982        -2.66895         6.03205
     2020.66256        -4.49702         5.96925
     2020.66529        -4.35409         5.97250
     2020.66803        -3.03016         6.12408
     2020.67077        -3.74923         6.24535
     2020.67351         1.36670         6.12517
     2020.67624        -5.92937         6.09268
     2020.67900        -7.25144         6.14357
     2020.68172        -6.06651         6.02880
     2020.68446        -3.49858         6.06995
     2020.68717        -1.08165         7.98426
     2020.68996        -2.62372         7.04876
     2020.69269        -2.92879         6.44133
     2020.69541        -4.22685         6.48031
     2020.69815        -1.81592         6.03746
     2020.70089        -1.02499         5.91728
     2020.70362         1.55494         6.20313
     2020.70636       -11.87713         6.52795
     2020.70910       -12.50220         6.47381
     2020.71184        -1.05527         6.11326
     2020.71457        -6.08034         6.11867
     2020.71731        -5.46141         6.17606
     2020.72008        -5.07048         6.34064
     2020.72279        -5.99655         6.00606
     2020.72553         3.65338         6.23128
     2020.72826         2.81531         6.32873
     2020.73100         2.34324         6.25510
     2020.73374         6.75417         6.15873
     2020.73648        -7.54190         5.99199
     2020.73921        -5.31697         6.12625
     2020.74195        -1.47304         5.99090
     2020.74469         1.07089         6.00715
     2020.74743        -2.08518         5.94543
     2020.75017        -2.35224         5.94110
     2020.75290        -1.45531         6.02014
     2020.75564        -4.17738         5.99524
     2020.75838        11.76755         5.93460
     2020.76112         6.63548         6.07861
     2020.76386         6.94141         5.84906
     2020.76659        11.40134         5.93785
     2020.76933         0.71527         6.10676
     2020.77207         2.05520         5.97899
     2020.77481        10.73413         5.93460
     2020.77754         6.89606         5.87613
     2020.78028         2.42399         6.18580
     2020.78302         9.86692         6.10459
     2020.78576         3.88685         6.04613
     2020.78850         4.53678         5.97250
     2020.79123         4.03071         5.97683
     2020.79397         5.98464         5.98874
     2020.79671        -1.06343         6.02447
     2020.79945        -3.55750         6.12084
     2020.80219         7.28443         6.08402
     2020.80492         8.46437         5.93677
     2020.80766         6.12130         5.95734
     2020.81040        10.83323         6.01039
     2020.81314         6.61616         5.98441
     2020.81587         5.77709         5.97358
     2020.81861         8.57602         5.90970
     2020.82135         5.00395         5.97575
     2020.82409         4.95388         5.97033
     2020.82683         8.70381         6.03963
     2020.82956         2.65474         6.27567
     2020.83230         9.13367         5.97683
     2020.83504        10.45360         5.99632
     2020.83778         9.27153         5.93893
     2020.84052         3.10746         6.00281
     2020.84325        -3.60861         6.36770
     2020.84599        11.62532         6.08727
     2020.84873         7.60925         5.92161
     2020.85147         4.83518         5.87180
     2020.85420        13.31211         5.81008
     2020.85694        16.40704         5.96384
     2020.85968        19.25197         5.90861
     2020.86242        18.03691         5.90104
     2020.86516        14.30184         6.13599
     2020.86789        -8.25823         6.15115
     2020.87063        18.49870         5.92486
     2020.87337        26.00563         6.07536
     2020.87611        15.43856         6.12408
     2020.87885        16.25949         6.14682
     2020.88158         1.51442         6.08294
     2020.88432         6.40435         5.90320
     2020.88706         3.09628         6.25943
     2020.88980         5.38021         6.02339
     2020.89253         8.39514         5.97575
     2020.89527        18.15207         6.19879
     2020.89801         6.57500         6.15224
     2020.90075        10.76193         5.98224
     2020.90349         8.34786         5.95517
     2020.90622         8.06479         5.96925
     2020.90896         8.25172         6.37204
     2020.91170        10.99165         6.31681
     2020.91444         4.77758         6.14899
     2020.91718         3.75252         5.94001
     2020.91991         4.70145         5.95084
     2020.92265         7.71138         5.92377
     2020.92539         5.94931         5.98549
     2020.92813         2.69824         5.89995
     2020.93086         2.14017         5.97683
     2020.93360         5.22410         5.93460
     2020.93634         3.09703         5.99524
     2020.93908         0.51396         5.93135
     2020.94182         9.32489         5.94651
     2020.94455        -1.06018         5.93244
     2020.94729        -0.36725         5.86855
     2020.95003         2.17168         5.99307
     2020.95277         0.18761         5.88913
     2020.95551         0.93154         6.12841
     2020.95824         0.52947         6.12084
     2020.96098         7.22840         6.93399
     2020.96372        -0.11567         5.95301
     2020.96646        -0.12774         5.99632
     2020.96919         2.86419         6.05804
     2020.97193        -3.56987         5.89346
     2020.97467        -2.24894         6.09268
     2020.97741        -1.53401         5.98874
     2020.98015         3.26192         6.07319
     2020.98288         4.37785         6.00281
     2020.98562        10.76878         5.91511
     2020.98836         6.63371         5.89129
     2020.99110         7.67064         5.83715
     2020.99384         7.68957         5.84257
     2020.99657        16.01750         5.88804
     2020.99931        13.58843         5.91728
     2021.00205         1.97736         5.93027
     2021.00479        10.84029         5.83932
     2021.00752        13.44922         5.87072
     2021.01026        13.75315         5.91511
     2021.01300        10.64408         5.83607
     2021.01574         5.04301         6.00823
     2021.01848         2.22594         5.80684
     2021.02121         6.57287         5.83715
     2021.02395        13.67680         5.86206
     2021.02669         6.70473         5.99199
     2021.02943         0.31767         5.87721
     2021.03216         8.79360         5.91944
     2021.03490         4.83053         5.91944
     2021.03764         4.32946         5.86855
     2021.04038         1.58339         5.92919
     2021.04312         2.60832         5.89670
     2021.04585        -4.79275         5.87180
     2021.04859        -0.62482         5.86639
     2021.05133         4.07511         6.11326
     2021.05407         9.34804         6.33306
     2021.05681         3.98197         6.00715
     2021.05954        -1.58510         5.87613
     2021.06228         0.75983         5.84581
     2021.06502         2.83376         5.86530
     2021.06776         9.99969         5.82199
     2021.07049         4.53362         5.78301
     2021.07323         6.65955         5.85556
     2021.07597        -1.22652         5.81658
     2021.07871         7.38941         5.88588
     2021.08145         4.12834         5.80575
     2021.08418        -1.01172         5.82091
     2021.08692         0.61921         5.82957
     2021.08966         1.41514         5.91186
     2021.09240        -2.31793         5.85231
     2021.09514         0.96000         6.05479
     2021.09787         1.56693         6.07536
     2021.10061         3.42886         5.89562
     2021.10335         5.80779         5.79384
     2021.10609        -2.32528         5.79384
     2021.10882        -0.18935         5.86964
     2021.11156        -2.17042         5.79817
     2021.11430        -0.96849         5.81766
     2021.11704         5.72244         5.77652
     2021.11978         6.73937         5.74079
     2021.12251         3.00930         5.75703
     2021.12525        19.08723         6.02339
     2021.13073         0.50609         5.82957
     2021.13347        -0.89698         5.96275
     2021.13620         2.36695         6.00606
     2021.13894         0.92988         5.83932
     2021.14168        -1.17518         5.97466
     2021.14442         4.13575         5.95950
     2021.14715        -3.27032         5.92161
     2021.14989        -6.74039         6.47923
     2021.15263        -2.72446         5.98549
     2021.15537         1.07347         5.99524
     2021.15811         4.45540         6.19555
     2021.16084         1.95333         6.05262
     2021.16358        -2.05374         6.01148
     2021.16632         3.15619         6.03855
     2021.16906        -1.36688         6.13599
     2021.17180        -2.20795         5.82741
     2021.17453        -0.52702         6.13491
     2021.17727        -0.02209         6.11434
     2021.18001        -1.21416         6.01039
     2021.18275        -0.84823         6.14466
     2021.18548        -2.53930         5.79926
     2021.18822        -4.06637         5.79601
     2021.19096        -1.84544         5.79817
     2021.19370        -5.81851         5.93135
     2021.19644        -6.06957         5.82633
     2021.19917        -5.46364         5.85881
     2021.20191         4.25029         5.81983
     2021.20465         6.70222         6.23669
     2021.20739         2.89115         5.89454
     2021.21013        -0.79292         6.06561
     2021.21286        -1.19999         5.97358
     2021.21560         2.33994         5.85773
     2021.21834         2.23387         5.94110
     2021.22108         3.51080         5.90104
     2021.22381        -5.73327         5.82091
     2021.22655        -1.45134         5.84040
     2021.22929         7.47159         5.86206
     2021.23203         1.37152         5.80142
     2021.23477        -9.08555         5.85448
     2021.23750        -4.08262         5.85664
     2021.24024        -2.48369         5.84257
     2021.24298        -0.27576         5.84365
     2021.24572        -2.07383         5.85664
     2021.24846        -4.93190         5.97791
     2021.25119        -1.95196         5.84473
     2021.25393        -1.71903         5.97141
     2021.25667        -9.81710         5.89021
     2021.25941        -2.79517         5.85123
     2021.26214         0.15976         5.89346
     2021.26488        -2.00831         5.84365
     2021.26762         9.72162         6.00931
     2021.27036        -2.70545         6.03530
     2021.27310        -1.03152         5.86855
     2021.27583        -3.93959         5.80575
     2021.27857        -8.47566         5.93135
     2021.28131        -6.60973         6.00065
     2021.28405        -5.84580         5.92702
     2021.28679        -1.36587         6.00606
     2021.28952        -4.30994         6.01906
     2021.29226        -7.59901         6.02014
     2021.29500         0.47392         6.00281
     2021.29774        -2.09415         6.21937
     2021.30047        -4.31422         6.13924
     2021.30321         3.61871         6.03963
     2021.30595         5.08464         6.16415
     2021.30869         9.17558         6.18364
     2021.31143         6.22351         5.84581
     2021.31416         1.85944         5.93893
     2021.31690         1.05337         5.89562
     2021.32021        -1.65772         8.51373
     2021.32295        -0.46779         8.07305
     2021.32569        -2.03486         7.74822
     2021.32842        -6.97193         8.00484
     2021.33116         1.11000         7.78937
     2021.33390         1.55294         7.68109
     2021.33664        -1.29513         7.67243
     2021.33937        -4.59820         7.81427
     2021.34211         3.63773         7.78395
     2021.34485        -2.39234         7.95070
     2021.34759        -4.90741         7.75472
     2021.35033        -4.35848         7.96477
     2021.35306        -3.20955         7.84892
     2021.35542        -3.53161        10.55148
     2021.37520       -15.18211         9.84444
     2021.37770       -18.16218         7.92688
     2021.38044        -7.21625         9.23160
     2021.42151        -1.15129         7.87490
     2021.42425        11.13464         8.05573
     2021.42699         0.19757         7.99726
     2021.42972         6.17350         7.91497
     2021.43246         1.82343         7.94204
     2021.43520        -3.76864         7.85541
     2021.43794        -4.59271         7.97885
     2021.44068        -4.43378         8.14018
     2021.44341        -8.77684         8.07088
     2021.44615       -11.68791         7.92363
     2021.44889        -1.44898         8.02649
     2021.45163        -5.76605         8.18024
     2021.45436        -0.98012         8.09687
     2021.45710        -0.08719         8.07305
     2021.45984         0.14574         7.77421
     2021.46258        -1.71233         7.92146
     2021.46527        -8.80640         8.13260
     2021.46805         3.28853         7.76879
     2021.47079         2.01746         8.11744
     2021.47353        -4.75761         8.01025
     2021.47627        -6.51068         8.02108
     2021.47901        -9.17075         8.11095
     2021.48174       -13.48982         8.01891
     2021.48448        -6.40089         8.17266
     2021.48722        -8.97196         8.10770
     2021.48996        -1.55203         8.43794
     2021.49269        -1.78310         8.16075
     2021.49520       -11.01016         7.20359
     2021.49817        -4.80324         8.46176
     2021.50091        -7.71930         8.05789
     2021.50365       -12.83637         8.23979
     2021.50638       -12.84344         8.09795
     2021.50912        -9.40151         8.28419
     2021.51186        -9.06758         8.58953
     2021.51459        -5.61365         8.37406
     2021.51733        -3.01372         8.12827
     2021.52007         6.47921         8.35565
     2021.52281       -10.06986         8.13260
     2021.52555         0.34507         8.10012
     2021.52829        -2.97400         7.99293
     2021.53102         1.79093         8.19107
     2021.53376         0.35486         8.19215
     2021.53650        -9.83221         8.33616
     2021.53924         5.19772         8.63175
     2021.54198         2.40865         8.21489
     2021.54471        -4.16942         8.26578
     2021.54745        -2.64849         8.25495
     2021.55019        -0.26856         8.15750
     2021.55293        -2.96763         8.38597
     2021.55566        -4.54469         8.29826
     2021.55840        -7.85476         8.41845
     2021.56114        -0.06683         8.03840
     2021.56388         0.55210         7.89548
     2021.56605        -4.87396         6.13816
     2021.56878        -4.24403         6.15765
     2021.57152        -4.82010         6.18364
     2021.57426       -13.38817         6.13816
     2021.57700        -1.65524         6.64056
     2021.57974        -5.37931         6.02339
     2021.58247        -5.39638         6.15224
     2021.58521        -8.41344         6.21720
     2021.58795        -2.14451         6.25726
     2021.59069        -9.95258         6.20313
     2021.59342        -7.12165         6.14249
     2021.59616        -9.90172         6.34388
     2021.59890        -8.59179         6.33630
     2021.60164        -8.84586         6.29408
     2021.60438        -7.81193         6.10026
     2021.60711        -5.80600         6.19338
     2021.60985        -0.50907         6.18364
     2021.61259        -0.86414         6.07861
     2021.61533        -5.02021         6.10243
     2021.61807        -0.35028         6.12517
     2021.62080        -8.38435         6.11975
     2021.62354       -10.68742         6.15224
     2021.62628        -5.59149         6.23669
     2021.62902        -2.29156         6.06128
     2021.63175        -2.56263         6.25077
     2021.63449        -5.37570         6.29083
     2021.63723        -2.41077         6.43917
     2021.63997        -3.84684         6.36554
     2021.64271        -2.47990         6.19771
     2021.64544        -3.12197         6.08619
     2021.64818        -3.03104         6.08294
     2021.65092         0.79089         6.22911
     2021.65366        -0.36418         6.08944
     2021.65639        -6.71825         6.15548
     2021.65913         3.01968         6.06345
     2021.66187        -1.65639         6.02230
     2021.66461        -0.12646         6.05046
     2021.66735         3.21947         6.00281
     2021.67008        -0.09360         6.18905
     2021.67282         1.63633         6.34280
     2021.67556         5.17226         6.40127
     2021.67830        -3.90581         6.29299
     2021.68104        -0.84188         6.10135
     2021.68377        -1.23195         6.05370
     2021.68651         0.65598         6.19230
     2021.68925        -0.88709         6.03097
     2021.69199         0.42584         6.19338
     2021.69472        -1.22423         6.13816
     2021.69746        -0.10529         6.20854
     2021.70020         8.59164         6.15548
     2021.70294         2.89957         6.17930
     2021.70568         0.15350         6.35688
     2021.70841         6.50143         6.24644
     2021.71115         4.60236         6.25510
     2021.71389         9.29229         6.47273
     2021.71663        -4.93278         6.25618
     2021.71937        -3.25685         6.29408
     2021.72210        -5.65192         6.26051
     2021.72484        -6.14099         6.28000
     2021.72758        -3.57606         6.28000
     2021.73032        -3.91313         6.51279
     2021.73305         5.21680         6.13491
     2021.73579         6.90973         6.29841
     2021.73855        -6.67634         6.92533
     2021.74127         3.50459         6.44241
     2021.74401         0.22652         6.18688
     2021.74674        -2.14555         6.40885
     2021.74948        -4.72562         6.23236
     2021.75222        -1.03068         6.31898
     2021.75496        10.03225         6.48139
     2021.75706         3.88919         8.65557
     2021.76043         0.10211         6.44025
     2021.76317        -0.20496         6.19013
     2021.76591         1.46497         6.29516
     2021.76865        -0.14210         6.18905
     2021.77138         5.37783         6.25943
     2021.77412         3.14276         6.28433
     2021.77686        20.59969         6.32115
     2021.77960         5.99862         6.24319
     2021.78234         2.05955         6.24644
     2021.78507         3.11048         6.13924
     2021.78781         2.37341         6.17606
     2021.79055         1.38834         6.18905
     2021.79329         4.82427         6.25401
     2021.79603         5.45920         6.20637
     2021.79876         5.07813         6.19771
     2021.80150         2.18706         6.40019
     2021.80424         9.73899         6.58426
     2021.80698        -4.05508         6.25185
     2021.80971        -1.42814         6.14249
     2021.81245        11.69779         6.48573
     2021.81519         8.15372         6.09160
     2021.81793         8.62165         6.23019
     2021.82067        -2.83142         6.24102
     2021.82340         6.25651         6.39802
     2021.82614        -0.31156         6.30924
     2021.82888         1.87137         6.22370
     2021.83162        10.10730         6.32115
     2021.83436         7.62923         6.29083
     2021.83709         3.91716         6.23669
     2021.83983        -8.23891         6.32764
     2021.84257        -1.63998         6.52687
     2021.84531        -0.25505         6.24535
     2021.84804         8.14388         6.35796
     2021.85078        11.97181         6.26701
     2021.85352         8.09874         6.25293
     2021.85626         2.58767         6.18364
     2021.85900         7.76960         6.12841
     2021.86447        -4.44953         6.42942
     2021.86721        -2.17060         6.47057
     2021.86995         2.79533         6.59725
     2021.87269         4.57826         6.45757
     2021.87542        -1.83081         6.20637
     2021.87816         4.04712         6.16739
     2021.88090         3.79005         6.13708
     2021.88364        11.78698         6.39369
     2021.88637        -4.94009         6.31465
     2021.88911        -4.70916         6.11867
     2021.89185        -5.25223         6.16198
     2021.89459         5.32770         6.20313
     2021.89733         1.43063         6.16739
     2021.90006        -3.37844         6.24968
     2021.90280        -9.34951         6.15332
     2021.90554        -4.02658         6.17497
     2021.90828        -2.38565         6.42076
     2021.91102        -3.12672         6.14249
     2021.91375         2.42421         6.26268
     2021.91649        -0.62486         6.17497
     2021.91923        -8.48793         6.26809
     2021.92197        -2.77199         6.51713
     2021.92470        -3.41406         6.26917
     2021.92744         9.94587         6.24102
     2021.93018        -1.92520         6.41751
     2021.93292         1.62073         6.45433
     2021.93566         4.07566         6.42617
     2021.93839         6.22959         6.31465
     2021.94063        17.73353         8.16184
     2022.06539         1.30536        12.77006
     2022.06707        -4.00168         6.18147
     2022.06981         2.00725         6.18255
     2022.07255        -3.19682         6.10568
     2022.07529         1.22011         6.09918
     2022.07802         2.10104         6.11001
     2022.08076         5.40497         6.12950
     2022.08350        -0.04510         6.06237
     2022.08624         3.30683         6.09160
     2022.08898         3.65077         6.01256
     2022.09171        -7.93530         6.18472
     2022.09445        -2.04737         6.24860
     2022.09719        -5.68644         6.13708
     2022.09993        -1.17951         6.21828
     2022.10266        -9.68558         6.30599
     2022.10540        -4.00865         6.14357
     2022.10814         3.66128         6.13058
     2022.11088         2.04321         6.15224
     2022.11362         5.72114         6.10893
     2022.11635         7.17707         6.12517
     2022.11909        -1.14600         6.10135
     2022.12183         3.87493         6.21179
     2022.12457         1.59886         6.26376
     2022.12731        -0.97621         6.11542
     2022.13004        -7.25728         6.03746
     2022.13278        -4.14435         6.10459
     2022.13552        -2.13442         6.14682
     2022.13826         3.39851         6.20746
     2022.14099        -3.05256         6.13491
     2022.14373        -0.09062         6.10459
     2022.14647         5.12531         6.00823
     2022.14921         2.19724         6.34605
     2022.15195        -4.87583         6.30057
     2022.15468        -0.56990         6.05370
     2022.16016         8.51796         6.08944
     2022.16290        -3.67711         6.30924
     2022.16564        -3.87918         6.24968
     2022.16837        -1.41825         6.15657
     2022.17111        -2.97432         6.11542
     2022.17385        -2.25839         6.15440
     2022.17659        -1.70846         6.07969
     2022.17932        -7.83953         6.11542
     2022.18206        -9.91860         6.17064
     2022.18480        -7.63467         6.05262
     2022.18754        -2.21974         6.16090
     2022.19028        -3.21481         6.15224
     2022.19301         4.07212         6.11326
     2022.19575         2.48905         6.14790
     2022.19849        -2.44301         6.13166
     2022.20123        -1.96608         6.21828
     2022.20397         4.78185         6.20529
     2022.20670         1.43378         6.28217
     2022.20944         1.39871         6.20421
     2022.21218        -2.64236         6.18364
     2022.21492        -6.08743         6.07211
     2022.21765         1.60650         6.13816
     2022.22039        -3.32657         6.21828
     2022.22313        -6.45864         6.24644
     2022.22587        -6.89271         6.30382
     2022.22861        -4.24878         6.23777
     2022.23134         5.49315         6.11650
     2022.23408         5.03108         6.13275
     2022.23682        -2.04999         6.32764
     2022.23956        -2.50006         6.23236
     2022.24230        -0.83213         6.46407
     2022.24504         3.54780         7.14404
     2022.25325        -5.18341         6.97621
     2022.25598         5.74753         6.15981
     2022.25872         5.10646         6.15224
     2022.26146        -8.87061         6.08510
     2022.26420        -3.39268         6.17822
     2022.26694       -12.35675         6.35146
     2022.26967        -2.45782         6.19446
     2022.27241        -0.26089         6.08619
     2022.27515         1.17504         6.22586
     2022.27789         4.53797         6.12084
     2022.28062         2.29590         6.05695
     2022.28336         1.83983         6.18472
     2022.28610         2.92376         6.21828
     2022.28884        -2.15731         6.18039
     2022.29158        -5.73038         6.03963
     2022.29431        -5.56745         6.11867
     2022.29705        -3.14152         6.18039
     2022.29979        -0.36059         6.19663
     2022.30253         1.03034         6.18147
     2022.30527        -2.13773         6.21070
     2022.30800        -9.82280         6.17389
     2022.31074        -2.15086         6.18688
     2022.31348        -6.98093         6.12300
     2022.31622        -6.58800         6.15548
     2022.31895       -19.40707         6.29733
     2022.32169        -4.88514         6.24535
     2022.32443        -4.28921         6.10784
     2022.32717        -7.81828         6.05154
     2022.32991        -7.62335         6.02988
     2022.33264        -8.58642         6.32981
     2022.33538       -10.14749         6.41318
     2022.33812        -6.31756         6.45757
     2022.34086        -0.28763         6.25943
     2022.34360       -10.83170         6.11542
     2022.34633        -4.94577         6.12625
     2022.34907        -6.06184         6.11001
     2022.35181        -4.04291         6.06995
     2022.35455        -4.39898         6.12300
     2022.35728        -5.84005         6.03963
     2022.36002        -6.08612         6.16631
     2022.36276        -9.32119         6.10351
     2022.36550        -6.54125         6.19555
     2022.36824        -6.14732         6.16956
     2022.37097       -11.86639         6.23777
     2022.37371       -12.00946         6.02664
     2022.37645       -10.67653         6.16848
     2022.37919        -6.63060         6.27892
     2022.38193        -9.01467         6.23019
     2022.38466        -6.42674         6.10893
     2022.38740       -19.73781         6.12733
     2022.39014        -5.23788         6.04721
     2022.39288       -10.76295         6.10893
     2022.39561       -10.88302         6.23561
     2022.39835        -8.69109         6.09052
     2022.40109       -11.08516         6.34280
     2022.40383        -5.24523         6.07428
     2022.40657        -3.56330         6.07861
     2022.40930       -12.70637         6.26159
     2022.41204        -7.73044         6.23019
     2022.41478        -9.35451         6.10676
     2022.41752       -13.71758         6.29949
     2022.42026       -12.25265         6.34930
     2022.42299        -7.11871         6.03855
     2022.42573       -21.89478         6.43375
     2022.42847        -6.08885         6.17064
     2022.43121        -3.44292         6.22695
     2022.43394         6.37901         6.23128
     2022.43668        -9.60206         6.09160
     2022.43942        -9.71113         6.34821
     2022.44216        -5.75120         6.32981
     2022.44490         2.82373         6.35904
     2022.44763         2.60266         6.11217
     2022.45037        -6.80241         6.00281
     2022.45311        -9.17048         6.05046
     2022.45585        -5.84855         6.16090
     2022.45859       -18.53662         6.18039
     2022.46132        -8.96869         6.23453
     2022.46406        -9.26676         6.08619
     2022.46680        -8.03583         6.08294
     2022.46954        -7.79690         6.11867
     2022.47227       -24.36697         6.19663
     2022.47501        -7.81704         6.21612
     2022.47775        -6.94810         6.27242
     2022.48049        -7.50517         6.13924
     2022.48323         2.13076         6.14466
     2022.48596        -0.48531         6.16956
     2022.48870        -6.47938         6.28217
     2022.49144        -4.31645         6.28000
     2022.49418        -3.65752         6.29949
     2022.49692        -8.21459         6.13275
     2022.49965        -9.73166         6.15224
     2022.50239       -25.09873         6.28650
     2022.50513        -6.06380         6.48356
     2022.50787         2.56513         6.55502
     2022.51060        -6.31894         6.36013
     2022.51334       -12.19001         6.34713
     2022.51608        -8.86208         6.32981
     2022.51882       -16.49015         6.19663
     2022.52156       -14.50122         6.16306
     2022.52429        -5.34629         6.21504
     2022.52703        -9.53836         6.12733
     2022.52977        -0.62343         6.22586
     2022.53251       -17.41649         6.20204
     2022.53525        -6.67856         6.63515
     2022.53798        -7.87363         6.18688
     2022.54072       -10.09370         6.12950
     2022.54347       -10.17477         6.17389
     2022.54620       -15.79684         6.24319
     2022.54893        -9.91691         6.21720
     2022.55167        -9.02698         6.14466
     2022.55441        -8.16405         6.16198
     2022.55715        -5.90912         6.22911
     2022.55989       -15.67619         6.13491
     2022.56262       -18.05226         6.18472
     2022.56536       -23.07933         6.33197
     2022.56810       -15.20640         6.18688
     2022.57084       -19.63047         6.16956
     2022.57357        -9.07454         6.37528
     2022.57631       -21.22761         6.23128
     2022.57905       -24.55068         6.32764
     2022.58179        -2.84475         6.21395
     2022.58453        -4.74882         6.40885
     2022.58726       -14.89089         6.20962
     2022.59000       -11.24795         6.36879
     2022.59274        -8.82702         6.12192
     2022.59548        -7.31509         6.29408
     2022.59822       -16.50316         6.14790
     2022.60095       -14.72923         6.24102
     2022.60369        -5.35230         6.21720
     2022.60643        -8.47637         6.29408
     2022.60917         1.93156         6.39044
     2022.61190         2.86349         6.48464
     2022.61464         0.68142         6.35471
     2022.61738         1.95135         6.10351
     2022.62012        -7.58272         6.11975
     2022.62286        -1.40379         6.14574
     2022.62559        12.63614         6.12084
     2022.62833         4.41807         6.15873
     2022.63107        11.83100         6.18472
     2022.63381        17.44393         6.10135
     2022.63655        14.90586         6.13816
     2022.63928        10.96079         6.19338
     2022.64202         2.71072         6.74342
     2022.64476        12.26566         6.66871
     2022.64750        13.27359         6.34497
     2022.65023        19.81852         6.31573
     2022.65297        16.08945         6.30382
     2022.65571        13.90438         6.30166
     2022.65845        14.41631         6.19121
     2022.66119        10.02424         6.04613
     2022.66392        15.23017         6.44999
     2022.66666        10.32010         6.28866
     2022.66940        13.49303         6.11650
     2022.67214        14.24896         6.05804
     2022.67488        10.86889         6.24968
     2022.67761        18.28982         6.20096
     2022.68035        16.51775         6.11975
     2022.68309        20.07468         6.17714
     2022.68583        11.06961         6.48031
     2022.68856        15.91554         6.23777
     2022.69130         7.14047         6.16306
     2022.69404        20.75040         6.30599
     2022.69678        24.73633         6.32439
     2022.69952         3.75326         6.20204
     2022.70225        13.60820         6.25618
     2022.70499        15.21813         6.20529
     2022.70773        14.26306         6.19446
     2022.71047        11.82799         6.11759
     2022.71321        17.70592         6.11542
     2022.71868        16.09278         6.04071
     2022.72142        20.73071         6.13708
     2022.72416        15.72864         6.26484
     2022.72689        16.55957         6.19338
     2022.72963        14.58150         6.13708
     2022.73238        11.65643         6.20962
     2022.73511        11.20536         6.09268
     2022.73785        16.37329         6.09810
     2022.74058        19.22222         6.52146
     2022.74332        26.27215         6.44783
     2022.74606        19.49708         6.20204
     2022.74880        11.32901         6.03638
