# ================= DQRFIT RESULTS ================
# INPUT FILE: series/HALF.rad
# OUTPUT: LDETRENDED
# FILTER FUNCTION: f(t)
# f(t)=+line(t)+annual(t)
# line(t)=+P 1+P 2*t
# annual(t)=+P 3*sin(2*pi*t+P 4)
# heav(t)=(t<0?0:1)
# TOTAL OBSERVATIONS MTOT= 3660
# INITIAL TIME INTERVAL= 2022.7488 - 2011.9179 = 10.8309
# TOTAL OBSERVATIONS AFTER PREFILTER M= 3642
# TIME-SPAN= 2022.7488 - 2011.9179 = 10.8309
# OBSERVATIONS: USED M=  3642 REJECTED MTOT-M=    18 %USED=   99.5082
# N=  4 PARAMETERS
# MAXSIG= 175.00000
# MAXRES=  48.32242
# SCALE FACTOR FOR LENGTHS: SCL=  10.00000
# SCALE FACTOR FOR SIGMAS: SCLSIG=   1.00000
# CHI^2=   2922.705 DOF=  3638 CHI^2/DOF=   0.80338
# RMS=      5.364 SDEV=      5.365 MEAN=    0.01336
#  P #       PARAMETER +-    SIGMA %error PARAMETER NAME
# P 1 =      2451.29492 +-   56.593   2.31 YZERO                              
# P 2 =        -1.21603 +-    0.028   2.31 SLOPE                              
# P 3 =         4.90749 +-    0.120   2.45 ANNUAL AMPLITUDE                   
# P 4 =        -2.96190 +-    0.034   1.15 ANNUAL PHASE                       
#       T            LDETRENDED       SIG_OBS
     2011.91786        -0.45192         5.16637
     2011.92060        -4.36959         5.07315
     2011.92613        -8.83586         5.18698
     2011.92881        -5.44660         5.71043
     2011.93155        -4.00827         5.31336
     2011.93702        -1.07562         5.06329
     2011.93976        -2.16529         5.04088
     2011.94250         0.88304         5.02564
     2011.94524         1.05337         5.05881
     2011.94786         3.61356         5.36714
     2011.95077         1.59010         5.40479
     2012.02863         3.53578        17.38226
     2012.03279        -5.62216         5.90851
     2012.04426         4.80178        12.92936
     2012.04665        13.86869        12.28043
     2012.05190        -0.31392         5.55088
     2012.05475        10.81954         4.95573
     2012.05646         7.34562        10.12479
     2012.06023         6.50720         5.54103
     2012.06297         1.08153         6.55028
     2012.06570        -6.36014         7.82753
     2012.07118        -4.51648         4.86341
     2012.07329        -5.44091         6.68741
     2012.07666        -5.25682         4.86072
     2012.07939         4.46051         5.04267
     2012.08207         1.29777         4.86879
     2012.08413        -6.71774        17.17610
     2012.08738        -6.01378         8.00679
     2012.08983        -9.54180         8.88339
     2012.09308        -3.75485         4.83025
     2012.09519        -4.82328         6.97423
     2012.10506        -2.65428         9.92670
     2012.10660        -6.07041         5.28558
     2012.10951        -0.81187         4.91719
     2012.11225        -0.16854         4.99427
     2012.11498        -2.97121         4.89657
     2012.11772         2.44212         4.87327
     2012.12046         5.13645         4.95483
     2012.12257        13.97501         7.03518
     2012.12594        -3.23489         4.89299
     2012.12867        -2.41057         4.92526
     2012.13141        -4.77124         4.97186
     2012.13415         2.56009         5.06329
     2012.13689        -2.70858         4.94408
     2012.13963        -1.17825         5.12782
     2012.14214        -3.57420         7.20369
     2012.14784        -2.05926         4.85803
     2012.15058         0.29007         4.83562
     2012.15331        -3.31860         4.81501
     2012.15594        -3.56941         5.19594
     2012.15794        -7.34398         7.72893
     2012.16136       -15.00482        11.70947
     2012.16432        -2.62821         5.00144
     2012.16660        -7.43144         6.16217
     2012.16974        -3.30263         5.02027
     2012.17248        -5.51830         4.82308
     2012.17522        -4.29697         5.02475
     2012.17790         1.16129         5.03102
     2012.18001       -11.09814        10.78178
     2012.18617       -12.86765         4.84011
     2012.18891        -5.07032         4.91540
     2012.19164        11.39601         6.24194
     2012.19438        -2.70666         4.98800
     2012.19706         9.00260         4.99427
     2012.19946        -3.67749         7.74686
     2012.20533         0.49266         5.21835
     2012.20807         3.03998         4.86610
     2012.21081         2.68131         4.82756
     2012.21338         0.13543         5.22731
     2012.22193         9.80884         7.40357
     2012.22604        -4.70017        12.72231
     2012.23380         0.31127        13.49314
     2012.23545        -5.48672         5.94975
     2012.23739        -4.50936         7.66619
     2012.24361       -10.27280         5.51145
     2012.24640        -2.72341         4.94229
     2012.24834        -2.38705         7.91895
     2012.25131       -11.58944         8.90938
     2012.25536       -10.30252         7.41522
     2012.25735        -6.86809         4.86162
     2012.26300        -4.57222         5.56881
     2012.26557        -8.68810         4.88582
     2012.26830        -8.70777         7.43404
     2012.27104        -6.15444         4.95752
     2012.27372        -4.26118         5.01220
     2012.27578        -7.28668         7.55325
     2012.28102       -11.53830         9.65691
     2012.28382        -5.98991         8.79913
     2012.28787         0.50902         5.70595
     2012.29021        -8.27714         4.83652
     2012.29192       -11.41406        12.09310
     2012.29528       -10.94596         8.47556
     2012.30116        -8.11582         4.87596
     2012.30390       -15.23249         4.92257
     2012.30663       -12.86716         4.85714
     2012.30937        -4.50183         4.98083
     2012.31211        -1.44750         5.12424
     2012.31394         4.68872         9.42566
     2012.32032        -6.11051         4.91988
     2012.32306        -8.22419         4.81680
     2012.32580        -8.17486         4.83204
     2012.32854         1.17347         5.01220
     2012.33128        -0.03920         5.05970
     2012.33333        -5.83470         9.48213
     2012.33909        -7.54169         6.30738
     2012.34223       -11.44188         5.03192
     2012.34690       -21.08319         8.47287
     2012.35329         3.15558        10.80419
     2012.35529        -8.09300        15.81101
     2012.35865        -8.28490         6.59868
     2012.36031       -14.09589        11.57413
     2012.36436        -8.62597         5.48366
     2012.36687       -10.36592         4.84280
     2012.36961        -6.46559         4.90374
     2012.37120       -20.69865        13.17584
     2012.37782        -3.81260         5.00144
     2012.38056       -10.20627         4.93153
     2012.38329        -5.83094         4.92615
     2012.38603        -5.95261         4.96738
     2012.38877        -9.19328         5.10004
     2012.39118        -4.26836         6.77884
     2012.39782         0.63372         7.73700
     2012.39972        -7.51396         4.84369
     2012.40246        -2.40864         4.87596
     2012.40520       -10.10131         4.83742
     2012.40794        -7.29598         4.97097
     2012.40987         3.69638        11.07847
     2012.41615        -3.05999         4.87865
     2012.41889         8.52934         5.08211
     2012.42157        -7.93640         5.82426
     2012.42436         0.37900         4.92346
     2012.42704        -5.74574         4.97455
     2012.42910        -8.40424        10.89831
     2012.43491       -10.39717         6.33068
     2012.44443        -3.93760         9.11553
     2012.44552        -5.47227         8.15199
     2012.44786       -12.42042        14.76949
     2012.45448        -5.38538         5.91210
     2012.45722        -6.27505         4.87686
     2012.45995         0.69928         4.97007
     2012.46269         4.96261         5.20939
     2012.46543        -5.77306         4.91181
     2012.46811        -5.26880         5.38686
     2012.47364       -10.14407         5.07673
     2012.47638         1.16326         5.01130
     2012.47912        -0.64542         4.94587
     2012.49384        19.07248         9.48482
     2012.49555        -0.56844         4.87327
     2012.49828        -4.55711         4.88851
     2012.50102         3.81822         4.86610
     2012.50376        -0.03845         4.99069
     2012.50587       -14.67089         9.00887
     2012.51197         6.21954         5.11348
     2012.51471        -1.13313         4.99607
     2012.51745        -6.17681         4.94856
     2012.52019        -7.88448         4.93422
     2012.52292         6.32985         5.79916
     2012.52458         7.28086        12.97238
     2012.53114        -2.34016         4.94856
     2012.53388        -1.86283         4.89209
     2012.53661         6.71350         5.57688
     2012.53941         7.53790         5.36087
     2012.54209         7.70216         5.20939
     2012.54386         1.74331        10.24131
     2012.55030         7.37915         5.27661
     2012.55304        -1.39652         4.94229
     2012.55578         2.68580         4.83921
     2012.55846        -1.46094         5.01310
     2012.56114         2.44832         6.63274
     2012.56302         0.55661         9.10299
     2012.57043         4.69762         9.40504
     2012.57221         0.81178         4.90195
     2012.57494        -0.69989         4.85714
     2012.57768        -1.88056         4.90016
     2012.57985         3.64408         6.38535
     2012.58684        17.39958        13.52003
     2012.58852         7.88262         4.99607
     2012.59137        -1.92191         6.13708
     2012.59411         1.72442         4.85714
     2012.59685         8.51474         5.19415
     2012.59958         5.23507         4.86341
     2012.60147         1.02936        11.73905
     2012.61362         2.52414         9.12002
     2012.61584         8.19884         9.15228
     2012.62023        28.96418        25.13091
     2012.81611        -2.82563         5.59391
     2012.81861        -4.78758         5.06150
     2012.82135        -2.79825         4.96021
     2012.82409        -3.06392         4.99069
     2012.82683         1.84341         4.97276
     2012.82956        -6.19027         4.97814
     2012.83230        -3.96194         5.10183
     2012.83504         4.75239         4.99248
     2012.83778         1.09272         4.90912
     2012.84052        -1.82895         4.92974
     2012.84251         3.36548         7.13199
     2012.85968         2.91736         4.94408
     2012.86242        -2.05831         4.94946
     2012.86516         0.07702         4.98800
     2012.86789        -8.25466         5.12962
     2012.87063        -2.34833         4.93243
     2012.87337        -4.61900         4.98083
     2012.87611         2.17533         4.92167
     2012.87885         5.71466         5.17174
     2012.88158         7.70699         4.90554
     2012.88432         7.66932         4.88492
     2012.88706         9.31965         5.68175
     2012.88900         2.29401         7.87503
     2012.89282         0.51766         5.42271
     2012.89527        -2.49536         4.88134
     2012.89801         0.41297         4.89030
     2012.90075         2.08830         4.88044
     2012.90349        -3.08937         5.77765
     2012.90622        -3.84705         4.84280
     2012.90896         2.82128         4.88492
     2012.91170        -0.28639         4.91092
     2012.91444         5.67794         5.11707
     2012.91718         3.81727         4.87327
     2012.91991         8.22660         4.95752
     2012.92265         2.84293         5.11438
     2012.92539         4.36726         4.83742
     2012.92813         5.38059         4.91271
     2012.93075         6.48078         5.23000
     2012.93360         0.30625         4.98531
     2012.93554        -6.32839         8.57416
     2012.93971        -3.26733         6.66052
     2012.94182        -4.43476         4.85265
     2012.94455         2.79656         5.15202
     2012.94695         2.47448         6.13349
     2012.95003         6.34222         4.87506
     2012.95265         7.55141         5.16816
     2012.95551        12.59188         4.86162
     2012.95824        11.54421         4.83294
     2012.96098         6.67454         5.17712
     2012.96372         8.56087         4.87775
     2012.96646         6.88520         4.83473
     2012.96919         2.55753         5.12872
     2012.97193         1.88786         4.92077
     2012.97467        -1.93681         4.82666
     2012.97741         1.23852         4.81591
     2012.98015         2.13485         4.78812
     2012.98288         3.44518         4.98083
     2012.98459         4.84026        10.03336
     2013.01848        -5.53454         4.83831
     2013.02047        -9.36212         6.89088
     2013.02338       -22.88158         6.33247
     2013.02669        -9.46456         5.01937
     2013.02851         7.15566         8.18605
     2013.03216        -3.73390         4.84459
     2013.03490        -9.15057         4.86072
     2013.03673       -10.99435         8.32498
     2013.04038       -12.84191         4.86162
     2013.04272       -18.41507         5.97126
     2013.04585       -10.70425         4.97007
     2013.04859       -10.03892         4.96649
     2013.05133       -13.82459         5.04267
     2013.05407       -10.88426         4.90285
     2013.05681        -6.55493         4.92257
     2013.05954        -7.93460         4.97366
     2013.06143       -15.07332         8.07939
     2013.06502        -9.60995         4.98531
     2013.06776        -1.09262         4.94408
     2013.07049        -0.10129         4.94049
     2013.07323         1.29704         4.89926
     2013.07597         1.19037         4.89209
     2013.07871         1.67470         5.20222
     2013.08145        -1.53197         4.99607
     2013.08418        -3.25764         4.83473
     2013.08692        -3.84031         4.88851
     2013.08966        -7.78498         4.90016
     2013.09240        -1.64965         4.90733
     2013.09514         0.29368         4.90912
     2013.09787         4.17701         5.08570
     2013.10061        -4.57667         5.49262
     2013.10335        -3.88434         4.89926
     2013.10609        -2.99201         4.90733
     2013.10882        -4.81468         4.87686
     2013.11156        -6.70235         4.94229
     2013.11430        -3.43802         4.86341
     2013.11704        -6.82969         4.92167
     2013.11978        -3.60036         5.03192
     2013.12251        -5.61603         4.88313
     2013.12525       -13.33370         5.02385
     2013.12799        -4.90637         4.83742
     2013.13073        -0.07404         4.88492
     2013.13347        -2.57571         4.88492
     2013.13620        -1.94038         4.87775
     2013.13894        -2.17906         4.87954
     2013.14168        -1.39473         4.88761
     2013.14442         0.94460         4.98889
     2013.14715        -4.16707         5.02564
     2013.14989        -5.39374         4.86968
     2013.15263        -8.07541         4.88134
     2013.15537       -12.22808         4.86700
     2013.15811        -7.15275         4.88313
     2013.16084       -11.67842         4.86341
     2013.16358       -10.17909         4.93780
     2013.16632        -8.82776         4.91360
     2013.16906        -8.20043         5.02744
     2013.17180        -2.83010         4.88223
     2013.17453        -3.09377         4.91988
     2013.17727        -4.10144         5.00682
     2013.18001        -7.75312         5.03192
     2013.18275        -4.12179         4.90285
     2013.18548        -6.80246         5.10362
     2013.18822       -10.40813         4.87686
     2013.19096        -7.91980         4.96559
     2013.19370        -4.61147         4.93691
     2013.19644        -9.12814         5.22642
     2013.19917        -8.37581         4.91988
     2013.20191        -6.53748         4.92615
     2013.20465        -1.18915         4.95394
     2013.20739        -4.96182         5.69967
     2013.21013         3.39851         4.92526
     2013.21286        -2.94116         4.89209
     2013.21560        -9.84383         5.15740
     2013.21834         1.79849         5.09287
     2013.22108        -1.94418         4.92795
     2013.22381        -2.54585         4.88044
     2013.22655        -7.44152         4.91360
     2013.22929        -6.89619         4.92257
     2013.23203        -3.16586         4.87596
     2013.23477        -4.24553         5.20043
     2013.23750        -4.67220         5.01310
     2013.24024        -8.03687         5.04088
     2013.24298        -8.81554         5.02475
     2013.24572        -4.32221         5.05164
     2013.24846         0.70012         5.07404
     2013.25119        -2.34555         5.02027
     2013.25356        -4.23668         5.82426
     2013.25759        -1.66277        10.29329
     2013.25941         2.85343         5.04267
     2013.26214        -0.00824         5.04357
     2013.26488         0.29009         5.08211
     2013.26762         3.38942         5.04357
     2013.27036        -6.69225         5.07763
     2013.27310         0.90408         5.80454
     2013.27583        -2.26659         5.25779
     2013.27857        -0.55326         5.07673
     2013.28131         1.23107         5.09287
     2013.28405         5.80540         5.00503
     2013.28679         0.65973         5.03909
     2013.28952        -0.47394         5.07763
     2013.29163        -4.94438         6.91508
     2013.29583        -4.44927         7.92971
     2013.29774        -1.86696         5.23269
     2013.30047        -2.29863         5.03730
     2013.30316        -8.41737         5.60735
     2013.30595        -5.24797         5.08928
     2013.30869        -6.50164         5.29992
     2013.31143        -7.48731         5.30619
     2013.31416        -0.82998         5.01310
     2013.31690        -3.01065         5.01310
     2013.31964        -2.74332         5.02654
     2013.32238        -1.21399         5.07763
     2013.32500        -6.23580         5.33308
     2013.32873         5.93374         8.45316
     2013.33059        -4.07800         5.34115
     2013.33333        -8.19968         5.00055
     2013.33607        -9.24235         5.00951
     2013.33880         1.05698         4.97366
     2013.34154        -1.82069         4.93332
     2013.34428        -6.41136         5.00234
     2013.34702         3.42997         4.99875
     2013.34976         0.35530         5.28468
     2013.35249        -6.90337         5.09645
     2013.35523        -5.90604         5.16368
     2013.35797        -3.32471         4.95842
     2013.36071         1.25662         5.04178
     2013.36344         3.49295         5.06060
     2013.36618        -2.52872         5.06239
     2013.36875         0.51940         5.46573
     2013.37166         1.74194         4.98710
     2013.37440        -3.08774         4.97545
     2013.37713        -2.39241         4.95483
     2013.37987        -7.09808         5.00682
     2013.38261       -11.75375         4.94856
     2013.38535        -0.06842         5.06777
     2013.38803        -2.55216         5.21566
     2013.39082        -0.20676         5.02295
     2013.39356        -2.58143         4.95752
     2013.39632         0.70093         5.02923
     2013.39904         4.57923         4.96290
     2013.40177        -3.08744         4.96649
     2013.40451        -3.02311         4.94498
     2013.40719         6.84815         5.54103
     2013.40999        -0.85445         4.98710
     2013.41273        -5.73713         4.92705
     2013.41546         1.18420         5.05791
     2013.41820        -3.25647         5.17085
     2013.42094         4.00986         5.00682
     2013.42368        -2.18281         5.00413
     2013.42642        -3.04348         5.34384
     2013.42915         1.28385         4.96380
     2013.43189        -5.10982         5.02833
     2013.43463        -2.00849         5.16816
     2013.43737         0.54584         4.98352
     2013.44010         0.32117         5.01220
     2013.44284         0.56650         4.98800
     2013.44558         3.03383         5.05522
     2013.44832         1.40316         5.02564
     2013.45106        -3.60052         5.06329
     2013.45379        -1.55519         4.93601
     2013.45653        -3.03486         4.96021
     2013.45927         1.73147         5.00682
     2013.46201        -0.09820         5.06867
     2013.46446         2.40178         5.78751
     2013.46830        -1.00855         7.34531
     2013.47022        -1.50021         4.96559
     2013.47296        -2.06788         4.79171
     2013.47570        -0.37755         4.89747
     2013.47843        -0.98122         5.02833
     2013.48117        -0.03389         4.90195
     2013.48391         5.99644         4.98262
     2013.48665        -7.41523         4.90016
     2013.48939        -0.95691         4.88582
     2013.49212         3.14842         5.04895
     2013.49486         2.78175         5.00951
     2013.49760        14.13508         5.01041
     2013.50034         1.07241         4.93332
     2013.50308         0.73874         5.42719
     2013.50581        10.44907         5.03998
     2013.50855         5.44640         4.99427
     2013.51129         3.96573         4.98352
     2013.51403         5.64406         4.87327
     2013.51676         6.13839         4.93691
     2013.51950        -1.07028         4.78633
     2013.52224         8.37005         5.13858
     2013.52498         4.89938         5.01041
     2013.52772         7.16470         4.84817
     2013.53045         0.52903         4.88044
     2013.53319        -0.43864         4.91450
     2013.53593         3.54669         5.31336
     2013.53867         4.73002         4.91540
     2013.54141         0.49735         5.21566
     2013.54414         0.29668         4.98621
     2013.54688         3.02901         4.91002
     2013.54962         2.75234         4.89209
     2013.55236         4.17267         4.86610
     2013.55509         4.33900         4.86879
     2013.55675        14.57301        12.00795
     2013.57529        17.73955        10.44029
     2013.57700         4.74663         4.88492
     2013.57974        -0.43004         5.47470
     2013.58247         8.22129         5.15740
     2013.58521         3.29062         4.89568
     2013.58795         2.56795         4.85355
     2013.59069         5.39928         4.87058
     2013.59342         2.18561         4.83831
     2013.59616         4.49194         4.92884
     2013.59890         7.18827         4.87148
     2013.60164         7.99360         4.98352
     2013.60438         2.41993         4.89389
     2013.60711         0.95825         4.90106
     2013.60985         8.62858         4.93960
     2013.61259         7.16191         4.89299
     2013.61533        11.73924         5.09287
     2013.61807         2.88257         5.23807
     2013.62080         4.56490         4.87058
     2013.62263         6.14812         8.18247
     2013.63518         8.45738         7.05221
     2013.63723         7.13388         5.38596
     2013.63997        10.11421         5.44781
     2013.64271        10.87954         5.01399
     2013.64544        14.46386         5.06508
     2013.64818        11.63919         4.89568
     2013.65092         7.67452         4.88582
     2013.65366         2.04685         4.82666
     2013.65634        17.16611         5.72387
     2013.65913        15.58151         5.37969
     2013.66187         4.44484         4.87327
     2013.66461         8.76517         5.63603
     2013.66735         7.17250         4.90912
     2013.66997        13.97869         5.54730
     2013.67282        14.21516         5.71581
     2013.67493        19.10572         6.97782
     2013.67800        20.16045         5.91658
     2013.68109        10.04121         5.52937
     2013.68377         5.11747         4.79798
     2013.68651         6.11080         4.86879
     2013.68925         5.01413         4.89478
     2013.69199         5.11846         4.88761
     2013.69472         6.56979         4.85086
     2013.69746         3.29312         4.83921
     2013.70020         8.58945         4.93691
     2013.70294         9.80278         4.97007
     2013.70568        15.14811         4.97993
     2013.70841        12.75044         5.09197
     2013.71115         1.19477         4.88223
     2013.71389         8.11610         4.85265
     2013.71663         3.43543         4.84280
     2013.71937         5.69676         4.86341
     2013.72210        19.91408         4.88671
     2013.72484        14.03941         4.82577
     2013.72758         2.18974         4.84100
     2013.73032        14.45507         4.86789
     2013.73288        12.27419         5.07853
     2013.73681         9.41696        11.24428
     2013.73853        10.32606         4.83921
     2013.74127        11.49839         4.88403
     2013.74401        10.21672         6.36564
     2013.74657        10.37584         5.47739
     2013.74948        -1.13862         4.99158
     2013.75222         2.30571         4.87954
     2013.75496         0.14304         4.81322
     2013.75773        -1.00359         4.93691
     2013.76043        -2.98330         4.88492
     2013.76317         1.89202         4.88044
     2013.76591         7.22135         4.86789
     2013.76865         4.78968         4.87954
     2013.77138         5.60501         4.80874
     2013.77412         6.53934         4.89568
     2013.77686         6.95267         4.88940
     2013.77960         5.11300         4.88134
     2013.78234         0.23633         4.88403
     2013.78507         0.89166         4.86072
     2013.78758        -3.53429         5.25869
     2013.79414         3.61369         8.54368
     2013.79603         2.18698         4.85445
     2013.79876         3.69731         4.82487
     2013.80150         2.90763         4.91898
     2013.80424         2.20196         4.97366
     2013.80698         1.82529         4.81232
     2013.80971         4.85362         4.83921
     2013.81245         7.42395         4.81859
     2013.81519         3.86328         4.83831
     2013.81793         1.12661         4.85714
     2013.82055         3.68480         5.64321
     2013.82340        10.30727        11.52752
     2013.82643         3.38295         7.38564
     2013.82888        10.05293         4.86968
     2013.83162         4.12426         4.90733
     2013.83436         3.07259         4.98979
     2013.83709         0.96592         5.00951
     2013.83983         4.23124         4.96201
     2013.84245         9.21444         5.93003
     2013.84536        -0.25303         5.29633
     2013.84804        -0.29177         4.84459
     2013.85078        -0.76444         4.84190
     2013.85352        -2.11811         4.96649
     2013.85626         3.78922         4.85176
     2013.85900         0.05455         4.84997
     2013.86105         6.98505         6.69190
     2013.86447        -3.58479         4.80963
     2013.86721         1.34554         4.82397
     2013.86995         2.32387         4.80425
     2013.87269         8.26820         4.87506
     2013.87542         4.87953         4.85355
     2013.87816         0.51785         4.82397
     2013.88090         7.08118         4.94946
     2013.88364         9.36251         5.09018
     2013.88637         8.42884         4.88492
     2013.88911        -0.40583         4.86879
     2013.89185        -5.57750         4.83562
     2013.89459        -4.68617         4.83562
     2013.89733         0.34816         4.86251
     2013.90006         0.75849         4.87775
     2013.90280        -4.29918         4.91002
     2013.90525        -2.90920         5.70953
     2013.90828         5.08148         4.83114
     2013.91102        -1.10719         4.83652
     2013.91364        -1.82400         5.15382
     2013.91649         3.00546         4.82577
     2013.91923         5.57579         4.91988
     2013.92197         6.12212         4.94318
     2013.92470         5.47045         4.84638
     2013.92744         3.20878         4.97186
     2013.93018         4.32011         4.78364
     2013.93292         1.95844         4.80156
     2013.93566         1.63277         4.82756
     2013.93839         3.84210         4.85534
     2013.94113         1.31543         4.84100
     2013.94387         1.40276         4.81591
     2013.94661         1.17209         4.85893
     2013.94935         0.17342         4.79350
     2013.95208         1.61875         4.81680
     2013.95482         1.58008         4.84369
     2013.95756        -1.10160         4.83204
     2013.96030        -0.99527         4.77826
     2013.96303         2.78306         4.81680
     2013.96577         2.40539         4.82935
     2013.96851         4.48572         4.86162
     2013.97125         4.83705         4.82756
     2013.97399        -3.50162         4.82577
     2013.97672        -0.35829         4.81232
     2013.97946        -0.90596         4.81680
     2013.98220        -2.90463         4.94946
     2013.98494        -5.19630         4.80246
     2013.98767        -6.62997         4.82577
     2013.99041        -8.38464         4.88940
     2013.99315        -7.57431         4.85803
     2013.99589        -4.18099         4.88492
     2013.99863        -9.73766         4.87686
     2014.00410        -3.86300         4.84459
     2014.00684        -0.41067         4.91450
     2014.00958        -4.02334         4.84100
     2014.01232        -5.86201         4.94229
     2014.01505        -7.76568         4.94498
     2014.01779        -2.35235         4.91450
     2014.02053        -6.21402         4.89478
     2014.02327        -3.03069         5.03281
     2014.02600         0.22764         5.00234
     2014.02874         7.70097         4.88671
     2014.03148         4.50430         4.85983
     2014.03422        -4.34538         4.83921
     2014.03696        -1.33705         4.86968
     2014.03969        -0.49172         4.85445
     2014.04243        -1.93039         5.23717
     2014.04517         0.17094         4.96021
     2014.04791        -3.00073         4.82845
     2014.05065        -2.94940         4.81859
     2014.05338        -6.42407         4.80963
     2014.05612        -8.25374         4.80963
     2014.05886        -9.02941         4.83742
     2014.06160        -4.02108         4.79977
     2014.06433        -2.95675         4.97186
     2014.06707        -2.02642         4.96649
     2014.06981         0.69091         4.86968
     2014.07255         0.06823         4.84100
     2014.07529        -1.81444         4.83831
     2014.07802       -12.61811         4.83742
     2014.08076       -11.49078         5.51145
     2014.08310         1.38607         5.67906
     2014.09794         3.58212        10.96015
     2014.09993         2.32053         4.81859
     2014.10272        -4.38207         5.22373
     2014.10546        -2.50374         4.93960
     2014.10814        -6.25548         4.83204
     2014.11088         2.40584         5.24434
     2014.11362         0.76517         4.85086
     2014.11635        12.80750         4.84190
     2014.11909         1.93583         4.87506
     2014.12183        -5.72584         4.89030
     2014.12457         4.53049         4.93153
     2014.12731         7.26682         4.83652
     2014.13004         2.53815         4.97366
     2014.13278         3.14348         4.99517
     2014.13552         1.29581         4.96738
     2014.13826        -1.00986         4.83831
     2014.14099         0.11347         4.85445
     2014.14373        -0.05020         4.89209
     2014.14647        -1.72987         4.92436
     2014.14921        -1.12554         4.90823
     2014.15195        -1.68422         4.87596
     2014.15468         1.59311         4.94408
     2014.15742         1.87444         4.96559
     2014.16016         8.61277         5.13768
     2014.16290         0.67010         4.99875
     2014.16564        -3.07257         5.04626
     2014.16837        -6.16224         5.05253
     2014.17111        -2.62391         5.08570
     2014.17385        -0.10558         5.11438
     2014.17659         2.48275         5.03998
     2014.17932         7.38708         5.17712
     2014.18206        -1.37759         4.98172
     2014.18480         1.04374         4.97993
     2014.18754        -0.10693         4.90195
     2014.19028        -3.72161         4.97007
     2014.19301        -2.46128         4.92974
     2014.19575        -0.84895         4.91092
     2014.19849        -0.30162         4.94498
     2014.20123        -5.10829         4.95215
     2014.20397        -6.23996         4.91629
     2014.20670        -4.30163         5.19953
     2014.20944         0.80370         4.95394
     2014.21218        -0.84297         4.91898
     2014.21492        -5.36764         5.08839
     2014.21765         0.98669         4.93153
     2014.22039        -2.55598         4.93512
     2014.22313        -7.90565         4.96918
     2014.22587        -0.13832         4.92884
     2014.22861        -0.27500         5.09556
     2014.23134         2.10733         5.02027
     2014.23408         0.61566         4.98083
     2014.23682        -4.94301         4.95752
     2014.23956        -4.61568         5.02295
     2014.24230        -3.28135         4.96111
     2014.24503        -5.48502         4.89299
     2014.24777         1.34131         5.19415
     2014.25051        -5.63136         4.89657
     2014.25325        -1.54803         4.92884
     2014.25598        -3.52370         5.04984
     2014.25872        -0.40437         4.99696
     2014.26146        -2.87504         5.08839
     2014.26420        -8.35071         4.91271
     2014.26694        -8.30839         4.90464
     2014.26967        -4.49006         5.15023
     2014.27241        -4.25173         5.03550
     2014.27515        -3.55240         5.05970
     2014.27789        -0.76507         4.97366
     2014.28062        -0.53974         4.93422
     2014.28336        -3.80041         4.92167
     2014.28610        -3.05208         5.01130
     2014.28884        -1.37575         5.05701
     2014.29158        -4.81442         4.90643
     2014.29431        -5.84509         4.98441
     2014.29705        -0.06176         4.90733
     2014.29979        -9.26443         4.94139
     2014.30253        -4.30410         4.91898
     2014.30527        -2.13078         4.94408
     2014.30800        -3.40045         4.95842
     2014.31074        -1.75812         4.98710
     2014.31348        -1.05879         4.92795
     2014.31622         1.92354         4.89389
     2014.31895        -1.91613         4.92615
     2014.32169        -7.60780         5.08749
     2014.32443       -13.52347         5.02385
     2014.32717       -12.03614         5.07673
     2014.32991        -6.93181         4.91092
     2014.33264        -5.43648         4.95215
     2014.33538        -5.77415         4.93512
     2014.33812        -3.43582         4.97724
     2014.34086         5.13251         4.93601
     2014.34360        -1.41116         4.94587
     2014.34633        -2.46184         4.95842
     2014.34907        -2.92251         5.14306
     2014.35187        -8.90511         5.19594
     2014.35455         2.70615         4.88940
     2014.35728        -5.99652         4.92884
     2014.36002       -16.89219         4.94587
     2014.36276       -14.50086         4.92167
     2014.36550        -5.77053         5.16637
     2014.36824        -7.63920         4.94856
     2014.37097        -1.00887         5.10004
     2014.37371        -1.37854         4.99786
     2014.37645        -1.04521         5.02385
     2014.37919        -2.14488         4.98441
     2014.38193        -6.19655         4.96828
     2014.38466        -7.59723         5.02295
     2014.38740        -6.84090         5.04447
     2014.39014        -3.67257         5.08032
     2014.39288        -2.38624         5.04357
     2014.39561         0.17309         5.03998
     2014.39835        -3.96058         5.03461
     2014.40109        -6.86525         5.02295
     2014.40383        -1.16792         5.03640
     2014.40657       -12.73859         5.04178
     2014.40930        -5.49026         4.97186
     2014.41204        -1.37993         4.96021
     2014.41478        -4.04360         4.95483
     2014.41752         1.61973         4.92974
     2014.42026         3.15306         5.00772
     2014.42299        -5.02862         4.94856
     2014.42573        -1.45829         5.00055
     2014.42847         1.58704         5.01041
     2014.43121        -3.73963         4.95752
     2014.43394        -6.19630         4.94229
     2014.43668        -3.35997         5.00772
     2014.43942        -6.22264         5.06060
     2014.44216        -6.83431         5.03998
     2014.44490        -0.59798         5.10810
     2014.44763         1.97535         5.07763
     2014.45037        -4.17832         5.07046
     2014.45311        -3.05999         4.91181
     2014.45585         1.52634         4.97186
     2014.45859        -4.53433         4.91271
     2014.46132        -4.48801         4.93063
     2014.46406        -3.11968         4.97007
     2014.46680        -1.65835         4.95842
     2014.46954        -4.10502         4.99248
     2014.47227        -1.81569         4.91181
     2014.47501        -0.35436         4.90912
     2014.47775        -0.87203         4.93422
     2014.48049        -0.95770         4.92346
     2014.48323         6.44363         4.92526
     2014.48596        -1.07404         4.95035
     2014.48870         3.53429         4.99427
     2014.49144        -1.68238         4.90912
     2014.49418        -6.34805         4.92436
     2014.49692        -5.14672         4.83294
     2014.49965        -4.72140         4.84907
     2014.50239        -0.26707         5.00951
     2014.50513        -2.88174         4.91719
     2014.50787        -1.48641         4.89837
     2014.51060        -4.99708         4.84459
     2014.51334         4.55425         4.93422
     2014.51608         4.11358         4.91629
     2014.51882         2.53791         4.97545
     2014.52156         2.70824         5.03819
     2014.52429         6.39657         4.89657
     2014.52703        -1.00110         4.86789
     2014.52977        -4.92377         5.03640
     2014.53251        -0.86344         5.09018
     2014.53525         7.19689         4.93870
     2014.53798        -0.91078         4.93780
     2014.54072         2.58154         5.00503
     2014.54346         3.58987         4.88134
     2014.54620         0.16020         4.89120
     2014.54893         3.72453         4.93512
     2014.55110         9.26417         6.70534
     2014.56086         6.83103         9.43373
     2014.56262        -1.91282         4.86700
     2014.56536        -1.87149         4.86968
     2014.56810        -2.99516         5.02654
     2014.57084        -5.74883         4.85893
     2014.57300        -0.78920         6.70803
     2014.57751        12.17528        15.76261
     2014.57905        -0.88285         5.03013
     2014.58179        -5.24452         4.92257
     2014.58453        -2.29119         5.07225
     2014.58726        -5.63686         5.24434
     2014.59000         0.54647         5.16009
     2014.59228         5.60025         6.22760
     2014.59630         2.18414         8.19681
     2014.59765         2.66877         7.14812
     2014.60095        -2.75621         5.02295
     2014.60301         6.23629         7.38475
     2014.60574        -4.77238         7.31304
     2014.60877        -6.41171         6.22312
     2014.61185        -2.99996         7.82573
     2014.61464        -7.30156         7.02532
     2014.61641        -9.83441         9.17828
     2014.61955         4.27940         7.04684
     2014.62343       -10.13888         8.68441
     2014.62548         1.15361        10.11134
     2014.62822         6.24794        12.33869
     2014.63124        -4.58138        11.56875
     2014.63364         4.11253         5.43795
     2014.63655        -3.49893         5.07046
     2014.63928        -4.28960         5.03102
     2014.64202       -10.37927         5.00324
     2014.64476        -8.93794         5.10362
     2014.64750        -4.46661         4.94408
     2014.65023        -4.51828         5.03013
     2014.65252         4.19049         5.94526
     2014.65942         9.17388        10.12120
     2014.66119         0.82503         5.02654
     2014.66415         4.80964         5.40210
     2014.66666         9.63469         5.39044
     2014.66940         1.43302         4.95035
     2014.67214         2.70035         5.00861
     2014.67488        -0.29132         4.93512
     2014.67761         1.78501         4.93153
     2014.68035         3.31734         4.94049
     2014.68309         0.76167         4.97366
     2014.68514         2.11216         7.13378
     2014.70568         6.41613         7.18308
     2014.70773         5.44163         4.94946
     2014.71047         5.92496         4.95394
     2014.71321         6.55529         4.93332
     2014.71594         7.68262         4.91988
     2014.71868         3.87295         4.85803
     2014.72142         6.51428         4.87148
     2014.72416        10.41161         4.96201
     2014.72689         9.68094         5.05433
     2014.72906         6.87857         6.23836
     2014.73311         6.96850        15.90154
     2014.73556         1.57148         9.85679
     2014.73699         2.38321         8.35187
     2014.74058         4.09658         4.93870
     2014.74332        13.64491         5.00144
     2014.74606        10.17924         5.04716
     2014.74811        12.02374         6.79497
     2014.75142         6.70476         5.18340
     2014.75393        -0.67819         7.33455
     2014.75695        -1.78551         5.21746
     2014.75958         3.29568        12.13881
     2014.76249         5.56522         4.96290
     2014.76522         2.30755         4.91809
     2014.76796         4.01788         4.89747
     2014.77070         6.21921         4.89030
     2014.77344         2.52153         5.01130
     2014.77618         5.11986         5.17085
     2014.77891         7.57019         5.03819
     2014.78165         7.33252         4.91181
     2014.78439        11.34185         4.92526
     2014.78713        16.58018         5.01041
     2014.78987         3.71451         4.91988
     2014.79260         0.58284         4.92167
     2014.79534         7.85017         4.94049
     2014.79808         3.53350         4.97366
     2014.80082         8.83883         4.92346
     2014.80355        13.85016         5.13231
     2014.80629         0.52049         5.01489
     2014.80903         6.11882         4.96469
     2014.81177         5.47714         4.94766
     2014.81451        13.13847         5.08839
     2014.81724         9.21380         5.01220
     2014.81998         5.21913         4.99517
     2014.82266         4.87639         5.15919
     2014.82443        20.46154        10.76744
     2014.82905         2.24116         8.50962
     2014.83093         3.76545         5.00234
     2014.83367         5.01278         4.95842
     2014.83641         3.58811         4.93063
     2014.83915         4.00544         4.93780
     2014.84188         3.64177         5.21297
     2014.84462         2.03110         4.97545
     2014.84736         0.50743         5.06060
     2014.85010        -0.80625         5.03550
     2014.85284         3.93808         4.98262
     2014.85557         5.42441         5.06777
     2014.85831         1.61674         5.10273
     2014.86105         5.43507         4.96469
     2014.86379        -1.08960         4.97097
     2014.86653        -0.41227         4.96918
     2014.86926       -11.60194         4.89926
     2014.87200        -9.50461         4.94587
     2014.87474        -8.78228         4.97455
     2014.87748        -5.56695         4.96380
     2014.88021         0.08338         4.93243
     2014.88295         1.24871         4.96828
     2014.88569         3.68904         5.10990
     2014.88843         9.61436         5.26227
     2014.89117        19.73969         5.28558
     2014.89390         2.36202         5.12603
     2014.89664         7.86135         5.09735
     2014.89938        -0.98732         5.02923
     2014.90212        -3.56899         5.04716
     2014.90485        -7.49766         4.89389
     2014.90759        -1.03633         4.94587
     2014.91033         5.29300         4.97814
     2014.91307         3.87333         4.86968
     2014.91581         5.08866         4.84638
     2014.91854        -0.16901         5.17354
     2014.92128        -1.60868         4.92974
     2014.92402        -7.52835         4.89389
     2014.92676         0.34398         4.87058
     2014.92950        -3.75870         4.86610
     2014.93223        -5.34237         4.85714
     2014.93497        -6.47304         4.92705
     2014.93771        -4.77771         4.93512
     2014.94045        -3.33538         4.88582
     2014.94318         5.92195         5.08301
     2014.94581         5.81414         5.30081
     2014.95776         1.31167         8.03278
     2014.95961        -7.61007         4.86162
     2014.96235         4.14826         4.81770
     2014.96509         3.66059         4.92436
     2014.96783        -0.87009         4.83652
     2014.97056         2.23724         4.98262
     2014.97330       -15.73043         4.93780
     2014.97604        -6.59510         4.85086
     2014.97878         2.78823         4.89568
     2014.98151        18.79256         4.96559
     2014.98425         2.84589         4.79081
     2014.98699        -0.15678         4.80067
     2014.98973       -16.38345         4.77199
     2014.99247         2.58988         4.77109
     2014.99520        -7.93179         4.79708
     2014.99794        -1.12646         4.78722
     2015.00068        -1.17313         4.79708
     2015.00342        -3.70580         4.75137
     2015.00616        -5.92048         4.77557
     2015.00889        -5.65715         4.88223
     2015.01437        -7.04949         4.95752
     2015.01711        -6.50116         4.90106
     2015.01984        -3.80683         4.76930
     2015.02258        -2.10350         4.91898
     2015.02532         4.90783         4.79977
     2015.02806        -1.68684         4.82218
     2015.03080        -4.75151         4.82845
     2015.03353        -5.29918         4.79888
     2015.03627        -3.36285         4.78633
     2015.03901        -3.55352         4.79439
     2015.04175         1.18781         4.81142
     2015.04449        -4.67887         4.80067
     2015.04722        16.72146         4.84817
     2015.04996        -4.26521         4.80336
     2015.05270        -3.80588         4.81501
     2015.05544        -4.82855         4.78274
     2015.05817         1.92478         4.78902
     2015.06091        -1.93989         4.80694
     2015.06365         2.45544         4.94677
     2015.06639         4.04677         4.83204
     2015.06913        -2.76090         4.79081
     2015.07186        -4.91657         4.78722
     2015.07460        -3.52524         4.82218
     2015.07734        -8.46291         4.83383
     2015.08008        -7.14458         4.88223
     2015.08282        -5.64326         4.80784
     2015.08555        -4.46893         4.81680
     2015.08829         0.38340         4.80336
     2015.09103         1.88973         4.85714
     2015.09382        -2.89787         4.93601
     2015.09650        -3.44561         4.82487
     2015.09924         9.26972         4.90912
     2015.10198         6.79105         4.92077
     2015.10472         2.17938         4.93780
     2015.10746         1.76771         4.91629
     2015.11019        -7.21596         4.88582
     2015.11293        -6.23663         5.03102
     2015.11567        -0.50630         4.87775
     2015.11841        -4.10797         4.86700
     2015.12115        -2.65564         4.89209
     2015.12388        -3.81932         4.82039
     2015.12662        -2.46299         4.87148
     2015.12936        -1.58966         4.84369
     2015.13210        -1.82333         4.86789
     2015.13483        -2.65900         4.97635
     2015.13757         1.08033         4.92167
     2015.14031        -5.61334         4.81949
     2015.14305         0.01899         4.84369
     2015.14579        -0.63568         4.81859
     2015.14835        -2.88356         5.19057
     2015.17693         0.59619        10.08176
     2015.17864        -0.75473         4.84817
     2015.18138         2.24560         4.79888
     2015.18412         0.16493         4.83562
     2015.18685        -3.21274         4.83652
     2015.18959        -2.03041         4.91181
     2015.19233        -6.22008         5.02833
     2015.19507        -4.62075         4.87237
     2015.19780        -1.25142         4.92167
     2015.20054         1.56890         4.84459
     2015.20328        -1.22277         5.02475
     2015.20602        -6.09144         4.99786
     2015.20887        -4.51297         5.07315
     2015.21149        -9.85078         4.80515
     2015.21423        -9.23645         4.92167
     2015.21697        -5.65312         4.96649
     2015.21971        -1.98279         4.84369
     2015.22245        -5.25446         4.87237
     2015.22513        -9.87620         5.06419
     2015.22792        -1.81780         4.99786
     2015.23066        -3.81247         4.80963
     2015.23334        -2.48521         5.12603
     2015.23613        -3.98781         5.07225
     2015.23887        -5.94149         5.02654
     2015.24161        -1.72116         5.08749
     2015.24435        -2.76483         5.12334
     2015.24709        -4.55450         5.01578
     2015.24982        -3.51117         4.85176
     2015.25256        -5.28684         4.80425
     2015.25450        -6.65448         8.04802
     2015.25804        -3.94218         4.83025
     2015.26078         1.66815         4.88223
     2015.26351         3.70048         4.82577
     2015.26625         4.60681         4.80694
     2015.26899        -1.62886         4.80605
     2015.27173         1.59547         5.37879
     2015.27446         1.89080         4.98262
     2015.27720         2.20212         4.86072
     2015.27994        -1.21755         4.82397
     2015.28268        -0.23322         4.84817
     2015.28542        -2.22689         4.97366
     2015.28815        -3.72156         4.94766
     2015.29089         0.29977         4.87686
     2015.29363         0.38010         4.90016
     2015.29637        -1.51157         4.84459
     2015.29911         3.91676         4.84100
     2015.30184         5.67709         4.87327
     2015.30458         5.27942         4.98262
     2015.30732         0.58475         4.76750
     2015.31006         0.22808         4.75765
     2015.31279        -1.45759         4.74151
     2015.31553        -4.27826         4.71193
     2015.31827        -3.86494         4.71283
     2015.32101        -3.44661         4.69401
     2015.32375        -4.18328         4.77019
     2015.32648        -0.75695         4.86700
     2015.32922        -4.02762         4.82935
     2015.33196         2.55471         4.74599
     2015.33470        -3.29096         4.74510
     2015.33744        -1.58863         4.71193
     2015.34017        -2.79230         4.82128
     2015.34291        -2.75697         4.76571
     2015.34565        -0.30164         4.72538
     2015.34839         3.29469         4.73882
     2015.35112        -5.25398         4.79529
     2015.35386        -0.90365         4.73344
     2015.35660        -2.14233         4.76930
     2015.35934        -5.61300         4.86520
     2015.36208        -0.18767         4.88851
     2015.36481        -1.39434         4.75137
     2015.36755         0.32999         4.74599
     2015.37029         2.58132         4.71193
     2015.37303        -4.90635         4.77468
     2015.37577        -5.43002         4.77468
     2015.37850        -5.85469         4.95483
     2015.38124        -3.15236         4.74330
     2015.38398         1.49497         4.73613
     2015.38672        -3.57370         4.75316
     2015.38945         0.76863         4.84369
     2015.39219         2.26096         4.81949
     2015.39493        -9.78372         4.93243
     2015.39767        -6.54539         4.84907
     2015.40041        -3.32506         4.88492
     2015.40314        -6.53473         4.91092
     2015.40588        -7.08540         4.79529
     2015.40862         1.79693         4.87506
     2015.41136         0.04526         4.84817
     2015.41410        -1.83741         4.88671
     2015.41683        -3.76808         4.88761
     2015.41957        -2.98775         4.78274
     2015.42231        -3.96742         4.72538
     2015.42505         0.16791         5.00503
     2015.42778        -4.89076         4.83562
     2015.43052        -1.27143         4.85893
     2015.43326        -1.81811         4.77736
     2015.43600        -3.46878         4.80963
     2015.43874         1.28455         4.88851
     2015.44147        -2.40912         4.97455
     2015.44421        -0.77679         4.84997
     2015.44695        -1.19946         4.80694
     2015.44969        -3.88513         4.79260
     2015.45243        -1.72680         4.84548
     2015.45516        -3.93447         4.77916
     2015.45790        -2.59414         4.86789
     2015.46064         3.51819         4.96290
     2015.46338         0.73552         4.91898
     2015.46611        -1.19915         4.81232
     2015.46885         3.73118         4.78095
     2015.47159         1.08650         4.75765
     2015.47433        -0.84217         4.90195
     2015.47707         3.26216         4.89568
     2015.47980         2.42249         4.86968
     2015.48254        -1.82618         4.84907
     2015.48528        -1.51885         4.75496
     2015.48802        -0.69252         4.73793
     2015.49076         7.16581         4.82577
     2015.49349         2.62214         5.02027
     2015.49623         0.11147         5.04178
     2015.49896        -3.80421         4.96738
     2015.50171         6.16513         4.93780
     2015.50444         4.35646         4.72807
     2015.50718        -2.64621         4.81770
     2015.50992         0.84712         4.79977
     2015.51266         3.25544         4.82397
     2015.51528         5.95863         5.51234
     2015.51885        14.39898         9.07341
     2015.52087        12.05443         4.81591
     2015.52292        14.55493         6.82545
     2015.52578         2.57140         6.22760
     2015.52937         9.27077         5.37610
     2015.53228         1.59330        11.23353
     2015.53496         5.12056         5.76421
     2015.53673         9.34871         6.17024
     2015.54004         0.37274         4.88582
     2015.54277         0.64807         4.82218
     2015.54551         9.08840         4.84907
     2015.54825         8.75673         5.06508
     2015.55099        10.37905         4.88044
     2015.55373        14.29638         4.92077
     2015.55646         9.28271         4.97186
     2015.55920         9.62904         4.90106
     2015.56194        13.56237         4.90733
     2015.56468         2.48870         4.87686
     2015.56741         7.44603         4.90733
     2015.57015         7.15136         4.99248
     2015.57289         2.58469         4.97993
     2015.57563         4.20102         4.82577
     2015.57837         3.58935         4.85534
     2015.58110         7.59768         4.86520
     2015.58384        11.10801         4.89209
     2015.58658        13.80834         4.89657
     2015.58932         9.41966         4.89837
     2015.59206        15.23299         5.02385
     2015.59479        10.36632         4.85983
     2015.59753        17.03765         4.87596
     2015.60027        11.63098         5.10362
     2015.60301        13.81131         5.10273
     2015.60574         7.41864         5.18250
     2015.60848        12.02897         4.92257
     2015.61122         6.69530         4.99875
     2015.61396        10.42263         4.97814
     2015.61670        13.61896         5.15113
     2015.61943        -0.39271         4.82487
     2015.62217         8.31962         4.79439
     2015.62491        17.58995         4.77109
     2015.62765         9.97027         4.76571
     2015.63044         9.70067         4.85445
     2015.63312         8.84793         4.81322
     2015.63586        -2.50274         5.09556
     2015.63860         2.71659         4.88403
     2015.64134         2.87392         4.78095
     2015.64407         5.56925         4.78722
     2015.64681         9.37658         4.88044
     2015.64955         6.52891         4.80336
     2015.65229        10.39924         4.81053
     2015.65503        14.21157         4.77378
     2015.65776        12.32990         4.89209
     2015.66050         8.77123         4.91988
     2015.66324        10.77656         4.80874
     2015.66598         5.63788         4.86431
     2015.66872         6.50921         4.90464
     2015.67145         7.57354         4.85355
     2015.67419         1.42887         4.76750
     2015.67693        13.29820         4.78902
     2015.67967         7.32953         4.76840
     2015.68240         3.41486         4.78274
     2015.68514         3.57719         4.80784
     2015.68788         6.46352         4.75137
     2015.69062        12.06085         4.82756
     2015.69336         3.45118         4.94049
     2015.69609         6.24151         4.77826
     2015.69883        17.47184         4.83562
     2015.70157        10.86317         4.86700
     2015.70431         9.24650         4.77288
     2015.70705         8.88782         4.78274
     2015.70978         9.77215         4.78185
     2015.71252         3.63648         4.77288
     2015.71526         6.96581         4.76213
     2015.71800        10.13314         4.77019
     2015.72073         8.47847         4.83473
     2015.72296         4.93218         5.79020
     2015.72997        15.60271         9.70352
     2015.73169        10.03679         4.86789
     2015.73357         9.07508         7.79616
     2015.73716         4.05345         4.81680
     2015.73990         9.74778         4.88671
     2015.74264         6.46411         4.86431
     2015.74538        12.97543         5.27930
     2015.74794       -24.45544        70.44775
     2015.75085         4.82109         4.84011
     2015.75359         4.16442         4.85534
     2015.75633        12.31575         4.79081
     2015.75906         6.81408         4.91181
     2015.76175        18.32834        62.84788
     2015.76454         2.08774         5.00413
     2015.76728         2.10307         4.79439
     2015.77002         3.03440         4.79619
     2015.77275         5.88873         4.84369
     2015.77561        16.06520        20.32217
     2015.77823        11.24439         4.80605
     2015.78097         3.61472         4.77019
     2015.78371         8.84304         4.78722
     2015.78644         7.63437         4.77199
     2015.78918         4.80470         4.77378
     2015.79192         4.93103         4.90195
     2015.79466        11.78436         4.79171
     2015.79739         6.43169         4.78543
     2015.80013         2.51402         4.96380
     2015.80287        -3.55865         4.78364
     2015.80561         4.53468         4.80067
     2015.80835         4.96501         4.76302
     2015.81108         0.76534         4.75316
     2015.81382         2.92067         4.79888
     2015.81656         2.23700         4.81680
     2015.81930         3.02533         4.78095
     2015.82203         4.90365         4.80874
     2015.82477         7.08098         4.80336
     2015.82751        10.57031         4.77916
     2015.83031        10.07171         4.96559
     2015.83299         8.26597         4.89299
     2015.83572         2.01830         4.88044
     2015.83846         8.63863         5.01847
     2015.84120         3.39796         4.94049
     2015.84394         5.19629         4.95215
     2015.84668         1.81162         4.88851
     2015.84941         6.58295         4.95932
     2015.85215         4.47928         4.94946
     2015.85489         9.18861         4.93691
     2015.85763        -0.72406         4.91629
     2015.86036         2.39126         4.90374
     2015.86310         3.94759         5.10273
     2015.86584         4.06192         4.90643
     2015.86858         2.48025         4.93153
     2015.87132         0.39258         4.92526
     2015.87405         7.07791         4.92795
     2015.87679         3.35124         4.91540
     2015.87953         8.47157         4.95394
     2015.88227         5.89490         4.89299
     2015.88501         0.78523         4.87506
     2015.88774        -2.31144         4.89568
     2015.89048         5.70489         4.89209
     2015.89322         6.60422         4.90374
     2015.89596         6.35555         4.95215
     2015.89869        11.92488         4.91629
     2015.90143         2.91420         4.91809
     2015.90417        -0.58047         4.88671
     2015.90691         4.64986         4.96738
     2015.90965         2.64319         4.96201
     2015.91238         3.01752         4.95035
     2015.91512        -1.99815         4.94587
     2015.91786        -2.11282         5.00861
     2015.92060        -2.64649         5.04716
     2015.92334        -6.74116         4.99069
     2015.92607        -3.17883         4.96290
     2015.92881        -6.69250         5.04447
     2015.93155        -4.03817         5.11707
     2015.93429         4.68316         5.13858
     2015.93702         4.73249         5.16368
     2015.93976         6.51481         5.17443
     2015.94250         3.90214         5.10452
     2015.94524        -2.91753         5.03909
     2015.94798         5.35680         5.07315
     2015.95071         4.06713         4.84100
     2015.95345         1.19346         4.87686
     2015.95619         1.42779         4.91360
     2015.95893        -3.21688         5.03730
     2015.97005         5.58764         5.62707
     2015.97262        13.93677         4.88582
     2015.97535        -2.64690         4.89209
     2015.97809         1.36642         4.91360
     2015.98083        -1.74025         4.80156
     2015.98357        -9.05292         4.90464
     2015.98631        -9.35359         4.91181
     2015.98904        -3.42026         4.84907
     2015.99178        -3.39093         4.83294
     2015.99452        -4.84260         4.82577
     2015.99726        -4.55527         4.89657
     2016.00000        -6.72394         4.93243
     2016.00273        -8.84761         4.93422
     2016.00547        -4.41428         4.92795
     2016.00821        -0.67495         4.84728
     2016.01095         4.89738         4.87954
     2016.01363         0.01064         5.24793
     2016.01642        -0.00697         5.06329
     2016.01916        -0.23964         5.13051
     2016.02190        -0.37531         5.02027
     2016.02464        -2.25698         4.83742
     2016.02737        -5.52265         4.85893
     2016.03011        -6.08332         4.89747
     2016.03285        -4.37199         4.89657
     2016.03559         4.31034         4.86072
     2016.03833        -1.58033         4.96290
     2016.04106        -5.07500         4.86431
     2016.04380        -5.29767         4.86700
     2016.04654        -5.43434         4.92615
     2016.04928        -5.22101         4.83383
     2016.05201        -1.98868         4.91719
     2016.05475        -0.49436         4.85624
     2016.05749         0.38697         4.91002
     2016.06023        -3.21570         4.89209
     2016.06297        -2.35637         4.99786
     2016.06570        -2.65404         4.95394
     2016.06844        -2.89771         4.94408
     2016.07118        -7.26938         4.94587
     2016.07392        -5.05405         4.93512
     2016.07666       -13.59472         5.09645
     2016.07939        12.08761         4.95215
     2016.08213        -0.30506         5.04178
     2016.08487        -0.62273         4.94318
     2016.08761        -7.06640         4.92705
     2016.09034        -6.47807         4.95752
     2016.09308       -12.66274         4.92436
     2016.09542       -20.95190         5.78930
     2016.10472       -10.57660         6.90611
     2016.10677       -11.77710         4.90643
     2016.10951        -6.73577         4.95304
     2016.11225       -11.85044         4.91898
     2016.11498       -10.23111         4.92167
     2016.11772       -10.39178         4.89299
     2016.12046        -5.25445         4.85983
     2016.12320        -2.35812         4.89120
     2016.12594        -5.15779         4.90285
     2016.12867         0.27754         4.93512
     2016.13141         8.10387         5.12872
     2016.13415         1.73619         5.27482
     2016.13689        -5.46248         4.87237
     2016.13963        -5.78315         4.94587
     2016.14236       -10.92682         4.88582
     2016.14510       -11.31349         4.93332
     2016.14784       -11.56516         4.90733
     2016.15058        -6.52183         4.86610
     2016.15331        -4.71750         5.01937
     2016.15611        -0.86310         5.04805
     2016.15879        -9.99484         5.02744
     2016.16153        -6.24451         5.03819
     2016.16427        -6.87618         4.97904
     2016.16700        -6.92585         4.95573
     2016.16974        -6.19952         4.89568
     2016.17248        -7.24420         4.98531
     2016.17522       -10.12787         5.28020
     2016.17796         5.64846         5.15382
     2016.18069         1.49579         5.00055
     2016.18343        -5.86788         5.04984
     2016.18617        -2.84555         4.88582
     2016.18891         0.71378         6.11467
     2016.19164        -1.59689         4.82666
     2016.19438         4.85344         4.79977
     2016.19712        -3.16723         4.98262
     2016.19986        -0.99590         4.94049
     2016.20260        -7.16957         4.90285
     2016.20533        -5.14824         5.03998
     2016.20807         0.06409         4.99607
     2016.21081       -10.30459         4.95394
     2016.21355        -7.77726         4.86968
     2016.21629        -6.34593         4.83114
     2016.21902        -3.23460         4.86610
     2016.22091        -2.71431         8.37069
     2016.22461        -2.49180         6.45706
     2016.22707        -7.33782         5.21387
     2016.22997        -3.26028         4.99965
     2016.23271        -5.73695         4.83025
     2016.23545        -1.02462         4.82845
     2016.23819        -0.77229         4.84369
     2016.24093        10.83504         4.93153
     2016.24366        -1.54763         4.84907
     2016.24640         2.18370         4.81949
     2016.24914         0.46002         4.85893
     2016.25188        -1.91565         4.85445
     2016.25462        -0.40332         4.89926
     2016.25735        -4.32899         4.87954
     2016.26009        -8.49566         4.84190
     2016.26283        -9.22933         4.87058
     2016.26557        -9.09100         4.89120
     2016.26830        -2.09867         4.85176
     2016.27104         1.25666         4.92077
     2016.27378         4.00999         4.88940
     2016.27652        -2.11168         4.80156
     2016.27926        -0.63635         4.83294
     2016.28131        -4.95686         7.00471
     2016.28815        -6.52753         6.93838
     2016.29021       -12.73604         4.83114
     2016.29295        -7.19071         4.85086
     2016.29568        -5.77038         5.04895
     2016.29842        -5.66905         4.98800
     2016.30116        -5.74072         4.98262
     2016.30390       -10.70739         4.88761
     2016.30663         2.63894         4.89120
     2016.30937        -0.69673         5.03550
     2016.31211        -4.76240         4.90195
     2016.31485         3.32193         4.93512
     2016.31759        -1.54474         4.84907
     2016.32032        -3.88441         4.85983
     2016.32306       -10.65908         4.88223
     2016.32580        -6.13175         4.87506
     2016.32854        -2.45243         4.87596
     2016.33128        -7.87210         4.85355
     2016.33401        -5.27677         4.90912
     2016.33675        -4.23444         4.95483
     2016.33949        -4.98611         5.13679
     2016.34223        -2.68278         4.96469
     2016.34496        -0.26145         5.10631
     2016.34770         1.37688         4.97276
     2016.35044         3.46121         5.27034
     2016.35318        -2.63246         4.90195
     2016.35592        -8.53713         4.84459
     2016.35865       -13.07780         4.85086
     2016.36139        -4.69747         4.86162
     2016.36413        -1.24414         4.89030
     2016.36687        -0.46882         4.82128
     2016.36961         5.65551         4.84907
     2016.37234         2.88084         4.81949
     2016.37508        -1.65783         4.88223
     2016.37782        -8.64850         4.99786
     2016.38056         1.20883         4.96111
     2016.38329        -1.59184         4.77019
     2016.38603        -1.96351         4.89837
     2016.38877        12.91382         4.84907
     2016.39151        -1.83985         4.95483
     2016.39385         7.03099        31.98952
     2016.41432        -6.17411         8.33126
     2016.41615        -6.49489         4.78274
     2016.41889        -6.42956         4.86162
     2016.42162         1.66877         4.97097
     2016.42436       -11.78490         4.80694
     2016.42710        -1.36357         4.82039
     2016.42984        -1.92524         4.83652
     2016.43258         0.23009         4.80694
     2016.43531         4.90742         4.98889
     2016.43805         2.61375         4.79708
     2016.44079        -0.92092         4.83114
     2016.44353        -3.53360         4.99875
     2016.44626        -9.32227         4.77199
     2016.44900        -4.07694         4.78185
     2016.45180        -1.10554         5.18608
     2016.45448         0.73072         4.79350
     2016.45722        -4.97895         4.80425
     2016.45995        -5.33262         4.77199
     2016.46269         1.14671         4.86520
     2016.46543        -8.90796         4.76482
     2016.46822        -2.38356         4.85624
     2016.47096         1.78677         4.99248
     2016.47370        -4.21090         4.86162
     2016.47644         3.96743         4.86162
     2016.47918         1.31076         5.09107
     2016.48191        -1.02892         4.79619
     2016.48465        -4.73359         4.81949
     2016.48739         0.61474         4.85983
     2016.49013        -7.44093         5.10631
     2016.49287         0.14440         4.96380
     2016.49560         1.92473         4.84548
     2016.49828        -5.35401         4.86251
     2016.50102         3.90332         4.81859
     2016.50376         0.26065         4.94139
     2016.50650        -0.70302         4.89030
     2016.50924         4.09631         4.76930
     2016.51197        -0.47436         4.77736
     2016.51477         4.23404         4.85534
     2016.51751         3.79837         4.92526
     2016.52024        -4.22131         4.92436
     2016.52298        -5.09798         4.89657
     2016.52572        -2.00765         4.86968
     2016.52846        -1.28632         4.85176
     2016.53120        -6.06799         4.87506
     2016.53393        -2.50866         4.93691
     2016.53667         5.08367         5.07942
     2016.53941         3.23600         4.91988
     2016.54215         2.36033         4.89299
     2016.54488         5.65066         4.90912
     2016.54762        -0.20501         4.94318
     2016.55042         1.17239         5.29543
     2016.55310         0.61565         4.93153
     2016.55584         1.97198         4.99696
     2016.55857         1.47930         4.96290
     2016.56131         5.38863         4.87596
     2016.56405         4.61296         4.90195
     2016.56679         4.68129         5.04716
     2016.56953        -0.25938         5.08390
     2016.57226        12.92895         5.02206
     2016.57500        13.80328         5.05164
     2016.57774         2.59261         4.98172
     2016.58048         5.19594         4.94229
     2016.58321         0.11327         4.87237
     2016.58595         3.44060         4.87954
     2016.58869         3.22093         4.89120
     2016.59137        -0.48581         4.76123
     2016.59411         5.88952         4.75137
     2016.59685         9.37785         4.80246
     2016.59958         2.76317         4.98531
     2016.60232         5.19650         4.77916
     2016.60506         5.34083         4.79171
     2016.60780         5.60616         4.78185
     2016.61054         2.08749         4.79529
     2016.61327         3.98682         4.79798
     2016.61601        -2.53685         4.79798
     2016.61875        -0.00052         4.81591
     2016.62149         3.87881         4.80963
     2016.62423         6.47014         4.84997
     2016.62696         4.53447         4.76482
     2016.62970         7.24180         4.82397
     2016.63244        -0.34387         4.84459
     2016.63518         1.88446         4.77109
     2016.63791        10.26378         4.72807
     2016.64065        11.29811         5.00503
     2016.64339         3.87344         4.78633
     2016.64613         6.35477         4.73613
     2016.64887         1.72510         5.61273
     2016.65160         6.43943         4.88134
     2016.65434         2.76776         4.84907
     2016.65708        -2.03991         4.78902
     2016.65982        -8.08958         4.82487
     2016.66256         1.04175         4.86879
     2016.66529         4.09108         5.09735
     2016.66718        -0.13963         7.65992
     2016.67071         6.04267         5.61542
     2016.67351         2.45307         4.82128
     2016.67624         8.95540         5.06777
     2016.67898         6.37072         4.73703
     2016.68172        10.13505         4.75675
     2016.68446        10.11338         4.97276
     2016.68720         1.61571         5.15292
     2016.68993         2.16404         5.01130
     2016.69267        -1.28363         4.76123
     2016.69541         5.14670         4.83742
     2016.69815        14.10403         4.73793
     2016.70089         7.39336         4.73255
     2016.70362         9.15069         4.91809
     2016.70636         0.04602         5.07315
     2016.70910         2.92035         4.99517
     2016.71184        10.41268         4.76482
     2016.71457        13.29201         4.82487
     2016.71731         7.57933         4.76661
     2016.72005        14.50466         4.78185
     2016.72279        11.52299         4.78274
     2016.72553        12.13032         4.91898
     2016.72826        11.68565         4.88492
     2016.73100         5.60298         4.75227
     2016.73374         2.70731         4.72717
     2016.73648         4.46964         4.72000
     2016.73853         2.85414         6.55117
     2016.75644        13.29092         7.62137
     2016.75838         8.29327         4.78902
     2016.76112         6.43860         4.71731
     2016.76386         6.68593         4.72000
     2016.76659         1.74926         4.77826
     2016.76933         6.58659         4.72717
     2016.77207         2.10892         4.75137
     2016.77481         5.83425         4.83204
     2016.77754         5.54758         4.74779
     2016.78028         2.97491         4.74420
     2016.78302         1.73624         4.76033
     2016.78576         7.68757         4.79708
     2016.78850         7.60490         4.78453
     2016.79123         5.41123         4.77199
     2016.79397        12.58955         4.85803
     2016.79671         1.78788         4.91360
     2016.79945        -1.46979         4.71373
     2016.80219        -0.15346         4.72896
     2016.80492         5.54187         4.73882
     2016.80766         9.69320         4.78722
     2016.81040        -2.17147         4.77468
     2016.81314         3.91086         4.80515
     2016.81587         0.84719         4.84548
     2016.81821         1.31903         5.80902
     2016.83316        14.20821         7.73700
     2016.83504         2.95349         4.73613
     2016.83778         1.00182         4.74062
     2016.84052        -6.50685         4.71462
     2016.84325        -1.37052         4.72896
     2016.84599         3.12781         4.74689
     2016.84873         4.94614         4.78812
     2016.85147         2.67247         4.77199
     2016.85420        -2.14220         4.78902
     2016.85694         1.21613         4.76930
     2016.85968        -4.57454         4.83652
     2016.86242        -2.72421         4.89926
     2016.86516         2.51812         4.84817
     2016.86789         4.09745         4.75496
     2016.87063         0.98778         4.80694
     2016.87337         9.30610         4.83652
     2016.87611         3.58043         4.82666
     2016.87885         5.78276         4.80515
     2016.88158        -0.96591         4.78812
     2016.88432         1.74442         4.80425
     2016.88706         2.23275         4.81053
     2016.88980         4.71508         4.85176
     2016.89253         2.95941         4.84011
     2016.89527        -1.18826         4.84997
     2016.89801         0.22507         5.09645
     2016.90075        -3.68160         4.82039
     2016.90349        -0.24627         4.91450
     2016.90622         7.68806         4.91002
     2016.90896         8.37439         4.77826
     2016.91170         2.18471         4.71462
     2016.91444        -0.58696         4.75944
     2016.91718        -1.22863         4.86341
     2016.91991        -4.99930         4.88851
     2016.92265        -0.84897         4.79619
     2016.92539        -1.86364         4.78095
     2016.92813        -0.17231         4.76930
     2016.93086        -0.88798         4.73613
     2016.93360        -4.14165         4.73344
     2016.93634        -3.88132         4.76840
     2016.93908       -14.04199         4.84997
     2016.94182       -13.54166         4.78095
     2016.94455        -1.72033         4.71462
     2016.94729         1.29400         4.80336
     2016.95003        -4.31168         4.86610
     2016.95277        -3.11435         4.91181
     2016.98288         2.33328         4.76302
     2016.98562         0.59761         4.74151
     2016.98836        -9.44807         4.74062
     2016.99110       -16.69074         4.71283
     2016.99657       -22.03708         4.80156
     2016.99931       -21.83575         4.75137
     2017.00088       -20.61383        12.90426
     2017.00479       -14.14709         4.71104
     2017.00695       -21.41845         6.87923
     2017.01026       -17.84743         4.76930
     2017.01300       -14.71810         4.76840
     2017.01574       -16.94977         4.77826
     2017.01848       -17.06644         4.75854
     2017.02121       -19.23711         4.71104
     2017.02395       -19.90578         4.90285
     2017.02669        -2.45445         4.82218
     2017.02943         3.56387         4.72717
     2017.03216        -3.52380         4.73972
     2017.03490        -4.44247         4.72627
     2017.03764        -8.92914         4.74062
     2017.04038        -6.44581         4.76302
     2017.04312        -5.30148         4.76661
     2017.04585         0.92485         5.09466
     2017.04859        -8.14982         4.97993
     2017.06616        -5.84946        12.51616
     2017.06776        -9.95852         4.77826
     2017.07049        -9.37219         4.73703
     2017.07323       -10.43786         4.74241
     2017.07597       -12.93753         4.73434
     2017.07871       -13.36120         4.77199
     2017.08145       -11.52387         4.80425
     2017.08418       -11.97854         4.77557
     2017.08692        -8.82821         4.73882
     2017.08966        -8.38388         5.22104
     2017.09240       -10.95755         4.77736
     2017.09514        -1.43022         4.84369
     2017.09787        -5.58989         4.79708
     2017.10061         4.93444         4.79977
     2017.10335        -6.62223         4.85714
     2017.10609        -6.72991         4.86879
     2017.10882        -0.33758         4.75675
     2017.11162        -6.41218         4.90554
     2017.11430        -6.57692         4.82756
     2017.11704       -16.40059         5.13858
     2017.11978       -12.30226         4.74958
     2017.12251       -11.19593         4.74330
     2017.12531        -7.69453         4.85355
     2017.12805        -4.32120         4.84548
     2017.13078         1.54013         4.85534
     2017.13347        -0.52261         4.72627
     2017.13620        -1.01428         4.75227
     2017.13894        -7.62995         4.78633
     2017.14168        -6.86262         4.99069
     2017.14442        -4.96630         4.78005
     2017.14715        -9.68897         4.76482
     2017.14989        -7.05564         4.76750
     2017.15263        -3.21431         4.77826
     2017.15537        -5.22298         4.74330
     2017.15811        -0.40665         4.92974
     2017.16084        -2.86932         4.83831
     2017.16358       -10.59099         4.76302
     2017.16632        -8.66666         4.75765
     2017.16911        -8.66426         4.88851
     2017.17185        -4.90193         4.95752
     2017.17459        -1.71860         4.99517
     2017.17733        -5.61627         4.96201
     2017.18001        -9.99801         4.78722
     2017.18275        -8.82369         4.75047
     2017.18548       -13.86636         4.78902
     2017.18822       -11.20403         4.75675
     2017.19096       -14.29770         4.75944
     2017.19370        -4.30837         4.84011
     2017.19644        -9.20104         4.77019
     2017.19917        -4.95971         4.74599
     2017.20191        -7.16938         4.77288
     2017.20465       -10.17905         4.93332
     2017.20739        -6.38472         4.78185
     2017.21013         2.20361         4.78364
     2017.21286        -7.15106         4.79708
     2017.21560        -5.71373         4.75675
     2017.21834        -3.02240         4.81053
     2017.22108        -4.18707         4.77199
     2017.22381        -5.32875         4.91092
     2017.22655        -3.42742         4.83921
     2017.22929        -6.77909         4.80425
     2017.23203        -4.66376         4.79529
     2017.23477        -4.68843         4.79260
     2017.23750        -9.44710         4.76033
     2017.24024        -6.64677         4.76930
     2017.24298        -7.16544         4.71283
     2017.24572         0.12189         4.77109
     2017.24846        -9.64278         4.80963
     2017.25119        -6.44645         4.85086
     2017.25393        -3.83912         4.79350
     2017.25667       -10.97279         4.78364
     2017.25941       -11.49246         4.74241
     2017.26186        -6.24748         5.42002
     2017.27036        -1.89215         4.77109
     2017.27310       -11.57682         4.78185
     2017.27566        -8.90270         5.15023
     2017.29312        -4.78947         7.96466
     2017.29500       -11.86218         4.81411
     2017.29871       -15.92268         8.81168
     2017.30047       -11.74253         4.76392
     2017.30321       -13.70820         4.81591
     2017.30595       -14.69687         4.79350
     2017.30869        -9.19054         4.79619
     2017.31143        -5.06021         4.77916
     2017.31416        -7.67988         4.82039
     2017.31690        -8.99655         4.80067
     2017.31964        -4.19922         4.95483
     2017.32238       -10.82689         4.91271
     2017.32512       -11.48256         4.76482
     2017.32785        -8.93223         4.84638
     2017.33059       -13.35890         4.74689
     2017.33333       -11.14357         4.72986
     2017.33607       -18.27724         4.77378
     2017.33880       -13.23692         4.76213
     2017.34154        -7.49659         4.96111
     2017.34428        -9.07826         4.74958
     2017.34702        -7.83093         4.70297
     2017.34976       -10.16460         4.73255
     2017.35249       -12.27727         4.79081
     2017.35523       -17.68294         4.75047
     2017.35797       -14.48761         4.77109
     2017.36071        -7.28228         4.80336
     2017.36344        -8.68895         4.75585
     2017.36618       -10.16962         4.78005
     2017.36892        -5.25029         4.81232
     2017.37166        -8.83696         4.76571
     2017.37440       -11.07163         4.75047
     2017.37702        -7.59444         5.16726
     2017.37942       -16.99253         6.52518
     2017.38232        -8.67199         5.72836
     2017.38455        -9.82829         7.47169
     2017.41210        -1.30579         6.59420
     2017.41546        -6.55169         4.88582
     2017.41820        -5.03337         4.87058
     2017.42094        -7.53204         4.84997
     2017.42368        -9.02971         4.92974
     2017.42642        -8.99438         4.98800
     2017.42915        -4.01305         4.89030
     2017.43189        -3.31772         4.99427
     2017.43463        -3.32039         5.29275
     2017.43737        -4.32406         5.17712
     2017.44010         1.16927         4.86162
     2017.44284        -3.60240         4.85714
     2017.44535         2.34365         5.24345
     2017.44809         3.60798         5.45050
     2017.45185         2.11756         7.65543
     2017.45379        -1.95108         4.93512
     2017.45653        -3.68676         4.96201
     2017.45927        -3.63743         4.84369
     2017.46201         4.68290         4.84728
     2017.46475       -11.46077         4.81591
     2017.46748        -1.60444         4.98621
     2017.47022        -9.47811         4.92795
     2017.47296        -1.28778         4.95125
     2017.47570        -3.00845         4.78185
     2017.47843        -5.79312         4.82218
     2017.48117        -9.19979         4.78722
     2017.48391        -3.81046         4.91002
     2017.48665         0.51187         5.03819
     2017.48939        -1.50480         4.92436
     2017.49212         2.73953         4.84728
     2017.49486        -3.98415         4.88851
     2017.49760        -2.43082         4.86162
     2017.50034        -1.14549         4.90016
     2017.50308         8.00484         5.01847
     2017.50581        -2.81583         5.06508
     2017.50855        -0.98450         4.84907
     2017.51129         2.53683         4.93870
     2017.51403        -3.55484         4.90912
     2017.51676        -2.95751         4.81053
     2017.51950         0.69582         4.83831
     2017.52224         7.85615         4.84280
     2017.52498         2.28548         4.86431
     2017.52772         0.69481         4.97007
     2017.53045         2.90414         4.83294
     2017.53319         1.95346         4.96201
     2017.53593         2.06779         4.98979
     2017.53861         6.07905         5.00861
     2017.54152         7.30759         5.26048
     2017.54409         6.49771         4.91360
     2017.54688         3.06511         4.96738
     2017.54962        -1.05056         4.84548
     2017.55236        -0.78823         4.90823
     2017.55509         4.32910         4.91181
     2017.55783         3.94643         4.86700
     2017.56057         1.04376         4.88761
     2017.56331         2.02209         4.98621
     2017.56605         4.51342         4.92346
     2017.56850         2.14240         6.80483
     2017.57169        -0.13772         5.32053
     2017.57426        -1.59260         5.10093
     2017.57700        -0.03527         4.85176
     2017.57974         3.19306         5.40120
     2017.58247         1.77639         4.88134
     2017.58507        -6.57945         5.56523
     2017.58878         1.16306         8.70502
     2017.59069         0.71938         4.95573
     2017.59342        -0.82329         4.87237
     2017.59616         4.84004         4.85086
     2017.59890        -0.24463         4.83921
     2017.60164         7.09370         4.83562
     2017.60438        -1.18297         4.83562
     2017.60711        -2.87664         4.88313
     2017.60985         1.02069         5.06419
     2017.61259         0.57001         4.92884
     2017.61533         6.04934         4.94408
     2017.61807         6.87367         5.01578
     2017.62080        -0.69100         4.84011
     2017.62354         4.86833         4.89568
     2017.62628         3.83166         5.02475
     2017.62902         2.16899         5.05791
     2017.63175         0.03332         4.86520
     2017.63449        -5.32435         4.89299
     2017.63723         0.15398         4.83921
     2017.63997         4.44631         4.90912
     2017.64271         6.62964         4.86700
     2017.64544         9.56597         4.88492
     2017.64818         1.06330         4.99875
     2017.65092         4.03062         4.83204
     2017.65366         1.92595         4.81949
     2017.65639         4.89328         4.85086
     2017.65913         9.64061         4.97724
     2017.66119        12.53811         6.98678
     2017.66461         6.21027         5.03461
     2017.66735         7.40960         4.97635
     2017.67008         5.68993         4.81053
     2017.67282         3.99426         5.00951
     2017.67556         2.22359         4.85086
     2017.67830         2.76992         5.11796
     2017.68104         4.84925         4.81411
     2017.68377         7.69858         4.95215
     2017.68651         8.09191         5.10631
     2017.68925        10.88523         4.87506
     2017.69199         1.39556         4.92795
     2017.69472         6.75089         4.78991
     2017.69746         8.65422         4.92884
     2017.70020         6.92355         5.08032
     2017.70294        11.54288         5.20311
     2017.70568         8.59521         4.97635
     2017.70841         5.10854         4.78722
     2017.71115         5.99987         4.89120
     2017.71389         8.14620         4.96918
     2017.71663         9.28553         4.84638
     2017.71937         5.40986         4.91181
     2017.72210         4.00219         4.81501
     2017.72484         1.41952         4.81053
     2017.72758         6.63884         4.82935
     2017.73032         3.32317         4.82666
     2017.73305         5.03850         4.83652
     2017.73579         2.64883         4.81501
     2017.73853        -0.21584         4.84280
     2017.74127         3.30549         4.88134
     2017.74401         6.62482         4.82308
     2017.74674         6.32115         4.92705
     2017.74948         9.82348         4.84369
     2017.75222         6.33981         4.83294
     2017.75496         3.56114         4.84459
     2017.75770         2.04047         4.93601
     2017.76043         3.78480         4.82397
     2017.76317         7.94913         4.81411
     2017.76591        11.35645         4.88761
     2017.76865         8.61378         4.88044
     2017.77138         2.78411         4.85714
     2017.77412         3.03244         5.05701
     2017.77686        -2.15723         4.98172
     2017.77960         5.65010         5.01220
     2017.78234         0.65743         4.98083
     2017.78507         1.12176         4.93153
     2017.78781        -2.11191         4.91450
     2017.79055         2.53142         4.87596
     2017.79329         6.44875         4.86789
     2017.79603         6.06908         4.96111
     2017.79876        12.72241         4.99696
     2017.80150         5.95874         5.03281
     2017.80424         9.59007         4.95215
     2017.80698         4.08739         4.99965
     2017.80971        -5.92628         5.28020
     2017.81211        -6.84636         5.81530
     2017.81567        -2.27203        14.26487
     2017.81793        -0.11429         5.74718
     2017.82067        -2.99596         5.71133
     2017.82261        -4.04960         7.37489
     2017.82935        -5.02439        13.58994
     2017.83246         0.31639         8.71847
     2017.83436         5.12169         5.50428
     2017.83709         4.99102         5.23359
     2017.83983        -1.56965         4.88223
     2017.84257        -1.07632         4.88940
     2017.84531        -2.71500         4.96918
     2017.84804        -2.90467         4.92257
     2017.85078        -0.40734         4.91092
     2017.85352         2.18199         4.99069
     2017.85626         5.22132         5.06150
     2017.85900        -2.03835         5.05343
     2017.86173         4.55298         5.02475
     2017.86447        -2.06869         4.96918
     2017.86721         1.08164         4.92884
     2017.86995        -1.06903         4.85803
     2017.87269         2.66730         4.87417
     2017.87542        -0.18737         4.87237
     2017.87816        -5.52504         5.23986
     2017.88010        -3.10869         7.40357
     2017.88737        13.14315        10.29598
     2017.88911         7.11427         5.48994
     2017.89185        -4.77640         5.44691
     2017.89373         0.26089         7.88220
     2017.90613        10.48297         6.30379
     2017.90828         4.26458         4.83921
     2017.91102        -2.73109         4.92526
     2017.91375        -2.06376         4.90912
     2017.91649         1.94357         4.80784
     2017.91923         1.08990         4.86789
     2017.92197         4.13422         4.82218
     2017.92470        -0.16745         4.90106
     2017.92744        -7.72512         4.91629
     2017.93018        -9.23179         4.92705
     2017.93292        -4.74546         4.83652
     2017.93566        -4.48413         4.81322
     2017.93839        -1.57980         4.85355
     2017.94113        -4.93147         4.84548
     2017.94387         0.24486         4.84548
     2017.94661        -2.14581         4.89389
     2017.94935         0.37252         4.94766
     2017.95208         2.16485         4.96290
     2017.95482        -3.17482         4.91002
     2017.95756        -0.04449         4.88044
     2017.96030         2.40583         4.91002
     2017.96303        -2.47884         4.83652
     2017.96577         7.37149         5.20222
     2017.96851         6.92282         5.95154
     2017.97125        -1.33785         5.80454
     2017.97399        -0.45352         5.43974
     2017.97592        -6.68616         7.50934
     2017.98580        -9.82815         7.79705
     2017.98767       -10.67887         5.38955
     2017.99041        -1.25954         6.15948
     2017.99315        -0.16521         5.44512
     2017.99503         4.12508         7.93509
     2018.00497        -7.23584         8.00769
     2018.00684        -5.97757         5.47649
     2018.00958        -4.40924         5.75973
     2018.01232        -5.59191         5.93540
     2018.01425        -2.39555         7.65992
     2018.01839         4.37747         6.26077
     2018.02053         1.37908         4.93153
     2018.02304         0.86613         5.34832
     2018.02660        -0.50954         6.30379
     2018.02874        -3.99493         5.12155
     2018.03148        -5.15760         5.98022
     2018.03422        -3.67227         5.04626
     2018.03696        -8.11394         4.95842
     2018.03969        -9.89262         4.86431
     2018.04243       -12.10729         4.98889
     2018.04488        -9.21030         5.80185
     2018.04839       -12.22804         7.12750
     2018.05082        -3.79809         6.57537
     2018.05253        -1.55101         8.00858
     2018.05971       -12.62628         9.90877
     2018.06160        -2.35498         5.74180
     2018.06433        -4.10565         6.38267
     2018.06707        -3.15832         5.82874
     2018.06981        -0.56899         5.70057
     2018.07255       -13.77066         6.50457
     2018.07529       -18.20533         5.05701
     2018.07802       -14.03001         5.16816
     2018.08076        -4.94068         5.07494
     2018.08350        -9.11535         4.98083
     2018.08624        -4.35202         4.97814
     2018.08898       -13.14269         5.01668
     2018.09171        -4.44036         5.39403
     2018.09445        -2.70203         5.00234
     2018.09719        -4.50470         5.19953
     2018.09993        -3.52837         5.01310
     2018.10266        -8.31304         5.01668
     2018.10540        -7.34371         5.20491
     2018.10814        -7.82538         6.30020
     2018.11088        -5.42205         4.94587
     2018.11362         0.10128         4.99786
     2018.11635        -0.19640         5.01399
     2018.11909        -4.25707         5.59301
     2018.12183        -4.92174         5.81351
     2018.12457         1.23359         5.77048
     2018.12731        -4.15608         5.46215
     2018.12919        -2.47979         8.40117
     2018.13913         1.44330         8.36621
     2018.14099        -4.25043         5.75345
     2018.14373        -6.32410         5.44870
     2018.14647         0.07923         5.69609
     2018.14921        -1.54744         5.03909
     2018.15195        -1.04811         4.94139
     2018.15468         2.38121         5.12872
     2018.15742        -0.15046         4.92077
     2018.16016         0.24287         5.02295
     2018.16290        -6.30080         5.11348
     2018.16564        -2.89947         5.16009
     2018.16837        -1.39114         4.98262
     2018.17111        -1.49081         4.97186
     2018.17385        -2.88148         4.98621
     2018.17659        -1.79415         5.02744
     2018.17932        -3.29982         5.44960
     2018.18206        -1.26349         5.68085
     2018.18480         1.51484         6.17831
     2018.18645         1.52985        11.24966
     2018.19367        -6.71437         8.27748
     2018.19575         1.68615         5.84757
     2018.19849        -3.18252         5.94257
     2018.20123         7.46481         5.51414
     2018.20397         3.80214         5.60825
     2018.20670         7.94247         4.93512
     2018.20944         5.27980         4.87954
     2018.21189        -0.95822         5.90403
     2018.21492       -14.24554         4.88940
     2018.21754         1.23165         5.16995
     2018.21976       -11.65564         7.49410
     2018.22290        43.41517        45.92902
     2018.22547         8.54929         8.18157
     2018.23231        -1.37939        13.87676
     2018.23408        -5.65724        10.84005
     2018.23676         3.70002         6.44451
     2018.23916        -5.94306        41.40173
     2018.25142        -0.34815         9.05638
     2018.25325        -4.53493         5.74090
     2018.25593        -1.53667         6.70355
     2018.25872        -4.17727         5.11796
     2018.26146        -1.63994         4.88223
     2018.26420        -1.38661         5.04626
     2018.26711        -1.59908         5.14396
     2018.26967        -8.21695         4.86789
     2018.27241        -9.13163         4.86610
     2018.27492        -1.18857         5.54461
     2018.27783         3.08896         5.11976
     2018.28045        -3.26985         5.55268
     2018.28308        -7.81966         5.54909
     2018.28564        -5.29453         6.21147
     2018.28918       -19.44923        18.14502
     2018.29141       -17.07353        13.15075
     2018.29437        -3.49592        12.52333
     2018.29660        -2.34822         6.86130
     2018.30008        -4.39599         8.99005
     2018.30156         0.22282        14.41007
     2018.30882        -9.40935         7.62675
     2018.31074        -2.56502         5.76600
     2018.31348        -6.26469         5.72925
     2018.31622        -3.67636         5.73732
     2018.31850         0.62842         7.29601
     2018.32776        -6.57432         6.26435
     2018.32991        -1.29271         4.97635
     2018.33264        -0.61138         4.83025
     2018.33538        -6.90805         5.57419
     2018.33812        -2.03672         5.83412
     2018.33995        -2.20050         8.72743
     2018.34717       -15.83172         9.37636
     2018.34907        -4.45541         5.45767
     2018.35181        -0.21008         5.68981
     2018.35455        -2.31975         5.38596
     2018.35728        -1.49942         5.39851
     2018.35922         8.15894         7.59090
     2018.36386        -7.47642        11.51139
     2018.36550        -6.24543         4.86879
     2018.36824        -5.73410         4.85983
     2018.37097        -1.32977         4.93332
     2018.37371         0.91556         4.92167
     2018.37645        -6.59611         5.19415
     2018.37919        -2.17278         5.00234
     2018.38193        -4.59245         4.94946
     2018.38466         1.84488         4.92257
     2018.38740        -2.44479         4.92795
     2018.39014         3.76453         4.90823
     2018.39288         5.00786         4.95932
     2018.39561        -1.11481         4.97635
     2018.39835         3.46152         4.95752
     2018.40109         1.89185         4.91988
     2018.40383         1.51518         4.95573
     2018.40657         2.60451         4.96021
     2018.40930         4.34884         5.06867
     2018.41204         5.26717         4.99696
     2018.41478        -2.91250         4.92167
     2018.42299         9.51249         5.16278
     2018.42573         4.12482         5.44333
     2018.42847         2.42314         5.59301
     2018.43121         1.40047         5.60377
     2018.43394        -2.48220         5.79827
     2018.43588         0.98616         7.26643
     2018.44287       -18.74235        21.93285
     2018.44541       -11.82426        10.21531
     2018.44817         0.72110        10.79075
     2018.45097         2.76150         6.80573
     2018.45311        -1.34089         5.08749
     2018.45585         3.54344         4.89657
     2018.45859         6.99877         4.89478
     2018.46132        -4.77790         4.86431
     2018.46406         1.09143         4.84280
     2018.46680        -3.99825         4.86341
     2018.46954        -0.70392         5.03192
     2018.47227        -0.88659         5.03371
     2018.47501         8.49874         4.91450
     2018.47775         2.22607         4.80784
     2018.48049         2.65440         5.45408
     2018.48323         2.98473         4.93780
     2018.48596        -3.61694         4.80874
     2018.48870         6.24939         4.84907
     2018.49144         2.82372         4.77288
     2018.49418         6.35805         4.90106
     2018.49709        -4.54942         5.39493
     2018.49965         1.11671         4.84997
     2018.50239         0.15304         4.80067
     2018.50513        -0.43364         5.23897
     2018.50787        -2.47831         4.82666
     2018.51060         0.80702         4.87686
     2018.51334        -2.31665         5.01130
     2018.51608         0.19368         4.84817
     2018.51882         5.40801         5.07584
     2018.52156         1.43334         4.78633
     2018.52429         0.25667         4.81949
     2018.52703         2.31100         6.11825
     2018.52977         2.40533         5.44243
     2018.53171        -6.04631         7.06476
     2018.53851       -10.88204        10.83108
     2018.54967         0.22553         8.87084
     2018.55087         2.87899         6.95272
     2018.55551        -3.70237        12.12178
     2018.55715         1.77862         4.88761
     2018.55989         1.60495         5.03102
     2018.56262         4.46828         4.85983
     2018.56536         2.63961         4.82845
     2018.56810         3.05494         5.08659
     2018.57004         1.76530         7.08179
     2018.57985         6.03023         9.60223
     2018.58179        -2.72341         5.65575
     2018.58418        14.96650         6.52249
     2018.58821        10.21040        10.74324
     2018.58909         5.51946         8.18785
     2018.59325        -8.74148        67.16992
     2018.59607         7.26995         7.12213
     2018.59822         6.51356         4.81591
     2018.60095         5.22789         4.81859
     2018.60369         7.37922         4.93063
     2018.60643         7.16055         5.20580
     2018.60917        10.96388         5.29543
     2018.61190         3.53421         4.92526
     2018.61464         3.87254         4.86072
     2018.61738         6.47387         5.05970
     2018.61955        11.50750         7.33186
     2018.62286         5.42752         7.85173
     2018.62537        17.41258        49.64515
     2018.62827        11.37711        11.98554
     2018.63061        -3.32804        12.72052
     2018.63592         8.90841         6.70803
     2018.63883         5.14695         6.09584
     2018.64168         6.36741         6.07164
     2018.64482         6.86423         5.42899
     2018.64750        -0.11551         4.88134
     2018.65023         9.40082         5.04178
     2018.65297        14.35215         4.90016
     2018.65571         4.24748         5.00503
     2018.65845         6.73181         5.64769
     2018.66119         9.15913         5.62169
     2018.66392        10.01246         5.83143
     2018.66581        11.11675         7.62944
     2018.67569         1.68678         8.69337
     2018.67733         5.96176         6.37818
     2018.68115        11.26742         9.30824
     2018.68309        -0.81823         4.96559
     2018.68583         2.46310         4.91271
     2018.68856         1.93743         4.95483
     2018.69130         8.25076         4.93512
     2018.69404         5.29809         5.07673
     2018.69678         3.77942         4.96201
     2018.69952         4.33374         5.03550
     2018.70225         1.93607         5.01847
     2018.70499         2.49140         4.99158
     2018.70773         2.61473         4.95842
     2018.71047         3.82206         4.97635
     2018.71321         7.91139         5.01220
     2018.71594         4.02872         4.96649
     2018.71868        -0.27895         4.96649
     2018.72142        -1.20562         4.94946
     2018.72416         4.01771         4.98889
     2018.72689         6.46804         5.01847
     2018.72963         4.42437         5.11707
     2018.73237         0.03170         4.95394
     2018.73511         0.59303         4.91181
     2018.73785         6.50435         4.93691
     2018.74058         0.05468         4.95842
     2018.74332         7.46001         4.92795
     2018.74606         4.45334         4.91360
     2018.74880        -1.34633         4.85176
     2018.75154         1.57700         4.84817
     2018.75427         9.04133         4.94229
     2018.75701         3.83566         5.03192
     2018.75975         0.34699         4.89568
     2018.76249         7.05132         4.85534
     2018.76522        -6.01035         4.94408
     2018.76796         3.30498         4.89120
     2018.77070         7.45831         4.91002
     2018.77344         0.68264         4.93063
     2018.77618         7.41097         4.94408
     2018.77891         6.46329         5.05701
     2018.78085         9.47265         7.73610
     2018.78818        -2.03743        12.01691
     2018.78987        -7.88139         5.66024
     2018.79260        -1.06506         5.79199
     2018.79534         4.71227         5.76421
     2018.79774        -3.35082         6.50008
     2018.80715        12.16763         8.06864
     2018.80903         4.69092         4.89747
     2018.81177         1.39525         5.14575
     2018.81451         3.44958         4.95483
     2018.81724         0.20790         4.96738
     2018.81998         5.40123         4.93960
     2018.82272         6.25656         4.92077
     2018.82546        11.84389         4.95573
     2018.82820         1.07222         4.90016
     2018.83093         4.17655         4.90554
     2018.83367         9.35188         4.91181
     2018.83641         2.74221         4.97186
     2018.83915         2.21054         4.90912
     2018.84188         1.88987         4.88761
     2018.84462         8.14420         4.86341
     2018.84736         9.62453         4.86431
     2018.85010         3.89386         4.85355
     2018.85284        -0.61581         4.85176
     2018.85557        -3.39049         4.84997
     2018.85831         0.04084         4.87954
     2018.86105        -1.54183         4.88134
     2018.86379        -1.48350         4.96918
     2018.86653         4.51383         4.91809
     2018.86926         0.51116         6.89446
     2018.87200         0.84849         4.87954
     2018.87474         5.81682         4.88582
     2018.87748         5.00715         4.98083
     2018.88021         3.90048         5.01937
     2018.88295         5.68081         5.03102
     2018.88569         1.73414         4.98352
     2018.88843         3.11647         4.99607
     2018.89117         4.46080         5.06329
     2018.89390         5.97612         4.99786
     2018.89664         3.60445         5.09287
     2018.89938         2.72478         4.94229
     2018.90212        -0.67389         4.98710
     2018.90485         3.10044         5.02475
     2018.90759       -11.79923         5.08839
     2018.91033         8.00510         4.99248
     2018.91307        10.07743         5.04716
     2018.91581         8.29676         5.05881
     2018.91854         6.64409         5.05970
     2018.92128         6.68542         5.05433
     2018.92402         5.49875         5.02116
     2018.92676         4.26608         5.02744
     2018.92950         6.52741         4.99427
     2018.93223        -0.62227         5.14216
     2018.93497         1.58706         4.97814
     2018.93771         3.24939         4.99607
     2018.94045         1.05672         4.99248
     2018.94318         4.86805         5.05253
     2018.94592        15.16238         6.19802
     2018.94866         2.61071         5.44333
     2018.95140         6.20104         6.16217
     2018.95328        12.43433         7.75224
     2018.96049         6.16309         8.04264
     2018.96235         3.03536         6.09853
     2018.96509         6.46969         5.71133
     2018.96783        -2.31498         6.31186
     2018.97056        10.65935         4.97635
     2018.97330         2.52167         4.92077
     2018.97604        -1.24000         4.97186
     2018.97878        -0.32467         5.04088
     2018.98151        -5.06034         4.86341
     2018.98425         0.59899         5.00234
     2018.98699        -4.61668         4.97545
     2018.98973        -2.25235         4.90823
     2018.99247         1.98798         4.88403
     2018.99520        -3.71869         4.97276
     2018.99794        -2.84436         4.88044
     2019.00068        -6.38203         4.97635
     2019.00342        -3.66670         4.97186
     2019.00616        -2.50737         4.97635
     2019.00889         3.44396         4.89478
     2019.01163         2.88228         4.88134
     2019.01437         1.91361         4.95573
     2019.01711         6.47494         4.98710
     2019.01984        -3.34473         4.99607
     2019.02258        -2.64640         4.97455
     2019.02532        -5.90207         5.00592
     2019.02806        -3.86774         5.00682
     2019.03080        -2.88641         5.00951
     2019.03353        -5.20308         4.95483
     2019.03627        -7.90275         4.92077
     2019.03901        -2.51642         4.93332
     2019.04175        -5.02709         4.91181
     2019.04449        -3.17576         4.92257
     2019.04722        -3.69543         5.03819
     2019.04996        13.14289         5.11886
     2019.05258        -3.03891         5.40658
     2019.05549         1.81062         5.10542
     2019.05817        -7.57512         5.10900
     2019.06091       -11.39179         5.04178
     2019.06365         0.55054         5.03730
     2019.06639         0.86687         5.10721
     2019.06913        -2.98780         5.02206
     2019.07186         0.21553         5.03461
     2019.07460        -2.45914         4.88403
     2019.07734        -0.81181         4.85534
     2019.08008         4.85752         4.88761
     2019.08282        -0.65915         4.95842
     2019.08555         1.04218         4.88313
     2019.08829        -1.26850         4.84997
     2019.09103         6.22883         4.85893
     2019.09377         9.86616         4.89657
     2019.09650         9.99249         4.83383
     2019.09924         5.14482         4.92974
     2019.10198        -2.21185         4.91540
     2019.10472         1.23948         4.84907
     2019.10746        -4.64319         4.87686
     2019.11019        -2.48086         4.88940
     2019.11293        -1.17153         4.98621
     2019.11567         0.07480         5.11259
     2019.11841        16.16713         4.92705
     2019.12115        16.42046         4.99248
     2019.12388         8.53079         5.21656
     2019.12662         5.53011         4.94587
     2019.12936         3.16344         4.90285
     2019.13210         2.22677         4.94587
     2019.13483         0.60510         5.00324
     2019.13757        -2.80557         4.94408
     2019.14031         5.13476         4.87865
     2019.14305         2.88809         4.89657
     2019.14579        -3.38358         4.84548
     2019.14852        -1.49325         4.89568
     2019.15126        -0.12792         4.89120
     2019.15400        -7.26059         4.91629
     2019.15674        -7.47426         4.84100
     2019.15948        -1.46193         4.87417
     2019.16221        -5.76760         5.01310
     2019.16495        -2.99627         4.88671
     2019.16769       -10.30595         4.83652
     2019.17043        -6.47462         4.84728
     2019.17316        -4.82529         4.86610
     2019.17590        -2.92596         4.90285
     2019.17864        -4.58063         4.99607
     2019.18138        -1.05630         4.88582
     2019.18412        -7.40897         4.85983
     2019.18685        -2.32664         4.89389
     2019.18959        -3.46731         4.90643
     2019.19233        -2.63298         4.89299
     2019.19507        -2.79765         4.91988
     2019.19780        -8.87432         4.95215
     2019.20054        -7.83499         5.02833
     2019.20328       -12.20666         4.94766
     2019.20602        -7.87534         4.90643
     2019.20876        -7.09301         4.95304
     2019.21149        -8.14968         4.95035
     2019.21423        -3.90135         4.90554
     2019.21697        -1.53802         4.93780
     2019.21971        -2.99469         5.06419
     2019.22245        -2.56936         4.91181
     2019.22518        -3.68603         4.89747
     2019.22792        -4.33070         4.92436
     2019.23066        -2.64437         5.48366
     2019.23334        -3.21411         5.03461
     2019.23613       -10.91971         4.91181
     2019.23887        -7.54438         4.94677
     2019.24161        -7.22405         5.06419
     2019.24435        -7.64873         5.04178
     2019.24709        -7.07840         4.99696
     2019.24982        -1.98207         4.85086
     2019.25256        -3.13474         5.04088
     2019.25530        -8.39041         5.04805
     2019.25804        -2.53708         5.02385
     2019.26078        -2.82175         5.01668
     2019.26351        -2.95642         5.05612
     2019.26625        -4.21909         4.85803
     2019.26899        -5.76176         4.98352
     2019.27173        -2.20943         5.18608
     2019.27446        -2.33310         4.96111
     2019.27720        -5.97177         5.00234
     2019.27994        -3.47144         4.88403
     2019.28268       -12.67312         4.91809
     2019.28542        -0.37579         4.92974
     2019.28815         1.30954         4.95842
     2019.29089        -3.65013         4.94408
     2019.29363        -4.06480         4.97097
     2019.29637        -6.70747         5.06239
     2019.29911         0.22486         4.99517
     2019.30184        -0.26181         4.92346
     2019.30458       -11.38348         4.99158
     2019.30732        -6.28515         5.02923
     2019.31006        -3.91582         5.14127
     2019.31279       -11.62549         5.08211
     2019.31553         0.63384         4.94318
     2019.31827        -4.24683         5.00055
     2019.32101        -7.73251         4.99427
     2019.32375       -11.62718         4.99965
     2019.32648        -9.70885         5.03371
     2019.32922        -7.27952         4.98441
     2019.33196        -3.58419         5.12872
     2019.33470        -6.36586         5.07763
     2019.33744        -5.85253         4.95932
     2019.34017        -7.68620         4.95842
     2019.34291        -7.52387         4.91360
     2019.34565        -5.48954         5.02206
     2019.34839        -5.25721         5.03909
     2019.35112        -0.97288         4.99158
     2019.35386        -4.97555         4.91002
     2019.35660        -2.96622         4.90374
     2019.35934        -4.05289         4.91450
     2019.36208        -1.22157         4.91809
     2019.36481        -2.74024         5.01937
     2019.36755        -2.34991         4.96918
     2019.37029        -0.25758         4.95304
     2019.37303         2.36175         4.90823
     2019.37577        -3.80192         5.04536
     2019.37850         3.32541         4.96828
     2019.38124         1.42874         4.92077
     2019.38398         3.26507         4.87775
     2019.38672         2.33240         4.89120
     2019.38945        -4.30927         4.87506
     2019.39219         1.93006         4.94408
     2019.39493        -0.77861         4.87237
     2019.39767        -2.61328         4.98083
     2019.40041        -0.03496         4.94677
     2019.40314         0.18537         4.92795
     2019.40588         2.19770         4.91271
     2019.40862        -2.84497         4.91271
     2019.41136        -1.05564         4.99517
     2019.41410         3.86969         4.95752
     2019.41683        -1.36298         4.97904
     2019.41957         1.01835         4.97007
     2019.42231        -1.72232         4.93691
     2019.42505        -1.32699         4.87686
     2019.42778         0.21034         5.07315
     2019.43052         1.26467         4.95573
     2019.43326        -7.43200         4.99875
     2019.43600        -9.20767         4.90016
     2019.43874        -5.22135         4.95663
     2019.44147        -5.49102         4.96021
     2019.44421        -3.34569         5.02833
     2019.44695         5.12764         5.13768
     2019.44969        -1.61303         5.05522
     2019.45243         2.12030         5.05881
     2019.45516        -0.52037         4.92167
     2019.45790         5.26096         5.06777
     2019.46064        -3.38071         5.08122
     2019.46338         3.34762         5.37431
     2019.46611         2.64395         5.20939
     2019.46885         8.44928         5.12513
     2019.47159        -0.74139         4.95035
     2019.47433         6.76694         5.02833
     2019.47707         4.18626         5.02295
     2019.47980         3.88959         4.93243
     2019.48254         1.05692         4.98352
     2019.48528        -3.27775         5.00503
     2019.48802        -8.40942         5.05612
     2019.49076        -6.56109         4.81053
     2019.49349        -2.33476         4.84728
     2019.49623        -0.12543         4.87058
     2019.49897        -2.07710         4.84548
     2019.50171         0.08223         4.84817
     2019.50444        -5.85544         4.84548
     2019.50718        -5.54811         4.87775
     2019.50992         0.71022         4.88403
     2019.51266        -5.32145         4.92436
     2019.51540        -2.71213         4.92257
     2019.51813        -2.54580         4.94946
     2019.52087         3.53153         4.90823
     2019.52361        -4.04814         4.90374
     2019.52635        -1.53581         4.88761
     2019.52908        -4.28148         5.15651
     2019.53182        -3.13915         5.13589
     2019.53456        -3.35082         5.04178
     2019.53730        -8.22549         5.10631
     2019.54004         4.75984         5.10273
     2019.54277         6.97617         5.11079
     2019.54551         3.59050         5.13320
     2019.54825         1.08283         4.86968
     2019.55099        -1.72884         4.89120
     2019.55373         2.59849         5.04716
     2019.55646        -4.11419         5.02923
     2019.55920         6.51314         5.12424
     2019.56194        -2.83753         7.13378
     2019.56468         0.10680         4.93780
     2019.56741        -1.54387         4.92526
     2019.57015        -3.84854         4.87237
     2019.57289         5.28079         4.99786
     2019.57563         5.27612         4.82218
     2019.57837         5.66645         4.95304
     2019.58110         7.40678         4.90285
     2019.58384         0.52111         5.06060
     2019.58658         3.45244         5.12513
     2019.58932        10.20077         4.83742
     2019.59206        11.95010         5.10990
     2019.59479        10.95942         4.95663
     2019.59753         9.53175         5.03281
     2019.60027        -1.85892         5.20939
     2019.60301        -1.72459         4.88313
     2019.60574         8.21174         5.14934
     2019.60848        10.33907         5.15740
     2019.61122        -0.36360         4.82218
     2019.61396         0.65073         4.96380
     2019.61670        -1.11894         4.86789
     2019.61943         4.83639         4.84190
     2019.62217        -0.52728         4.97276
     2019.62491        11.31605         4.87865
     2019.62765         8.48638         4.84997
     2019.63039         7.95371         4.87058
     2019.63312         2.77303         4.79708
     2019.63586         9.05236         4.80156
     2019.63860        10.12969         4.81411
     2019.64407         6.95135         4.88761
     2019.64681         2.42568         4.92346
     2019.64955         0.48201         5.03371
     2019.65229         5.77434         4.76750
     2019.65503         1.18467         4.89209
     2019.65776         0.17900         5.07046
     2019.66050         6.86633         5.28647
     2019.66290        -0.20476         5.58584
     2019.66603         9.42006         5.09645
     2019.66872         5.55632         4.92884
     2019.67145         2.96964         5.02475
     2019.67419         0.94997         4.99875
     2019.67693         3.60030         5.09825
     2019.67967         8.73763         5.17174
     2019.68240         0.46196         5.00413
     2019.68514         4.95729         4.87596
     2019.68788         0.18662         5.05522
     2019.69062        -1.65505         4.99696
     2019.69336        -1.07672         4.90195
     2019.69609         0.77161         4.82845
     2019.69883        -1.69006         4.91898
     2019.70157         1.50827         4.85893
     2019.70431         1.89560         5.02564
     2019.70705         4.98393         4.91360
     2019.70978         1.97625         4.77916
     2019.71252         1.81758         4.84728
     2019.71526         4.44191         4.80515
     2019.71800         3.88824         5.16457
     2019.72073         1.70757         5.12155
     2019.72347         1.04690         4.83652
     2019.72621         3.88123         4.83742
     2019.72895         1.56256         5.05343
     2019.73169         6.69389         4.87596
     2019.73442         1.45522         5.06508
     2019.73716         4.76055         5.01668
     2019.73990         7.56788         5.08839
     2019.74264         4.47721         4.97276
     2019.74538         3.08254         4.85714
     2019.74811         3.57187         4.95394
     2019.75085         3.08319         5.01130
     2019.75359         3.00652         5.15561
     2019.75633         3.89285         5.02385
     2019.75906         1.88018         4.90733
     2019.76180         0.99051         4.87417
     2019.76454         3.94984         4.92167
     2019.76728         0.42417         5.01220
     2019.77002         2.44850         5.06419
     2019.77275        -2.52317         5.07853
     2019.77549         2.85216         4.98441
     2019.77824         3.46150         4.98800
     2019.78097         8.32082         5.01937
     2019.78371         3.37915         5.01489
     2019.78644         1.00848         5.02385
     2019.78918         4.08380         4.98083
     2019.79192         7.41013         4.99248
     2019.79466         9.99346         4.93153
     2019.79739         7.27779         4.92615
     2019.80013         6.54612         4.98800
     2019.80287         4.46945         4.96380
     2019.80561         3.90478         5.05074
     2019.80835         0.63911         4.90643
     2019.81108        -0.33456         4.86700
     2019.81382         2.15977         4.92884
     2019.81656         2.14510         5.00951
     2019.81930         4.12543         4.94587
     2019.82203         4.90176         4.96738
     2019.82477        -0.26691         4.87148
     2019.82751        -2.66359         4.84728
     2019.83025         2.75474         5.07763
     2019.83299        -0.93193         5.03998
     2019.83572         0.98440         4.89209
     2019.83846         8.25273         4.95304
     2019.84120         3.91706         4.90823
     2019.84394         4.22439         5.21656
     2019.84668         0.07472         5.04805
     2019.84941         1.93705         5.03819
     2019.85215         2.72838         5.11079
     2019.85489         1.99671         4.97545
     2019.85763         4.55004         4.98531
     2019.86036         4.11937         5.10810
     2019.86310         2.40570         5.01310
     2019.86584         9.09902         5.08122
     2019.86858         3.59835         5.02833
     2019.87132         3.39168         5.08928
     2019.87405         2.94601         5.09914
     2019.87679         0.36034         5.20401
     2019.87953         6.40467         4.97276
     2019.88227        15.78700         5.17174
     2019.88501        11.09433         5.02385
     2019.88774         8.12466         5.13410
     2019.89048        12.29499         4.94229
     2019.89322        12.93132         4.96649
     2019.89596         7.76365         5.04626
     2019.89869        10.25398         4.95842
     2019.90143         5.01731         4.94318
     2019.90417        10.02663         4.97007
     2019.90691         4.20896         4.91360
     2019.90965         6.95329         4.99696
     2019.91238         7.40962         4.93153
     2019.91512         3.55795         4.93063
     2019.91786        -4.02572         4.93601
     2019.92060         2.89161         4.90643
     2019.92334        11.16294         5.01668
     2019.92607         9.74327         4.95663
     2019.92881         3.19860         4.90912
     2019.93155         5.55693         4.89478
     2019.93429         8.57726         4.93512
     2019.93702         4.88259         4.89926
     2019.93976         1.34992         4.95932
     2019.94250         4.54025         5.01489
     2019.94524       -10.32543         4.90823
     2019.94798         1.56590         4.91450
     2019.95071         1.07823         5.14396
     2019.95345         5.92856         4.99786
     2019.95619         5.26889         4.96201
     2019.95893        -1.76178         4.86610
     2019.96167         4.86055         4.91988
     2019.96440        -7.22712         4.98621
     2019.96714       -19.54579         5.20222
     2019.96988       -13.04346         5.06777
     2019.97262         5.81687         5.01937
     2019.97535         3.50120         4.95215
     2019.97809        -0.67847         4.92884
     2019.98083         7.02486         5.08928
     2019.98357         0.77918         5.04984
     2019.98602        -0.87683         5.65934
     2019.98904         1.16184         5.03102
     2019.99178        -0.48483         4.94229
     2019.99452        -1.81450         5.05522
     2019.99726         6.48983         5.07046
     2020.00000         1.09516         5.19057
     2020.00273        10.64649         5.12065
     2020.00547         4.08682         5.05522
     2020.00821        -1.59685         5.12065
     2020.01095         1.60548         5.17443
     2020.01368        -7.64719         5.17981
     2020.01642         0.72814         5.14485
     2020.01916         4.09947         5.14485
     2020.02190         1.37279         5.16905
     2020.02464        -7.75188         5.18071
     2020.02737        -7.08755         5.04716
     2020.03011         2.36078         5.04626
     2020.03285        -9.14889         5.02564
     2020.03559         0.71444         4.96738
     2020.03833        -0.69023         4.94318
     2020.04106        -2.54790         5.08749
     2020.04380         2.04143         4.99248
     2020.04654         0.31376         4.92615
     2020.04928        -2.28091         4.88940
     2020.05201         1.15742         4.86162
     2020.05475         3.29275         4.95932
     2020.05749         4.02208         4.88582
     2020.06023         1.23440         4.87775
     2020.06297         0.52073         4.89299
     2020.06570        -0.53494         4.90195
     2020.06844         3.06339         4.91898
     2020.07118         3.32272         4.98979
     2020.07392        -5.51595         5.01489
     2020.07666        -8.49562         4.97993
     2020.07939        -8.11729         4.92705
     2020.08213         0.09304         4.99875
     2020.08487         0.92137         4.97097
     2020.08761         5.64170         4.93691
     2020.09034         2.51803         4.95483
     2020.09308         3.56036         4.94946
     2020.09582         1.22269         4.92167
     2020.09856         0.59401         4.90733
     2020.10130        -6.35066         4.86072
     2020.10403        -2.13133         5.09018
     2020.10677        -2.52300         4.95125
     2020.10951        -5.94667         4.94229
     2020.11225        -0.32034         4.96290
     2020.11498         2.02999         4.95394
     2020.11772        -0.66668         5.00503
     2020.12046         0.50665         5.10810
     2020.12320        -1.81102         4.86162
     2020.12594        -7.87369         4.89747
     2020.12867        -7.99336         4.94946
     2020.13141        -4.28503         4.83831
     2020.13415        -9.55070         4.91540
     2020.13689        -2.98437         5.01489
     2020.13963        -2.24005         5.03550
     2020.14236        -0.21772         4.92884
     2020.14510         3.55861         5.03998
     2020.14784        -0.52106         4.95483
     2020.15058        -5.34273         4.90016
     2020.15331        -9.11240         4.92077
     2020.15605        -8.61607         4.92705
     2020.15879        -0.22574         5.02744
     2020.16153        -1.68841         4.96559
     2020.16427         2.19392         5.02475
     2020.16700         0.72325         4.92615
     2020.16974         3.63958         4.92974
     2020.17248        -3.34109         4.97097
     2020.17522         0.62824         4.99786
     2020.17796         1.65856         4.92077
     2020.18069         1.29989         4.99069
     2020.18343        -0.61778         4.91271
     2020.18617        -4.92545         4.92884
     2020.18891        -3.61512         5.08659
     2020.19164        -0.16979         5.09107
     2020.19438        -4.45746         5.09197
     2020.19712        -0.89013         5.11169
     2020.19986        -4.28980         5.01758
     2020.20260        -5.26547         4.99607
     2020.20533        -2.00914         5.08480
     2020.20807        -2.67781         5.08839
     2020.21081        -8.01748         5.07584
     2020.21355        -4.98815         5.39313
     2020.21629        -7.66983         5.27213
     2020.21902        -3.32550         5.18608
     2020.22176        -5.49917         5.07853
     2020.22450        -2.01784         5.09197
     2020.22724        -2.34651         5.09107
     2020.22997        -2.24718         5.02206
     2020.23271         0.09515         5.06956
     2020.23545        -2.01952         5.01937
     2020.23819        -2.47219         5.00413
     2020.24093        -2.11286         5.00772
     2020.24366        -1.33853         5.02654
     2020.24640        -2.13320         5.02027
     2020.24914        -8.66387         5.15292
     2020.25188        -4.77154         4.98083
     2020.25462        -6.71922         5.00592
     2020.25735        -0.49489         5.04626
     2020.26009         2.66444         4.99069
     2020.26283        -4.50323         5.04626
     2020.26557        -4.73990         5.04447
     2020.26830        -0.88357         5.04088
     2020.27104        -2.77824         4.97007
     2020.27378        -1.65291         5.05253
     2020.27652        -0.07158         5.12065
     2020.27926        -0.23125         5.11796
     2020.28199        -4.62192         5.14216
     2020.28473        -5.84759         5.02833
     2020.28747         0.89674         5.08211
     2020.29021        -9.13293         5.04805
     2020.29295        -3.70761         4.95215
     2020.29568         1.57872         5.06239
     2020.29842         2.98405         5.06150
     2020.30116         1.62138         5.01937
     2020.30390         1.68071         5.00144
     2020.30663        -0.70496         4.95842
     2020.30937       -13.20263         5.11528
     2020.31211        -8.60530         5.08839
     2020.31485        -5.76497         5.01399
     2020.31759        -1.86764         5.00413
     2020.32032         0.58369         4.90554
     2020.32306        -0.29498         4.92974
     2020.32580        -5.38265         4.90195
     2020.32854        -2.52032         5.07494
     2020.33128        -6.59999         4.92526
     2020.33401        -1.02867         4.94677
     2020.33675        -1.44634         4.93601
     2020.33949        -5.98601         4.92077
     2020.34223        -6.72668         5.06060
     2020.34496        -4.04235         5.04447
     2020.34770        -5.56602         4.95483
     2020.35044        -2.05669         5.02833
     2020.35318        -9.11636         5.10990
     2020.35592        -8.06303         5.04895
     2020.35865        -3.32370         4.91988
     2020.36139        -1.85837         5.07404
     2020.36413         4.50996         5.02116
     2020.36687         0.59129         5.03909
     2020.36961        -4.69938         5.03819
     2020.37234        -5.13306         4.99427
     2020.37508        -0.10873         4.93601
     2020.37782        -1.98540         4.95035
     2020.38056        -0.81707         4.98172
     2020.38329        -2.85374         4.99607
     2020.38603        -2.78941         4.96290
     2020.38877        -2.46508         5.06867
     2020.39151        -4.17775         4.94766
     2020.39425        -4.56742         4.98083
     2020.39698        -2.86509         4.99965
     2020.39972        -5.81676         4.98262
     2020.40246        -3.18343         4.96021
     2020.40520        -2.54710         5.03102
     2020.40794        -4.95277         4.91002
     2020.41067        -1.02445         5.12155
     2020.41341         7.28688         5.07404
     2020.41615        -3.35679         4.84997
     2020.41889        -8.10146         4.90106
     2020.42162        -4.69513         4.89747
     2020.42436       -10.81880         5.18698
     2020.42710        -1.30147         5.13589
     2020.42984         3.23586         5.12782
     2020.43258         1.96919         5.01758
     2020.43531        -3.13348         5.01668
     2020.43805        -7.20315         5.06598
     2020.44079        -5.01782         5.11707
     2020.44353         0.01951         5.07225
     2020.44626         0.38284         4.97366
     2020.44900        -0.58384         4.99517
     2020.45174        -2.13651         4.90643
     2020.45448        -1.10918         4.96738
     2020.45722         0.30515         4.93332
     2020.45995         1.85648         4.90285
     2020.46269        -7.36119         4.88851
     2020.46543        -4.33586         4.94946
     2020.46817        -0.91653         4.92705
     2020.47091        -0.66420         4.98083
     2020.47364        -7.02087         5.09107
     2020.47638         2.57546         4.95483
     2020.47912        -1.86021         5.24434
     2020.48186        -4.11588         5.06598
     2020.48459        -6.35055         5.13768
     2020.48733         4.25977         5.33667
     2020.49007         1.46110         5.18340
     2020.49281         2.75843         5.02564
     2020.49555        -4.37524         5.04267
     2020.49828        -1.27691         5.00055
     2020.50102        -9.46058         4.94049
     2020.50376        -5.40425         4.97904
     2020.50650        -1.16992         4.96559
     2020.50924        -7.27059         4.98621
     2020.51197        -0.58026         4.87417
     2020.51471         3.30307         4.92077
     2020.51745        -2.65960         4.92795
     2020.52019         4.51773         5.09735
     2020.52292         5.61306         5.17443
     2020.52566        -2.24861         5.06419
     2020.52840        -2.57129         5.18967
     2020.53114        -3.42996         5.21477
     2020.53388         2.43337         5.04626
     2020.53661        -0.13330         5.10183
     2020.53935         0.30003         5.06956
     2020.54209         2.83836         5.17174
     2020.54483        -3.22231         5.15471
     2020.54757         0.13802         4.95125
     2020.55030         0.87635         4.96828
     2020.55304         4.24268         5.12065
     2020.55578         3.76901         5.05164
     2020.55852         3.08934         5.13948
     2020.56125         2.71467         5.03281
     2020.56399         8.93700         5.05701
     2020.56673         0.70832         5.03461
     2020.56947         5.38365         5.06150
     2020.57221        -0.63502         5.61990
     2020.57494         7.62231         5.18967
     2020.57768         9.10064         5.06508
     2020.58042        -0.59503         5.20849
     2020.58316        -6.88770         5.10810
     2020.58590        -0.56837         5.06598
     2020.58863         5.56096         5.10542
     2020.59137         1.95129         5.02654
     2020.59411         7.98262         5.04536
     2020.59685         6.31495         5.22283
     2020.59958         3.78128         5.43974
     2020.60232         2.05661         5.08122
     2020.60506         0.84893         5.01399
     2020.60780         2.62726         5.02923
     2020.61054         1.99459         5.04536
     2020.61327         4.57392         5.19325
     2020.61601         0.65525         5.04716
     2020.61875        -0.30042         5.03730
     2020.62103        -5.30964         6.09405
     2020.62696         5.73457         5.36714
     2020.62970         8.34590         5.16457
     2020.63244         7.06223         5.76421
     2020.63518        13.03056         6.39880
     2020.63752         0.87240         6.94914
     2020.64688        18.95679         9.75819
     2020.64852         3.95379         6.69907
     2020.65199         3.10301        12.13881
     2020.65521        -2.15008        10.46359
     2020.65628         2.82422         7.50127
     2020.65998         6.02972         5.29992
     2020.66256         9.19185         5.15292
     2020.66529         8.77018         5.04357
     2020.66803         4.75051         5.03102
     2020.67077         5.42784         5.07136
     2020.67351         7.40617         5.04626
     2020.67624         6.58550         5.09914
     2020.67898        -1.50317         5.09107
     2020.68172        -3.21685         5.14037
     2020.68446         7.28348         5.13948
     2020.68720         0.53881         5.07673
     2020.68993         1.54714         5.03371
     2020.69267         1.66447         5.10631
     2020.69541         0.64480         5.31964
     2020.69815         3.99813         5.16278
     2020.70089         1.13846         5.02295
     2020.70362        -2.04421         5.03640
     2020.70636        -3.70688         5.34832
     2020.70910        -1.62555         5.29454
     2020.71184         2.40478         5.12603
     2020.71457         0.18111         5.06329
     2020.71731        -1.43556         5.23717
     2020.72005        -1.79523         5.25241
     2020.72279        -0.11591         5.09197
     2020.72553         7.43942         5.22821
     2020.72826         5.55775         5.18429
     2020.73100         5.48908         5.41644
     2020.73374         5.20541         5.03909
     2020.73648         0.19674         5.21118
     2020.73921        -2.71693         5.07584
     2020.74195         2.87240         5.06329
     2020.74469         3.09573         5.04805
     2020.74743         1.52706         5.10542
     2020.75017        -0.64461         5.13051
     2020.75290        -0.64028         5.05701
     2020.75564         0.76105         5.11259
     2020.75838        -0.82362         4.97545
     2020.76112         5.69970         4.98262
     2020.76386         0.94203         5.01130
     2020.76659         3.16236         4.96111
     2020.76933         6.32069         5.02833
     2020.77207         5.46302         4.93063
     2020.77481         5.57135         5.00951
     2020.77754         4.92268         5.05433
     2020.78028        14.14401         5.09197
     2020.78302         0.07434         5.00324
     2020.78576         1.22067         5.11169
     2020.78850         0.22400         4.97724
     2020.79123        -1.00467         5.05701
     2020.79397         0.83866         5.14575
     2020.79671        -5.57801         5.05791
     2020.79945        -3.12469         5.02564
     2020.80219         5.65564         5.20670
     2020.80492         2.82997         5.06239
     2020.80766        -1.23270         5.13499
     2020.81040        -1.35137         5.10452
     2020.81314         4.76696         5.08570
     2020.81587        -0.65871         5.03102
     2020.81861        -1.57838         5.07046
     2020.82135         1.97495         5.05253
     2020.82409         1.95228         5.02027
     2020.82683         0.51761         5.00234
     2020.82956         1.02294         5.08570
     2020.83230         0.34927         5.20043
     2020.83504         0.40460         5.10273
     2020.83778         3.47292         4.97993
     2020.84052         4.50625         4.96469
     2020.84325         1.06358         5.10631
     2020.84599         1.75291         5.09556
     2020.84873        10.35224         5.00055
     2020.85147         4.70257         4.94049
     2020.85694        10.85423         4.91002
     2020.85968         3.81256         4.94498
     2020.86242         6.71589         5.00413
     2020.86516         6.20122         5.13231
     2020.86789        17.03555         5.23986
     2020.87063         9.21288         4.98531
     2020.87337        21.28421         4.97366
     2020.87611        13.84853         5.10810
     2020.87885         9.05286         5.08928
     2020.88158         5.29619         5.11348
     2020.88432         5.53552         5.00413
     2020.88706         3.62885         5.17085
     2020.88980        -2.40282         5.08390
     2020.89253         1.93351         4.93512
     2020.89527         6.77184         5.08122
     2020.89801         7.32217         5.06777
     2020.90075         6.89750         4.94318
     2020.90349         7.72283         5.01399
     2020.90622         1.40916         4.95932
     2020.90896         1.66149         5.14127
     2020.91170         4.13682         5.19415
     2020.91444         3.41215         5.03013
     2020.91718        -2.70653         5.05791
     2020.91991        -3.63920         4.98441
     2020.92168        -7.15405         9.02501
     2020.92431       -11.48186        10.76744
     2020.93908        -3.38089         5.08659
     2020.94182        -1.88156         4.98262
     2020.94455        -0.53823         5.01758
     2020.94729        -3.79990         4.99965
     2020.95003        -5.14357         5.05612
     2020.95277        -9.68724         5.06239
     2020.95551        -8.50792         5.00144
     2020.95824        -5.39359         5.07853
     2020.96098        16.03974         5.10990
     2020.96372        -5.00193         5.09735
     2020.96646         1.30240         5.12513
     2020.96919       -11.03227         5.10542
     2020.97193        -7.38094         5.10004
     2020.97467        -2.50161         5.10362
     2020.97741        -5.95328         5.11438
     2020.98015        -5.82695         5.27482
     2020.98288        -3.00062         5.20670
     2020.98562        -5.60529         5.01578
     2020.98836         4.43904         5.01489
     2020.99110         2.23437         5.00324
     2020.99384        -1.93831         4.98621
     2020.99657         2.29502         5.06598
     2020.99914        -6.09585         6.58523
     2021.00205        -9.79232         5.37162
     2021.00479         5.87801         4.96918
     2021.01026         6.78567         5.01399
     2021.01300         4.70900         5.19236
     2021.01574         6.97933         4.97635
     2021.01848        -7.99134         4.99517
     2021.02121         1.83099         5.10183
     2021.02395        -0.37068         4.98531
     2021.02669         1.52365         5.96409
     2021.02943        -4.47902         4.99069
     2021.03216       -12.67970         5.03550
     2021.03399       -24.99448         8.93717
     2021.04038        -3.37171         5.03819
     2021.04312         0.46562         5.02923
     2021.04585         0.01095         5.06687
     2021.04859         0.49128         5.02116
     2021.05133        -5.73839         4.94318
     2021.05407         0.18194         5.24166
     2021.05681        -0.95473         5.01758
     2021.05954        -5.79640         4.97276
     2021.06776         2.51659         4.94856
     2021.07049        -2.05509         4.91360
     2021.07323        -5.20876         4.96738
     2021.07597        -6.98543         4.98531
     2021.07871        -2.47910         5.00592
     2021.08145        -4.89177         5.01399
     2021.08418        -7.03044         4.96201
     2021.08692       -11.46411         4.97186
     2021.08966        -5.88778         4.96918
     2021.09240        -6.78945         4.98710
     2021.09514        -6.64812         5.09197
     2021.09787        -5.78579         5.10631
     2021.10061        -4.96146         4.96469
     2021.10335         1.33287         4.95035
     2021.10609        -4.98180         4.97545
     2021.10882        -3.48447         4.98441
     2021.11156        -4.14015         4.89120
     2021.11430       -10.54682         4.99338
     2021.11704        -4.71449         4.98083
     2021.11978       -13.67916         5.11348
     2021.12251       -21.37283         4.95842
     2021.12525       -21.48750         5.00861
     2021.12799        -0.37717         5.03013
     2021.13073        -5.95784         5.70595
     2021.13347        -7.32051         5.17891
     2021.13620       -18.48718         5.05791
     2021.13894         9.61115         5.17533
     2021.14168        -5.02352         5.03909
     2021.14442        -8.84419         5.23180
     2021.14715        -4.15986         5.15919
     2021.14989        -8.81754         5.02744
     2021.15166        -6.29239        10.46987
     2021.16358        -3.08389         5.68533
     2021.16632        -3.12256         5.03819
     2021.16854         0.49115         6.48036
     2021.17219        -9.56842         5.54909
     2021.17453        -9.81657         5.50159
     2021.17727        -0.56624         5.03550
     2021.18001       -11.23991         4.98172
     2021.18275        -8.94158         8.16992
     2021.18548       -11.70925         4.98083
     2021.18822        -6.63193         4.95304
     2021.19079        -5.58380         5.35370
     2021.21281        -7.97703         5.18788
     2021.21560        -9.81063         4.86431
     2021.21834        -6.68230         4.86072
     2021.22108        -5.55197         4.83921
     2021.22381       -10.68364         4.86341
     2021.22655        -5.60032         4.89299
     2021.22929        -4.55299         4.96649
     2021.23203        -1.99766         4.82756
     2021.23477       -11.06933         4.84728
     2021.23750       -14.94500         4.89030
     2021.24024        -5.80567         4.97007
     2021.24298        -4.58234         4.87327
     2021.24572        -9.89901         4.87686
     2021.25119        -6.45535         4.89209
     2021.25393        -8.57302         4.87237
     2021.25667        -4.91069         4.80425
     2021.25941        -1.33736         4.84907
     2021.26214        -4.01203         4.81591
     2021.26488        -4.10471         4.85086
     2021.26762         1.16662         4.99069
     2021.27036        -1.36805         4.89299
     2021.27310         1.92528         4.81501
     2021.27583        -1.95439         4.85534
     2021.27857        -6.70206         4.91002
     2021.28131        -2.83773         4.96469
     2021.28405        -0.95740         4.92705
     2021.28679        -0.90807         4.90733
     2021.28952         5.04026         4.89747
     2021.29226        -5.61741         4.92167
     2021.29500        -2.50408         4.91719
     2021.29774        10.47225         5.16368
     2021.30047        -0.23642         4.97007
     2021.30321         4.22591         4.91360
     2021.30595         7.30723         5.09466
     2021.30869         9.33256         5.10273
     2021.31143         2.35289         4.86162
     2021.31416         8.10622         4.86341
     2021.31690         0.51755         4.86251
     2021.31964         4.05388         4.89568
     2021.32238        -1.65779         5.01310
     2021.32512       -12.41346         4.85624
     2021.32785        -3.49913         4.94318
     2021.33059         3.79520         4.94408
     2021.33333         4.22753         4.91809
     2021.33607        -1.26514         4.89299
     2021.33880        -1.37781         4.83562
     2021.34154        -4.13048         4.92257
     2021.34428        -4.86116         5.01668
     2021.34702       -10.58483         5.01937
     2021.34976        -3.14250         4.88582
     2021.35249        -6.23717         4.93601
     2021.35523        -3.34484         4.92795
     2021.35797        -8.65451         4.96111
     2021.36071        -6.01518         4.95215
     2021.36344        -3.26585         4.94408
     2021.36618        -4.33552         4.97186
     2021.36892        -5.64519         4.96828
     2021.37166        -3.19486         4.92346
     2021.37440        -1.77353         4.95932
     2021.37616        -0.46238         9.04114
     2021.37987         0.57613         5.07763
     2021.38261        -3.10055         5.17981
     2021.38535        -1.25422         5.09107
     2021.38809        -2.66389         5.07494
     2021.39082        -2.70156         4.94408
     2021.39356        -1.61123         5.03013
     2021.39630        -6.78890         5.25869
     2021.39904        -5.13357         4.88223
     2021.40177        -2.80024         4.94139
     2021.40451         1.95209         5.21297
     2021.40725         0.60342         5.00413
     2021.40999         5.61975         4.87237
     2021.41273        -0.45492         4.88134
     2021.41546        -0.05459         5.00055
     2021.41820        -4.27426         4.99069
     2021.42094        -5.15894         5.02744
     2021.42368         3.23239         5.03998
     2021.42642         4.43072         4.96111
     2021.42915         5.43005         5.01130
     2021.43189         0.30238         5.07584
     2021.43463        -0.51329         5.00055
     2021.43737        -4.89196         5.73373
     2021.44010        -7.76563         5.11438
     2021.44284        -9.42830         5.08839
     2021.44541       -12.46018         5.41196
     2021.44892         0.74909         6.78601
     2021.45106        -6.13931         5.22642
     2021.45379         5.62602         5.36087
     2021.45653        -6.78765         5.22463
     2021.45927        -0.09433         5.03192
     2021.46201         0.21100         5.09376
     2021.46475        -0.51067         5.06956
     2021.46748        -0.55834         5.08659
     2021.47022         1.60899         5.14037
     2021.47296         3.55032         5.26227
     2021.47570         0.45065         5.19774
     2021.47843         7.87398         5.22552
     2021.48117         0.89631         5.12245
     2021.48391        -4.04636         5.09018
     2021.48665       -10.77003         6.40597
     2021.48939        -3.69170         5.36983
     2021.49212        -4.14537         5.10183
     2021.49486        -2.71504         5.06060
     2021.49760         3.37029         6.36474
     2021.50034         4.18161         5.28737
     2021.50308         1.93194         5.11259
     2021.50581         1.88027         5.09556
     2021.50855         4.67860         5.05970
     2021.51129         5.13193         5.03640
     2021.51403         2.45126         5.10004
     2021.51676         5.85859         5.02295
     2021.51950         3.43292         5.18788
     2021.52224        -0.83175         5.02744
     2021.52498         5.41458         5.02385
     2021.52772         2.29191         5.13410
     2021.53045         1.44524         5.03909
     2021.53319         1.72057         5.09914
     2021.53593        -0.02110         5.21028
     2021.53867         6.96022         5.35011
     2021.54141         3.13555         5.14037
     2021.54414        -1.06512         5.16726
     2021.54688        -5.53879         5.03192
     2021.54962        -4.00946         5.04984
     2021.55509         5.42220         6.08509
     2021.55783        -2.50347         5.05612
     2021.56057        -0.80914         5.02295
     2021.56331         4.94519         5.04805
     2021.56605         1.51252         5.13141
     2021.56878         0.24185         5.05164
     2021.57152         0.93718         5.12245
     2021.57426        -8.37149         5.22373
     2021.57700         1.81583         5.29723
     2021.57974         0.94116         5.13858
     2021.58247        -9.31951         5.15740
     2021.58521        -2.68618         5.24076
     2021.58795         1.24715         5.19146
     2021.59069         5.00148         5.19953
     2021.59342         1.35881         5.35011
     2021.59616         1.94614         5.37700
     2021.59890        -0.10653         5.12513
     2021.60164         4.73080         5.42988
     2021.60438         0.57213         5.00951
     2021.60711        -1.44754         5.07673
     2021.60985         8.98679         5.44422
     2021.61259         4.17312         5.16905
     2021.61533        -2.71956         5.09197
     2021.61807        -1.06823         5.03909
     2021.62080        -1.84190         4.98352
     2021.62354         3.45543         4.97635
     2021.62628         7.66076         5.13858
     2021.62902        -0.45891         5.65127
     2021.63175        -0.79158         5.17622
     2021.63449         4.11675         5.00324
     2021.63723         8.17208         5.29902
     2021.63997         0.35141         5.14485
     2021.64271         4.34974         5.11259
     2021.64544         1.31907         5.08928
     2021.64818         5.04440         4.95304
     2021.65092         3.48873         5.00682
     2021.65366         1.63605         5.06687
     2021.65639        -2.03662         5.09107
     2021.65913        -0.53029         5.02744
     2021.66187         5.46004         4.99607
     2021.66461         3.80537         5.04626
     2021.66735         1.74270         5.02564
     2021.67008         5.49803         5.27661
     2021.67282         9.47136         5.18340
     2021.67556         2.13169         5.25510
     2021.67830        -0.43898         5.05791
     2021.68104         3.78435         4.92257
     2021.68377         4.29968         4.96021
     2021.68651         5.61101         4.97814
     2021.68925        11.08334         5.07494
     2021.69199         9.13167         5.11169
     2021.69472         5.59299         5.52758
     2021.69746        -0.03168         5.06150
     2021.70020         4.41965         5.06508
     2021.70294         4.01898         5.05164
     2021.70568         1.50631         5.03281
     2021.70841         6.48464         5.05522
     2021.71115         5.21497         4.98441
     2021.71389         2.50930         5.07673
     2021.71663        -0.51037         5.03281
     2021.71937         1.14596         4.96559
     2021.72210        -4.71771         4.93243
     2021.72478        -1.23845         5.05343
     2021.72758         0.01895         5.01399
     2021.73032        -1.16172         5.27840
     2021.73305         4.82560         4.99696
     2021.73579        10.05793         5.00951
     2021.73853         9.75226         5.12245
     2021.74127         3.65559         5.10721
     2021.74401        -0.50408         5.04536
     2021.74674         6.64825         5.01937
     2021.74948         6.23858         5.04267
     2021.75222         3.54191         5.02564
     2021.75496         5.93424         5.01489
     2021.75770         5.01457         4.97904
     2021.76043         7.75690         4.99069
     2021.76317         7.82823         5.10093
     2021.76591         6.10856         5.09825
     2021.76865         6.05889         5.04805
     2021.77138         4.64421         5.02027
     2021.77412        10.43254         5.07494
     2021.77686         7.81187         5.74987
     2021.77960        14.05920         5.03281
     2021.78234         7.43053         5.12782
     2021.78507        12.12086         5.06329
     2021.78781         5.70319         5.03730
     2021.79009         2.72796         6.13797
     2021.79603         8.26718         5.07673
     2021.79876         7.85251         4.96918
     2021.80150         2.96584         5.10810
     2021.80424        -2.49483         5.06687
     2021.80698         2.27650         4.99517
     2021.80971         6.60082         4.95842
     2021.81245        15.29715         5.07046
     2021.81519        14.75548         4.98262
     2021.81793         8.37981         4.90912
     2021.82067         0.60514         5.01130
     2021.82340         3.19547         4.99875
     2021.82614         7.14780         5.06508
     2021.82888        10.67113         5.05433
     2021.83162         8.66046         5.07494
     2021.83436         7.82279         4.99607
     2021.83709         5.07612         4.99517
     2021.83983        -2.55455         5.04626
     2021.84234        -1.91650         5.67189
     2021.84592        -5.15315         6.90970
     2021.84804         1.53843         5.00682
     2021.85078         1.67876         5.00324
     2021.85352         4.08309         4.93960
     2021.85626         7.15342         4.93243
     2021.85900         5.53675         4.91092
     2021.86173        -1.21792         4.92077
     2021.86447         3.93041         6.81648
     2021.86721         0.65774         5.21746
     2021.86995         4.07007         5.15113
     2021.87269        -0.35260         5.07136
     2021.87542         0.29473         5.07046
     2021.87816         0.81306         4.95842
     2021.88090         2.25939         4.94766
     2021.88364         3.02472         4.94766
     2021.88637        -0.20795         4.89926
     2021.88911        -6.69263         4.93780
     2021.89185        -5.66830         4.97635
     2021.89459        -3.20397         5.04716
     2021.89733        -2.59564         4.96380
     2021.90006        -0.62331         4.96021
     2021.90280        -3.71898         5.06687
     2021.90554        -1.58765         4.92705
     2021.90828         2.67268         4.95125
     2021.91102         1.18801         5.00413
     2021.91375         1.25934         4.98621
     2021.91649         6.41067         4.99607
     2021.91923        -1.43400         5.06956
     2021.92197       -11.69167         5.33218
     2021.92470        -7.54834         5.10900
     2021.92744        -1.89602         5.24255
     2021.93018        -5.74669         5.83233
     2021.93292         7.75564         5.18788
     2021.93566         7.91897         5.51414
     2021.93839         9.62130         5.14934
     2021.94113        11.43963         5.23717
     2021.94387        10.53396         5.05164
     2021.94661         8.24129         5.18071
     2021.94908         2.67430         5.75256
     2021.95269        13.99969         6.94017
     2021.95482        12.58328         5.17802
     2021.95756        13.98061         5.16099
     2021.96030         5.42694         5.26137
     2021.96303         3.27327         5.24434
     2021.96577         3.81159         5.21208
     2021.96851        -8.92208         5.26227
     2021.97125         4.84625         6.27332
     2021.97399         6.64358         5.22373
     2021.97672         6.15991         5.23269
     2021.97946        13.31324         5.20491
     2021.98220         8.58457         5.14127
     2021.98494         9.09690         5.11886
     2021.98767        11.45023         5.10900
     2021.99041         7.96256         5.03550
     2021.99315         6.75489         5.02295
     2021.99589         9.81622         5.04984
     2021.99863         2.26355         5.06060
     2022.00136        -3.33312         5.05074
     2022.00410        -7.84880         5.04178
     2022.00684        -5.68347         5.17174
     2022.00958         2.29086         5.04716
     2022.01232       -13.88181         5.01310
     2022.01505        -8.51348         5.09556
     2022.01779        -1.46315         5.05612
     2022.02053         5.96018         5.00682
     2022.02327        -4.64349         5.31784
     2022.02600       -10.47316         5.03640
     2022.02874        -9.14983         5.03192
     2022.03148       -10.68850         5.07673
     2022.03422        -9.44317         5.00503
     2022.03696        -6.97184         5.00413
     2022.03969       -11.96951         4.99965
     2022.04243        -0.35819         5.18071
     2022.04517        -1.75986         5.03819
     2022.04791        -3.85453         5.03730
     2022.05065        -2.02720         5.00861
     2022.05338        -4.95787         5.00861
     2022.05612        -3.43954         5.00951
     2022.05886       -10.83921         5.00592
     2022.06160       -11.19088         5.04178
     2022.06433         0.30545         6.25718
     2022.06707        -9.64822         5.01937
     2022.06981        -0.90589         5.02654
     2022.07255       -10.63056         4.93601
     2022.07529        -6.61723         4.89926
     2022.07797        -5.64797         5.35280
     2022.08076         0.08343         4.98531
     2022.08350        -0.82025         4.98441
     2022.08624        -3.33692         4.98979
     2022.08898        -5.02759         4.91002
     2022.09171        -8.46726         5.02564
     2022.09445        -8.78593         5.00503
     2022.09719        -7.51260         4.97635
     2022.09993       -11.59927         5.07315
     2022.10266       -12.12694         5.08570
     2022.10540        -6.49761         5.01668
     2022.10814        -2.53228         5.06598
     2022.11088        -2.77295         4.91540
     2022.11367        -2.74555         5.17981
     2022.11635        -4.23429         5.10273
     2022.11909        -6.47396         5.27034
     2022.12183        -2.92264         4.97724
     2022.13278        -5.72232         4.96290
     2022.13552        -3.40599         4.90554
     2022.13826         3.58034         4.91809
     2022.14099        -0.90333         4.92257
     2022.14373        -6.22300         4.89478
     2022.14647        -2.07467         4.89478
     2022.14921        -6.01134         5.08032
     2022.15195       -10.65701         5.10990
     2022.15468        -5.29468         4.85803
     2022.15742        -9.22935         4.90106
     2022.16016        -9.94503         4.88582
     2022.16290        -1.36470         4.91719
     2022.16564        -3.20537         5.60108
     2022.16837        -0.49604         4.88940
     2022.17111        -4.21471         4.91181
     2022.17385        -0.89138         4.90823
     2022.17659        -4.82805         4.95842
     2022.17932        -7.60872         4.94408
     2022.18206        -4.70339         4.94677
     2022.18480        -5.91906         4.91360
     2022.18754        -3.61573         5.01041
     2022.19028        -3.82440         5.06419
     2022.19301        -4.19407         4.96828
     2022.19575         3.76426         5.00682
     2022.19849        -6.10042         4.96021
     2022.20123         1.32891         4.96918
     2022.20397         3.77524         4.97455
     2022.20670        -4.18543         5.04088
     2022.20944         1.09290         4.99427
     2022.21218        -2.14777         4.94677
     2022.21492        -3.90244         4.95125
     2022.21765        -2.99611         4.92526
     2022.22039        -5.25178         4.90733
     2022.22313        -6.65045         4.91360
     2022.22587        -9.61512         5.04984
     2022.22861        -1.65179         5.04088
     2022.23134         0.61954         4.92436
     2022.23408        -0.90413         4.93422
     2022.23682         3.33219         5.03819
     2022.23956        -3.82448         4.90285
     2022.24230        -2.08115         4.95304
     2022.24503         4.00618         4.96111
     2022.24777         2.48051         4.95394
     2022.25051         1.95584         4.98979
     2022.25325         0.61517         4.91719
     2022.25598         4.30450         4.95483
     2022.25872         1.77283         5.01758
     2022.26146        -6.96984         4.92795
     2022.26420        -3.33551         4.91181
     2022.26694        -3.29518         5.01578
     2022.26967         6.13915         4.94856
     2022.27241         3.79748         4.93422
     2022.27515         6.86581         5.06329
     2022.27789         1.34913         4.92615
     2022.28062        -3.73154         4.91092
     2022.28336        -0.50021         4.92526
     2022.28610         2.48812         5.01399
     2022.28884        -3.78655         5.06687
     2022.29158        -4.16922         4.94766
     2022.29431        -7.26889         4.97814
     2022.29705        -0.91156         5.02116
     2022.29979         0.91377         4.93780
     2022.30253        -1.27690         5.03461
     2022.30527        -1.79157         5.04626
     2022.30800        -5.85224         4.99427
     2022.31074        -3.42191         4.98352
     2022.31348        -6.81158         4.93422
     2022.31622       -10.48326         4.99696
     2022.31895       -21.96193         5.14844
     2022.32169        -1.59660         5.13231
     2022.32443        -3.68927         4.95125
     2022.32717        -7.27494         4.91002
     2022.32991        -2.67661         4.94408
     2022.33264        -8.39828         5.04805
     2022.33538        -7.06395         5.10990
     2022.33812        -9.94762         5.13141
     2022.34086        -3.34529         4.96290
     2022.34360        -4.69196         4.92884
     2022.34633        -0.62163         4.98172
     2022.34907        -1.89730         4.89747
     2022.35181        -2.53897         4.87954
     2022.35455         0.07935         4.93243
     2022.35728        -6.59632         4.88761
     2022.36002         0.47501         4.96290
     2022.36276         0.69134         4.92795
     2022.36550        -1.93633         4.92077
     2022.36824        -5.57400         4.94856
     2022.37097        -5.27767         4.97993
     2022.37371       -11.09934         5.02385
     2022.37645        -9.91101         4.90733
     2022.37919        -7.38468         5.18698
     2022.38193        -3.67735         5.06598
     2022.38466       -12.40602         5.01041
     2022.38740       -20.39469         4.89657
     2022.39014        -8.63536         4.93960
     2022.39288        -7.23904         4.97904
     2022.39561        -7.85571         4.97366
     2022.39835        -8.91338         4.98441
     2022.40109        -9.97505         5.00413
     2022.40383        -0.21772         4.90285
     2022.40657         4.18361         4.89120
     2022.40930        -7.68606         5.06329
     2022.41204        -7.50573         5.09376
     2022.41478       -14.84340         4.89568
     2022.41752        -6.70307         4.97097
     2022.42026        -1.59374         5.04447
     2022.42299        -2.21341         4.96559
     2022.42573       -11.10208         5.04895
     2022.42847        -8.34175         4.97904
     2022.43121        -6.72343         5.01937
     2022.43394        -1.50010         5.00503
     2022.43668       -10.12377         4.97007
     2022.43942        -7.40744         4.97724
     2022.44216        -3.08611         4.91360
     2022.44490         5.06022         5.04357
     2022.44763        -2.23045         4.94049
     2022.45037        -6.22212         4.88761
     2022.45311        -9.71979         4.93780
     2022.45585        -6.13846         4.97366
     2022.45859       -14.34513         4.94856
     2022.46132        -5.55780         4.90106
     2022.46406        -3.23547         4.91271
     2022.46680        -7.80314         4.91898
     2022.46954        -9.94881         4.91988
     2022.47227       -17.22849         4.93870
     2022.47501         1.91584         4.94677
     2022.47775        -6.11783         5.11259
     2022.48049       -11.00050         4.93332
     2022.48323         1.60383         4.93422
     2022.48596        -0.38884         4.95483
     2022.48870         5.28249         5.03371
     2022.49144        -9.52718         4.98621
     2022.49418        -3.57585         5.05791
     2022.49692        -2.91452         4.92884
     2022.49965        -1.39819         4.92526
     2022.50239       -16.10686         5.12693
     2022.50513        -3.59453         5.22463
     2022.50787         4.92080         5.13320
     2022.51060        -2.52788         5.05433
     2022.51334         0.94445         4.99069
     2022.51608        -5.65122         5.02295
     2022.51882        -5.34289         4.99607
     2022.52156         2.01644         4.96649
     2022.52429        -0.89623         4.96559
     2022.52703         2.31810         4.94318
     2022.52977        12.24343         4.98172
     2022.53251         7.12476         5.09466
     2022.53525        -3.91591         5.07763
     2022.53798        -2.50758         5.01937
     2022.54072        -3.00725         5.02295
     2022.54346         5.02408         5.02295
     2022.54620         3.44641         4.97814
     2022.54893         4.71873         4.99338
     2022.55167        10.44606         4.94049
     2022.55441         6.98739         4.95842
     2022.55715        10.97172         4.96918
     2022.55989         9.45605         5.08928
     2022.56262         2.18238         4.96918
     2022.56536        -4.79629         4.92257
     2022.56810         5.16004         4.94587
     2022.57084         0.44737         4.97007
     2022.57357         7.81170         5.25062
     2022.57631         3.30103         4.95035
     2022.57905         2.69936         4.95483
     2022.58179        14.63169         4.91002
     2022.58453        13.08502         5.18698
     2022.58726        -3.18366         5.23897
     2022.59000        12.82967         5.06508
     2022.59274         5.61700         4.97366
     2022.59548        -0.27167         4.91181
     2022.59822        -5.34034         4.84817
     2022.60095        -4.77001         4.87596
     2022.60369        11.26832         4.91092
     2022.60643         3.09265         5.03013
     2022.60917         8.08298         5.52668
     2022.61190         6.48131         5.26586
     2022.61464         9.53064         4.91271
     2022.61738        11.30097         4.89926
     2022.62012         1.80230         4.87686
     2022.62286         5.58063         4.86251
     2022.62559         2.97695         4.90195
     2022.62833         6.47628         4.86341
     2022.63107         7.46461         4.93601
     2022.63381        13.75194         4.87865
     2022.63655         9.22027         4.92884
     2022.63928         7.03860         4.92615
     2022.64208         4.35400         5.28468
     2022.64476        10.99026         5.22194
     2022.64750        12.94059         5.06867
     2022.65023        14.39192         5.02206
     2022.65297        10.75625         5.18877
     2022.65571        15.39358         5.02206
     2022.65856        13.65605         5.21208
     2022.66119        11.12924         4.87417
     2022.66392         7.76157         4.82487
     2022.66666         7.96389         4.86789
     2022.66940        10.53722         4.88223
     2022.67214        13.47555         5.11617
     2022.67488        11.61788         4.91540
     2022.67761        14.18421         4.91360
     2022.68035        15.01654         4.80425
     2022.68309        20.80287         4.90374
     2022.68583        10.71720         5.23897
     2022.68856        15.33853         4.93422
     2022.69130        10.82086         4.92077
     2022.69404         9.41219         4.93153
     2022.69678        16.18752         4.98800
     2022.69952         5.51285         5.01310
     2022.70225        20.94318         5.18608
     2022.70499        18.77050         5.16278
     2022.70773        13.57283         5.04716
     2022.71047         9.74616         4.92974
     2022.71321        21.43749         4.97366
     2022.71594        15.22482         4.91002
     2022.71868         9.54515         4.87954
     2022.72142        12.30748         4.93512
     2022.72416        18.24081         5.02206
     2022.72689        11.16914         4.96828
     2022.72963        12.74647         4.84190
     2022.73237         8.20080         4.87506
     2022.73511         8.67713         4.89926
     2022.73785        11.31946         4.88582
     2022.74058        16.97979         5.07315
     2022.74332        17.71111         5.16457
     2022.74606        13.85844         4.95304
     2022.74880         7.44377         4.86610
