# ================= DQRFIT RESULTS ================
# INPUT FILE: series/HEAV.rad
# OUTPUT: LDETRENDED
# FILTER FUNCTION: f(t)
# f(t)=+line(t)
# line(t)=+P 1+P 2*t
# heav(t)=(t<0?0:1)
# TOTAL OBSERVATIONS MTOT=  112
# INITIAL TIME INTERVAL= 2018.4912 - 2006.3409 = 12.1503
# TOTAL OBSERVATIONS AFTER PREFILTER M=  112
# TIME-SPAN=    0.0000 -    0.0000 =  0.0000
# OBSERVATIONS: USED M=   112 REJECTED MTOT-M=     0 %USED=  100.0000
# N=  2 PARAMETERS
# MAXSIG= 175.00000
# MAXRES=  12.10043
# SCALE FACTOR FOR LENGTHS: SCL=  10.00000
# SCALE FACTOR FOR SIGMAS: SCLSIG=   1.00000
# CHI^2=    114.294 DOF=   110 CHI^2/DOF=   1.03903
# RMS=      6.044 SDEV=      6.069 MEAN=   -0.15690
#  P #       PARAMETER +-    SIGMA %error PARAMETER NAME
# P 1 =      -916.54140 +-  367.818  40.13 YZERO                              
# P 2 =         0.45711 +-    0.183  40.02 SLOPE                              
#       T            LDETRENDED       SIG_OBS
     2006.34087        -6.36927         5.90498
     2006.34361        -7.26552         5.93148
     2006.34634       -10.08977         5.97735
     2006.34908        -4.78402         5.98755
     2006.35182        -6.00027         6.05788
     2006.35456        -5.43352         5.93658
     2006.35729        -3.17377         5.93556
     2006.36003        -2.14603         5.93964
     2006.36277        -3.05628         5.95901
     2006.36551        -5.43553         5.95085
     2006.36825        -4.91578         5.99162
     2006.37098        -9.79203         6.11904
     2006.37372        -5.66128         6.37693
     2006.37646        -4.84053         6.01609
     2006.37920        -3.48379         6.08846
     2006.38193       -15.83404         6.12720
     2006.38467         2.78371         6.17816
     2006.38741        -3.79654         6.24544
     2006.39015        -9.57479         6.03851
     2006.39289        -3.26104         6.07317
     2006.39562        -7.45630         6.17001
     2006.39836         2.49545         6.30966
     2006.40110        -0.44280         6.21384
     2006.40384        -4.92705         5.99570
     2006.40658        -3.25130         6.01711
     2006.40931        -4.26655         6.02832
     2006.41205       -10.27880         6.07725
     2006.41459        -5.95197         6.52168
     2008.71732         5.59244         6.01915
     2008.72006         7.67018         5.99774
     2008.72280         1.33193         6.05584
     2008.72554         0.97368         5.97735
     2008.72827        12.10043         6.01507
     2008.73101         7.19018         6.02322
     2008.73375         9.81193         6.05890
     2008.73649         9.09268         6.02730
     2008.73922        11.14242         6.05992
     2008.74470         3.50992         5.99876
     2008.74744         8.77267         5.96002
     2008.75018         4.36042         5.91314
     2008.75291        -4.73083         6.07623
     2008.75565         9.89091         6.03444
     2008.75839         7.53866         5.98245
     2008.76113         4.59541         5.88663
     2008.76387         8.06516         5.94779
     2008.76660         8.32991         6.01813
     2008.76934         5.40166         6.01507
     2008.77208         7.08341         5.85707
     2008.77454        11.79328         6.53697
     2009.88365        10.17430         6.07623
     2009.88638         5.13305         6.17205
     2009.88912        -1.39320         6.28825
     2009.90007         1.59579         6.78161
     2009.90281         1.37054         5.92843
     2009.90555         4.38329         6.03240
     2009.91376         1.69053         5.86727
     2009.91650         2.07228         5.90498
     2012.03286         2.20987         5.69398
     2012.03560         3.08662         5.76737
     2012.03833        -0.07463         5.78470
     2012.04107        10.64312         5.71437
     2012.04381         6.28787         5.69806
     2012.04655         4.87362         5.73985
     2012.04929         6.52236         5.81018
     2012.05202         2.14411         5.83363
     2012.07119        -0.71865         5.78266
     2012.07393         0.47910         6.47784
     2012.08214         7.20635         5.83771
     2012.08488         1.12110         5.82955
     2012.08762         1.94284         5.74495
     2012.09035         1.78359         5.72354
     2012.09309         3.72534         5.77145
     2012.09857         5.68084         5.84178
     2012.10131         5.15059         5.92944
     2012.10952         0.92083         5.91721
     2012.11226        -3.41442         5.87440
     2012.11499         3.15133         5.79489
     2012.11747         1.81720         6.46663
     2012.12321        -6.61243         5.96716
     2012.12868        -2.80093         6.62871
     2012.13142        -1.57918         5.90090
     2012.13416         4.68857         5.76024
     2012.13690         2.77432         5.84892
     2012.13964         2.87207         5.96104
     2012.14785        -2.69869         5.77043
     2012.15059        -2.93294         5.83261
     2012.15332        -2.84819         5.76024
     2014.04792         0.49377         5.87440
     2014.05065         1.11852         5.89785
     2014.05339         0.25827         5.92741
     2014.05613        -4.88898         5.94881
     2014.05887        -3.65023         5.95697
     2014.06161         4.46151         5.90702
     2014.08625         1.62825         5.89683
     2014.08898         3.49300         6.07215
     2014.12184        -5.72202         6.04361
     2014.14648         1.89072         6.02322
     2014.14922        -4.49053         6.06094
     2014.17386        -1.62280         6.34227
     2014.17660        -5.45605         6.20772
     2014.20671         1.94619         6.08642
     2014.20945         3.17693         5.93352
     2014.23683        -6.62958         6.05482
     2014.23957       -12.57583         6.33412
     2014.26421        -9.53010         6.05176
     2014.28885        -3.97736         6.28621
     2014.29159        -9.45361         6.02934
     2014.29409        -1.73276         6.96203
     2018.48322       -12.80965         6.32902
     2018.48590       -12.46387         6.64400
     2018.48874        -7.42817         7.23725
     2018.49118        -7.34328         7.76934
