# ================= DQRFIT RESULTS ================
# INPUT FILE: series/HONY.rad
# OUTPUT: LDETRENDED
# FILTER FUNCTION: f(t)
# f(t)=+line(t)+annual(t)
# line(t)=+P 1+P 2*t
# annual(t)=+P 3*sin(2*pi*t+P 4)
# heav(t)=(t<0?0:1)
# TOTAL OBSERVATIONS MTOT=  837
# INITIAL TIME INTERVAL= 2019.5045 - 2005.2704 = 14.2341
# TOTAL OBSERVATIONS AFTER PREFILTER M=  836
# TIME-SPAN= 2019.5045 - 2005.2704 = 14.2341
# OBSERVATIONS: USED M=   836 REJECTED MTOT-M=     1 %USED=   99.8805
# N=  4 PARAMETERS
# MAXSIG= 175.00000
# MAXRES=  30.67093
# SCALE FACTOR FOR LENGTHS: SCL=  10.00000
# SCALE FACTOR FOR SIGMAS: SCLSIG=   1.00000
# CHI^2=   1720.472 DOF=   832 CHI^2/DOF=   2.06787
# RMS=      8.336 SDEV=      8.341 MEAN=   -0.03330
#  P #       PARAMETER +-    SIGMA %error PARAMETER NAME
# P 1 =       -47.62938 +-  144.793 304.00 YZERO                              
# P 2 =         0.02521 +-    0.072 285.70 SLOPE                              
# P 3 =         4.67006 +-    0.461   9.87 ANNUAL AMPLITUDE                   
# P 4 =         1.91310 +-    0.043   2.25 ANNUAL PHASE                       
#       T            LDETRENDED       SIG_OBS
     2005.27037         9.64364         8.52021
     2005.27311         6.85757         8.57486
     2005.27584         0.56650         8.61800
     2005.27858         2.73743         8.64676
     2005.28132         0.70537         8.59930
     2005.28406        -0.53870         8.59930
     2005.28679         0.74023         8.55185
     2005.28953         8.19916         8.36347
     2005.29227         1.95209         8.55185
     2005.29501         5.80202         8.48714
     2005.29775         0.80095         8.40373
     2005.30048         4.17888         8.25993
     2005.30322         1.45581         8.31026
     2005.30596         3.16074         8.34765
     2005.30870         6.97568         8.35628
     2005.31144         1.35361         8.37210
     2005.31417         1.24154         8.37785
     2005.31691        -1.69553         8.31745
     2005.31965         3.30840         8.30307
     2005.32239         3.69533         8.54035
     2005.32512        -1.67774         8.39942
     2005.32786        -1.77281         8.40230
     2005.33060         1.12812         8.28294
     2005.33334         5.26805         8.27575
     2005.33608         6.88499         8.48714
     2005.33881         7.21992         8.38792
     2005.34155         2.97885         8.30164
     2005.34429         6.62278         8.32464
     2005.34703         5.10271         8.25131
     2005.34977        -3.69936         8.38935
     2005.35250       -12.12243         8.64676
     2005.35524         7.56750         8.52309
     2005.35798         3.65043         8.62663
     2005.36072        -6.36164         8.56048
     2005.36345        -4.85170         8.77043
     2005.36619         8.68023         8.61800
     2005.36893        -4.24584         8.82363
     2005.37167         5.63809         8.76899
     2005.37441        10.87202         8.65826
     2005.37714         9.93195         9.50094
     2005.37988        -7.09912         9.11555
     2005.38262       -12.59819         9.22771
     2005.38536         3.99674         8.61656
     2005.38810        -0.12133         8.62231
     2005.39083         1.21261         8.57054
     2005.39357        -1.05846         8.40230
     2005.39631        -5.35553         8.49289
     2005.39905        -6.31960         8.49577
     2005.40178         2.47133         8.68127
     2005.40452         6.96526         8.60506
     2005.40726        -0.60481         8.48282
     2005.41000        -4.36588         8.40086
     2005.41274        -2.05595         8.50583
     2005.41547        -1.90602         8.39511
     2005.41821         1.63692         8.32177
     2005.42095         0.86285         8.27575
     2005.42369         1.33778         8.30595
     2005.42643         2.83071         8.42243
     2005.42916        -0.42136         8.45694
     2005.43190         5.16457         8.36203
     2005.64819         3.65612         8.42530
     2005.65093         3.41705         8.45263
     2005.65367        -3.54702         8.41236
     2005.65640        -6.64909         8.46125
     2005.65914        -7.59016         8.45982
     2005.66188        -3.19923         8.22398
     2005.66462         1.89870         8.23980
     2005.66736        -2.45736         8.30020
     2005.67009         0.16357         8.28726
     2005.67283         2.42750         8.33615
     2005.67557         1.23643         8.40661
     2005.67831        -2.31264         8.29301
     2005.68105        -3.22571         8.30307
     2005.68378        -4.63678         8.42387
     2005.68652        -1.47885         8.41955
     2005.68926        -2.43592         8.43249
     2005.69200        -3.17499         8.49289
     2005.69473        -1.44505         8.41955
     2005.69747        -1.88512         8.28150
     2005.70021         2.27781         8.78912
     2005.70295         0.46274         8.67552
     2005.70569        -4.58633         8.64820
     2005.70842         1.09560         8.68271
     2005.71116        -3.40847         8.36203
     2005.71390        -0.25554         8.19522
     2005.71664        -2.68961         8.68415
     2005.71938        -4.05468         8.27000
     2005.72211         1.91826         8.42530
     2005.72485        -2.33281         8.24412
     2005.72759        -8.06588         8.33615
     2005.73033        -5.65295         8.50440
     2005.73306        -0.18402         8.49720
     2005.73580         5.14591         8.52021
     2005.73854         0.12184         8.42818
     2005.74128         2.11877         8.32608
     2005.74402         2.90170         8.45406
     2005.74675        -0.03837         8.34478
     2005.74949        -1.84344         8.40805
     2005.75223        -0.55050         8.63957
     2005.75497         6.73943         8.47707
     2005.75770         1.34836         8.41811
     2005.76044         2.53029         8.38073
     2005.76318         1.77022         8.26856
     2005.76592         8.78915         8.35484
     2005.76866         6.17208         8.23405
     2005.77139         6.40401         8.23405
     2005.77413         5.62694         8.32464
     2005.77687         2.44887         8.49864
     2005.77961        -0.76919         8.47420
     2005.78235         2.51374         8.48139
     2005.78508        -0.95833         8.33615
     2005.78782        -3.40640         8.64244
     2005.79056         2.54453         8.36059
     2005.79330         6.15546         8.26137
     2005.79603         7.00339         8.53603
     2005.79877         4.65732         8.61656
     2005.80151         5.21425         8.49864
     2005.80425         7.41918         8.37785
     2005.80699         2.38112         8.26712
     2005.80972         4.78105         8.24555
     2005.81246         4.21098         8.38792
     2005.81520         3.05691         8.51159
     2005.81794        -9.94016         8.91279
     2005.82068         9.66877         8.36203
     2005.82341         1.58070         8.37066
     2005.82615        11.28463         8.37785
     2005.82889         5.23056         8.34909
     2005.83163        -2.93151         8.65682
     2005.83436        -3.95057         8.61656
     2005.83710         8.57936         8.70140
     2005.83984        -0.22971         8.68702
     2005.84258        -9.44678         8.83801
     2005.84532        -3.61185         8.80494
     2005.84805         0.46908         8.91998
     2005.85079        -3.67099         9.27948
     2005.85353        -4.27606         8.64532
     2005.85627         1.76787         8.66258
     2005.85870        -2.00119        10.32348
     2006.10815       -10.70148         8.36922
     2006.11088       -12.33454         8.53316
     2006.11362       -14.87861         8.16502
     2006.11636       -17.18568         8.12620
     2006.11910       -11.69375         8.16790
     2006.12183        -7.38182         8.17509
     2006.12457       -12.24589         8.28438
     2006.12731       -10.69896         8.24699
     2006.13005        -7.10003         8.15783
     2006.13279        -8.41110         8.14921
     2006.13552        -3.99217         8.14921
     2006.13804        -1.10123         9.01057
     2006.20397        -7.90289         8.66689
     2006.20671       -13.87596         8.66977
     2006.20945        -3.31903         8.37210
     2006.21219        -7.76110         8.39942
     2006.21493        -3.07117         8.35340
     2006.21766        -8.21224         8.35197
     2006.22040        -6.95830         8.46844
     2006.22314        -8.39437         8.43393
     2006.22588       -20.08144         9.06666
     2006.22862        -8.28651         8.96312
     2006.23135         0.24542         8.35772
     2006.23409        -2.34065         8.40949
     2006.23683       -22.70272         8.49145
     2006.23957        -1.37379         8.17365
     2006.24230        -3.83286         8.15208
     2006.24504       -14.05593         8.16071
     2006.24778        -7.80100         8.36922
     2006.25052        -8.26806         8.16071
     2006.25326       -13.82613         8.24699
     2006.25599        -9.61620         8.24412
     2006.25873         1.11473         8.19235
     2006.26147        -1.61534         8.40373
     2006.26421         2.80659         8.49433
     2006.26695       -19.80048         8.47132
     2006.26968        -7.14855         8.24268
     2006.27242        -5.23862         8.29876
     2006.27516        -5.11969         8.49433
     2006.27790        -6.66875         8.48714
     2006.28063        -5.60582         8.27000
     2006.28337        -6.32889         8.20816
     2006.28611        14.80604         8.61944
     2006.28885        -7.04303         8.38216
     2006.29159        -8.64010         8.29876
     2006.29432        -0.49017         8.21248
     2006.29706        -4.16824         8.20529
     2006.29980        -1.47431         8.40373
     2006.30254        -2.34438         8.27288
     2006.30528        -8.18244         8.19954
     2006.30801        -2.03351         8.19235
     2006.31075        -4.67358         8.29301
     2006.31349        -5.15365         8.41092
     2006.31623         0.22028         8.35628
     2006.32170        -4.84286         8.21104
     2006.32444        -3.05593         8.29013
     2006.32718        -9.32900         8.41380
     2006.32992        -5.26107         8.36347
     2006.33265        -7.00313         8.23261
     2006.33539        -4.68520         8.12332
     2006.33813        -3.39927         8.16934
     2006.34087        -6.85034         8.24843
     2006.34361        -2.69041         8.32752
     2006.34634        -4.44448         8.31314
     2006.34908        -5.50455         8.27431
     2006.35182        -8.20762         8.32752
     2006.35456        -8.39669         8.22686
     2006.35729        -6.11176         8.25706
     2006.36003        -2.16282         8.27431
     2006.36277        -4.83289         8.32896
     2006.36551       -13.21796         8.32321
     2006.36825        -7.36703         8.28726
     2006.37098        -8.07510         8.44112
     2006.37372       -10.12317         8.68415
     2006.37646        -6.02624         8.43681
     2006.37920        -6.10931         8.58205
     2006.38193       -18.17338         8.56767
     2006.38467        -4.04045         8.43681
     2006.38741        -1.97851         8.45982
     2006.39015         1.00942         8.55473
     2006.39289         1.48735         8.51590
     2006.39562         1.53828         8.66977
     2006.39836        -6.24879         8.65826
     2006.40110       -11.67586         8.59930
     2006.40384        -4.23293         8.37354
     2006.40658        -9.17600         8.41236
     2006.40931        -6.70007         8.37641
     2006.41205        -4.16114         8.47707
     2006.41479        -3.84020         8.55185
     2006.41753       -15.48727         8.71147
     2006.42026        -6.69334         8.96887
     2006.42300       -18.34441         8.83370
     2006.42574        -5.09848         8.88691
     2006.42848         0.26845         8.75029
     2006.43122        -4.81062         8.83514
     2006.43395       -10.04069         8.53603
     2006.43669         2.46424         8.47707
     2006.43943        -2.51583         8.45550
     2006.87749        -1.39487         8.41092
     2006.88022        -2.02794         8.45263
     2006.88296        -5.09601         8.44400
     2006.88570         4.99693         8.39511
     2006.88844        -3.99914         8.79919
     2006.89118        -3.00821         8.70284
     2006.89391       -13.27628         8.95162
     2006.89665        -6.81335         8.59787
     2006.89939        -0.49642         8.46125
     2006.90213        -1.24649         8.51878
     2006.90486        -0.38456         8.57917
     2006.90760        10.27337         8.27719
     2006.91034        -1.95670         8.35484
     2006.91308        -0.10176         8.41955
     2006.91582        -1.46483         8.46988
     2006.91855        -6.89290         8.40805
     2006.92129        -3.01597         8.30739
     2006.92403        -6.84004         8.42099
     2006.92677        -0.59611         8.55760
     2006.92951        -7.15818         8.64244
     2006.93224        -4.50125         8.46701
     2006.93498        -0.01232         8.61800
     2006.93772        -2.70539         8.62519
     2006.94046         1.31754         8.69277
     2006.94319        -1.65052         8.51878
     2006.94593        -5.20459         8.68990
     2006.94867         2.41334         8.52884
     2006.95141        -1.89473         8.69853
     2006.95415        -4.18880         9.23347
     2006.95688         0.04613         8.54897
     2006.95962         2.19506         8.50727
     2006.96236        -0.08701         8.51302
     2006.96510        -1.30108         8.64676
     2006.96784         0.00285         8.50008
     2006.97057        -3.78521         8.54035
     2006.97331        -5.35228         8.60362
     2006.97605         4.69265         8.57054
     2006.97879        -1.15542         8.56623
     2006.98152        -0.39649         8.68846
     2006.98426       -18.21556         8.96600
     2006.98700       -13.50563         9.17595
     2006.98974        -5.58970         8.76611
     2006.99248        -8.80877         8.83226
     2006.99521        -7.93384         8.80063
     2006.99795        -0.26490         8.72010
     2007.00343         1.59896         8.73448
     2007.00616         1.90389         8.83370
     2007.01438        -3.28432         8.54610
     2007.01985        -8.43846         8.50008
     2007.02259        -9.64353         8.33902
     2007.02533        -8.47059         8.65539
     2007.02807        -5.86966         8.62950
     2007.03081        -3.22073         8.32177
     2007.03354        -9.90480         8.22398
     2007.03628        -6.45187         8.13339
     2007.03902       -11.38394         8.08450
     2007.04176        -7.33601         8.27575
     2007.04449        -8.90508         8.12332
     2007.04723       -13.78315         8.35484
     2007.04997       -11.79922         8.49577
     2007.05271        -7.68628         8.57773
     2007.05545        -4.34435         8.10750
     2007.05818        -8.53842         8.18516
     2007.06092       -13.26249         8.08881
     2007.53183        -2.77336         9.48799
     2007.53457        -4.21943         9.45492
     2007.53731        -6.63750         8.70428
     2007.54005       -16.55857         8.69277
     2007.54278       -10.27664         8.64244
     2007.54552         6.59129         8.58636
     2007.54826         6.76722         8.36922
     2007.55100         7.45316         8.32752
     2007.55374        -1.84491         8.31170
     2007.55647         0.14302         8.35053
     2007.55921         3.30095         8.58780
     2007.56195        -0.39812         8.39798
     2007.56469         3.45381         8.42530
     2007.56742        -4.57126         8.35916
     2007.57016        -0.01633         8.29732
     2007.57290        -4.20440         8.37354
     2007.57564        -2.23247         8.33471
     2007.57838        -3.96453         8.40805
     2007.58111         2.56840         8.22973
     2007.58385         4.69333         8.36922
     2007.58659        -4.98474         8.19378
     2007.58933         0.33119         8.42387
     2007.59206        -9.08288         8.46988
     2007.59480        10.07805         8.42674
     2007.59754        -3.65802         8.35916
     2007.60028        -1.36409         8.27431
     2007.60302         3.09984         8.21967
     2007.60575         2.27978         8.40805
     2007.60849        -1.29229         8.25850
     2007.61123        -6.44836         8.25993
     2007.61397        -4.02543         8.22686
     2007.61671        -6.13450         8.84808
     2007.61944        -5.02357         8.77187
     2007.62218         3.52436         8.87972
     2007.62492        -1.77971         8.60362
     2007.62766        -2.36478         8.76036
     2007.63039        -0.10285         9.36145
     2007.63313         3.10709         8.59499
     2008.17797         0.53935         8.16071
     2008.18070        -4.33972         8.15640
     2008.18344        -2.22779         8.27863
     2008.18618        -0.63886         8.23836
     2008.18892        -2.59292         8.22398
     2008.19165         4.93601         8.36635
     2008.19439         1.06594         8.26712
     2008.19713         1.96887         8.66545
     2008.19987        -3.67420         8.32464
     2008.20261        -4.77127         8.23549
     2008.20534        11.11966         8.28438
     2008.20808         3.91759         8.53028
     2008.21082         3.62152         8.43393
     2008.21356        -6.90655         8.60506
     2008.21629         7.35339         8.39223
     2008.21903        -0.47968         8.39223
     2008.22177         0.52825         8.44975
     2008.22451        -2.68082         8.40805
     2008.22725        -0.67789         8.44400
     2008.22998         6.46304         8.77187
     2008.23272         5.25397         8.67264
     2008.23546         0.75890         8.58780
     2008.23820         2.36683         8.33759
     2008.24094        -3.61124         8.41524
     2008.24367         1.07270         8.27431
     2008.24641         3.59263         8.25131
     2008.24915         1.96156         8.26281
     2008.25189         1.77049         8.45263
     2008.25462         2.72642         8.29157
     2008.25736        -2.67365         8.30307
     2008.26010         5.84928         8.37066
     2008.26284         0.56621         8.29732
     2008.26558        -4.99486         8.21392
     2008.26831         6.80207         8.28726
     2008.27105         6.85501         8.18084
     2008.27379         4.86194         8.25993
     2008.27653         2.64587         8.26569
     2008.27927        -1.23420         8.39798
     2008.28200         1.29073         8.37210
     2008.28474         9.21966         8.58924
     2008.28748        12.91559         8.47563
     2008.29022         4.01352         8.35197
     2008.29295         1.53745         8.18659
     2008.29569        -4.29662         8.31602
     2008.29843        -4.59068         8.29013
     2008.30117        -5.40075         8.30020
     2008.30391         4.52118         8.29876
     2008.30664         4.06811         8.22254
     2008.30938        -3.93896         8.63525
     2008.31212         0.75497         8.58061
     2008.31486         4.03990         8.30020
     2008.31760        -5.96817         8.41668
     2008.32033        -1.15024         8.47420
     2008.32307         8.11869         8.40661
     2008.32581         2.74563         8.85239
     2008.32855        -0.43944         8.25850
     2008.33128         2.57649         8.54178
     2008.33402         0.94742         8.22254
     2008.33676         0.15535         8.16934
     2008.33950         2.52428         8.22254
     2008.34224        -0.49179         8.24987
     2008.34497         0.25514         8.28726
     2008.34771        -0.39793         8.46988
     2008.35045         3.93500         8.17940
     2008.35319         3.31094         8.14058
     2008.35593        -0.18313         8.16359
     2008.35866        14.93880         8.36347
     2008.36140        11.61573         8.17940
     2008.36414         5.59266         8.15064
     2008.36688        -3.55341         8.08593
     2008.36961        -7.32348         8.14777
     2008.37235        -3.33155         8.20673
     2008.37509        -0.29862         8.11613
     2008.37783         7.12231         8.26281
     2008.38057         0.77724         8.19378
     2008.38330         8.33518         8.24124
     2008.38604         8.77811         8.33471
     2008.38878         5.55804         8.27288
     2008.39152         3.52497         8.34046
     2008.39426         2.31390         8.13195
     2008.39699         3.69483         8.11901
     2008.39973         7.55076         8.12620
     2008.40247         3.52569         8.12332
     2010.32992         6.49511         8.15783
     2010.33265         1.51604         8.18228
     2010.33539         0.15497         8.37497
     2010.33813         0.64890         8.36059
     2010.34087         2.08583         8.06580
     2010.34361         0.11076         8.10463
     2010.34634        -0.84531         8.15496
     2010.34908         2.01963         8.07299
     2010.35182         6.32156         8.07443
     2010.35456        -2.79551         8.25131
     2010.35729         1.73042         8.07155
     2010.36003         2.57535         8.20816
     2010.36277         3.25528         7.99390
     2010.36551         0.12121         8.30020
     2010.36825         2.18014         8.33327
     2010.37098         4.20007         8.11182
     2010.37372         7.61300         8.14489
     2010.37646         7.74694         8.09169
     2010.37920         4.82587         8.57630
     2010.38193         6.36480         8.75605
     2010.38467        -0.24627         8.41955
     2010.38741         1.29266         8.27575
     2010.39015         4.16659         8.21679
     2010.39289         2.72052         8.21535
     2010.39562         0.18145         8.23405
     2010.39836        -5.21062         8.18947
     2010.40110        -7.92169         8.10319
     2010.40384         4.15825         8.05286
     2010.40658         3.28918         8.07874
     2010.40931         1.68011         8.02841
     2010.41205        -8.04096         8.03417
     2010.41479         8.48197         8.03848
     2010.41753         0.44290         8.09600
     2010.42026        -5.25317         8.06580
     2010.42300         3.70676         8.22398
     2010.42574        -2.33531         8.05142
     2010.42848         3.93162         8.27144
     2010.43122        -0.58144         8.24124
     2010.43395         0.23249         7.98240
     2010.43669       -21.66258         8.34046
     2010.43943         0.35735         8.13914
     2010.44217         4.97428         7.98815
     2010.44491         3.07021         7.95939
     2010.44764        -1.46686         8.01403
     2010.45038         3.48707         7.98671
     2010.45312        -4.39300         8.16215
     2010.45586         3.69293         8.28582
     2010.45859         2.28687         8.07155
     2010.46133         4.58280         8.19522
     2010.46407         0.69073         8.08881
     2010.46681        -1.98034         8.10319
     2010.46955         0.47159         8.03560
     2010.47228         1.27052         7.98959
     2010.47502        -2.72255         8.14202
     2010.47776        -4.34462         8.28582
     2010.48050        -5.13169         8.26712
     2010.48324         4.75524         8.10607
     2010.48597        -0.67282         8.01979
     2010.48871         6.26911         8.09456
     2011.21972         2.62768         8.09456
     2011.22246       -15.23539         8.11469
     2011.22519       -18.16946         8.07874
     2011.22793       -16.02853         7.95507
     2011.23067       -13.06060         8.04279
     2011.23341        -7.95467         8.12332
     2011.23614       -11.00173         7.98240
     2011.23888        -7.01780         7.98096
     2011.24162        -4.11787         7.98815
     2011.24436        -7.53994         7.92919
     2011.24710        -5.04801         7.96658
     2011.24983        -0.25708         8.22398
     2011.25257        -0.40615         8.03560
     2011.25531        -7.70122         7.98527
     2011.25805       -10.25129         8.21535
     2011.26079        -6.84436         8.18947
     2011.26352        -0.22542         8.03848
     2011.26626        -6.65749         7.97521
     2011.26900         0.62144         7.98527
     2011.27174        -4.56063         8.10319
     2011.27447        -9.69570         8.31889
     2011.27721        -1.73177         8.26569
     2011.27995       -10.59684         8.06580
     2011.28269        -6.60291         7.95651
     2011.28543        -8.72998         7.97952
     2011.28816       -10.98605         7.96514
     2011.29090         0.10589         8.03848
     2011.29364        -5.17818         7.99678
     2011.29638        -7.62925         7.95507
     2011.29911         0.00068         8.09456
     2011.30185       -13.62539         8.50296
     2011.30459        -4.78246         7.98671
     2011.30733        -1.00653         7.87455
     2011.31007        -1.18360         7.90762
     2011.31280        -7.94967         8.25274
     2011.31554        -1.10774         8.01116
     2011.31828        -0.44180         7.95076
     2011.32102        -3.61587         8.05142
     2011.32376        -5.51194         7.96802
     2011.32649        -9.35201         7.87311
     2011.32923        -8.50808         7.97521
     2011.33197        -2.77815         7.96946
     2011.33471        -6.53622         8.04998
     2011.33744        -5.34529         7.99246
     2011.34018        -7.95536         8.12476
     2011.34292         0.74157         8.21823
     2011.34566         0.91151         8.26856
     2011.34840        -6.43156         8.09600
     2011.35113        -4.64863         8.10175
     2011.35387        -7.24770         8.11901
     2011.35661       -10.01677         7.90906
     2011.35935       -18.88084         8.03848
     2011.36209       -20.70091         7.98240
     2011.36482       -15.37098         8.23405
     2011.36756       -13.43905         8.50296
     2011.37030        -9.73712         8.17653
     2011.37304        -6.42418         8.09744
     2011.37577         2.00775         8.15927
     2011.37851        -4.84832         8.07443
     2011.38125        -7.06639         8.10175
     2011.38399        -4.52846         8.22254
     2011.38673       -10.96153         8.16215
     2012.82136         3.30931         8.15208
     2012.82410         1.34524         8.09888
     2012.82684         3.25417         8.15640
     2012.82957        -5.21890         8.19091
     2012.83231        -5.47397         8.21248
     2012.83505        11.18296         8.44544
     2012.83779         4.69389         8.21248
     2012.84052         2.29283         8.21535
     2012.84326        -1.52224         8.25274
     2012.84600         5.88469         8.15783
     2012.84874         5.37162         8.15208
     2012.85148        -0.32045         8.33759
     2012.85421         3.18448         8.73879
     2012.85695        -0.38159         8.23261
     2012.85969         4.90834         8.14489
     2012.86243         6.02427         8.21392
     2012.86517         7.51020         8.16646
     2012.86790         7.08114         8.40805
     2012.87064         2.35907         8.14921
     2012.87338         0.87300         8.16646
     2012.87612         8.42193         8.10031
     2012.87885         2.60886         8.20816
     2012.88159         8.28579         8.39942
     2012.88433         2.77472         8.35053
     2012.88707        -3.84635         8.55904
     2012.88981         7.36558         8.73016
     2012.89254         2.62351         8.18228
     2012.89528         0.29045         8.20816
     2012.89802         0.93538         8.11469
     2012.90076         8.76131         8.21392
     2012.90350         4.05324         8.11613
     2012.90623        -1.46283         7.99534
     2012.90897        -3.16890         8.18228
     2012.91171         3.31503         8.53028
     2012.91445        -8.31104         8.46125
     2012.91718        -3.63011        10.08477
     2012.92540        -5.86631         8.72585
     2012.93361        -0.41152         8.35916
     2012.93635         3.43741         7.89899
     2012.93909         1.45434         7.99965
     2012.94183         3.49327         8.03992
     2012.94456         6.97320         7.98671
     2012.94730        10.86313         8.71866
     2012.95278        13.20600         9.66487
     2012.96373        12.45772         9.04653
     2012.96920         2.08458         8.61512
     2012.97194        -5.45049         8.36635
     2012.97468       -12.89056         9.30824
     2012.98289         5.33424         8.04136
     2012.99111        11.50903         8.87540
     2013.00206         3.96975         8.43537
     2013.00480         2.37368         8.15496
     2013.00753         1.94462         8.01260
     2013.01027         2.75355         7.99965
     2013.01301         3.25448         8.03704
     2013.01575         6.89841         8.02122
     2013.01849         6.33234         8.24412
     2013.02122        12.83527         8.04423
     2013.02396         0.08620         7.94932
     2013.02670         6.66413         8.66833
     2013.03491         0.11193         8.80350
     2013.03765        -1.50514         8.00541
     2013.04039        -4.53821         7.97808
     2013.04313        -2.15228         8.19810
     2013.04586        -0.60435         8.19522
     2013.04860        -0.07042         8.25418
     2013.05134        -1.23649         7.94357
     2013.05408        -1.71756         8.06868
     2013.05682         4.55737         8.06149
     2013.05955         4.16330         8.04423
     2013.06229         0.00024         8.30595
     2013.06503         0.26617         8.19810
     2013.06777         3.52510         8.03273
     2013.07050         7.58303         8.10463
     2013.07324        -0.92604         8.03992
     2013.07598         1.26289         8.00109
     2013.07872         7.55282         7.99678
     2014.14374         2.05298         8.09169
     2014.14648         4.48191         8.14058
     2014.14922         3.93084         8.07731
     2014.15196         4.46877         8.10175
     2014.15469         7.45570         8.22686
     2014.15743        -8.56337         8.39654
     2014.16017        10.34356         8.65682
     2014.16291         9.23949         8.40661
     2014.16564         3.12242         8.09888
     2014.16838        -2.90365         8.48714
     2014.17112         2.49629         8.57773
     2014.17386         7.05722         8.67120
     2014.17660        -0.86385         8.54035
     2014.17933         9.98308         8.54322
     2014.18207         5.60401         8.22398
     2014.18481         0.26894         8.13195
     2014.18755         4.22387         8.28582
     2014.19029         5.63180         8.09456
     2014.19302         6.28673         8.17078
     2014.19576         6.09466         8.15208
     2014.19850         7.81660         8.11469
     2014.20124         2.64953         8.12476
     2014.20397         1.35546         8.17653
     2014.20671         4.90939         8.20960
     2014.20945        10.02832         8.17653
     2014.21219         8.78225         8.09312
     2014.21493         4.27618         8.36491
     2014.21766         7.11011         8.13339
     2014.22040         3.68304         8.10175
     2014.22314         2.09897         8.13770
     2014.22588         3.83091         8.15496
     2014.22862       -11.22316         8.26569
     2014.23135         8.27177         8.26281
     2014.23409         7.15270         8.22830
     2014.23683        12.87163         8.31458
     2014.23957         4.66156         8.62806
     2014.24230         2.24549         8.18372
     2014.24504        -3.66058         8.19235
     2014.24751        12.75536         9.76841
     2015.82204        13.10267         8.20097
     2015.82478        14.18160         8.13195
     2015.82752        17.66753         8.12332
     2015.83026        14.87546         8.10750
     2015.83300        15.49140         8.33615
     2015.83573        -0.94467         8.36778
     2015.84121        16.37419         8.21392
     2015.84395        16.05812         8.27575
     2015.84669        11.98105         8.26137
     2015.84942        17.08198         8.28438
     2015.85216        18.65491         8.41092
     2015.85490        12.93584         8.40230
     2015.85764        34.64777         8.46269
     2015.86037        17.75871         8.29445
     2015.86311        15.13264         8.31458
     2015.86585        19.80957         8.25418
     2015.86859        14.06550         8.24412
     2015.87133        -2.97357         8.37785
     2015.87406        17.00336         8.29732
     2015.87680        11.30429         8.32464
     2015.87954        17.87322         8.35772
     2015.88228        21.34915         8.29013
     2015.88502        14.58808         8.29588
     2015.88775        14.36902         8.30307
     2015.89049        19.38595         8.31889
     2015.89323        19.99788         8.30739
     2015.89597        10.69881         8.47132
     2015.89870        19.30774         8.24124
     2015.90144        17.76567         8.23549
     2015.90418        16.38360         8.23693
     2015.90692        16.66453         8.28294
     2015.90966        18.49446         8.23836
     2015.91239        16.29139         8.28007
     2015.91513        15.09333         8.25706
     2015.91787        14.44026         8.22254
     2015.92061        15.43619         8.56048
     2015.92334        13.63012         8.54754
     2015.92608        13.42505         8.34478
     2015.92882        10.58598         8.49145
     2015.93156        13.57091         8.85671
     2015.93430        19.30084         8.66977
     2015.93703        23.20577         9.09686
     2015.93977         5.00570         8.77474
     2015.94251        17.84564         8.53172
     2015.94525        16.06757         8.42099
     2015.94799        14.30250         8.60074
     2015.95072        23.02943         8.16215
     2015.95346        19.36436         8.14345
     2015.95620        18.26329         8.32033
     2015.95894        12.91722         8.64244
     2015.96167        21.29515         8.52309
     2015.96441        10.88208         8.38792
     2015.96715        14.83501         8.19666
     2015.96989        14.61995         8.27431
     2015.97263        20.75788         8.32464
     2015.97536        17.83881         8.29732
     2015.97810        11.40474         8.22111
     2015.98084        16.48067         8.19666
     2015.98358        10.87460         8.15783
     2015.98632        10.73653         8.20816
     2015.98905        10.11246         8.14633
     2015.99179         9.09039         8.21679
     2015.99453        11.17432         8.17940
     2015.99727        14.55726         8.13770
     2016.00000        15.80619         8.18803
     2016.00274        11.57912         8.13339
     2016.00548        10.37105         8.21104
     2016.00822         7.38298         8.15496
     2016.01096        11.99591         8.15640
     2016.01369        12.22884         8.20241
     2016.01643         9.42577         8.25993
     2016.01917         9.97470         8.47707
     2016.02191         9.88163         8.29301
     2016.02465        11.05556         8.14777
     2016.02738         6.26450         8.13051
     2016.03012         7.26743         8.09600
     2016.03286         1.79936         8.33759
     2016.03560        12.00929         8.18372
     2016.03833         7.46222         8.67839
     2016.04107        12.32215         8.29876
     2016.04381         7.13808         8.35053
     2016.04655        12.55101         8.20673
     2016.04929         6.90394         8.29876
     2016.05202         6.46487         8.31745
     2016.05476        10.52481         8.08018
     2016.05750        -7.58826         8.25274
     2016.06024        -8.20433         8.71866
     2016.06298        11.49060         8.16071
     2016.06571         6.28353         8.11326
     2016.70911         0.82731         8.49577
     2016.71185         8.62524         8.01403
     2016.71458         3.06717         8.00109
     2016.71732        12.13010         7.95507
     2016.72006        -3.51996         8.01691
     2016.72280         1.50597         8.33471
     2016.72554         5.72290         8.13770
     2016.72827         9.59483         8.22686
     2016.73101         7.47976         8.10894
     2016.73375         1.69869         7.95939
     2016.73649         3.41862         7.93350
     2016.73922         1.70955         7.96514
     2016.74196         0.41548         7.95220
     2016.74470        -8.44059         8.09600
     2016.74744        -9.17365         8.07012
     2016.75018        -3.85972         8.03417
     2016.75291         9.14121         8.11182
     2016.75565         7.84514         7.98527
     2016.75839         8.63007         7.92919
     2016.76113         7.76100         7.93926
     2016.76387         5.99793         7.95651
     2016.76660         4.54286         7.99390
     2016.76934         7.17579         7.87742
     2016.77208         3.21372         7.85873
     2016.77482         2.36366         7.95507
     2016.77755         4.99359         8.04279
     2016.78029         1.66952         8.00109
     2016.78303         6.42445         8.03992
     2016.78577         9.62338         8.35340
     2016.78851         5.33531         8.46557
     2016.79124        -5.52676         8.41955
     2016.79398         7.54517         8.01116
     2016.79672         8.62010         7.96658
     2016.79946        -0.99797         7.96514
     2016.80220         3.47097         7.92488
     2016.80493         5.24090         7.93350
     2016.80767         4.93583         8.00397
     2016.81041        -5.19924         8.01835
     2016.81315       -23.92731         8.27719
     2016.81588       -17.94038         8.40230
     2016.81862       -13.13345         8.00253
     2016.82136        -7.98452         8.56335
     2016.82410        -6.06659         7.97089
     2016.82684        -4.15966         8.24124
     2016.82957         2.28628         8.19522
     2016.83231         6.28121         8.07155
     2016.83505        -2.73486         7.87023
     2016.83779         1.69107         7.87311
     2016.84052        -4.52400         7.91337
     2016.84326        -4.72807         7.89755
     2016.84600        -4.72114         7.94645
     2016.84874         7.34779         8.03129
     2016.85148         4.76472         7.91912
     2016.85421         6.19265         7.92056
     2016.85695         4.65159         7.99103
     2016.85969         2.55252         8.07874
     2016.86243         5.32945         7.92344
     2016.86517         2.14238         8.11901
     2016.86790         3.25331         7.94357
     2016.87064         4.42424         7.93638
     2016.87307         4.39818         9.09686
     2019.43053       -14.56429         8.31458
     2019.43327       -28.82335         8.10894
     2019.43601       -26.25542         8.11757
     2019.43875       -29.65149         8.20529
     2019.44148       -33.56156         8.23836
     2019.44422       -24.70663         8.27863
     2019.44696       -28.44970         8.43681
     2019.44970       -32.50777         8.39942
     2019.45243       -30.68584         8.39079
     2019.45517       -27.46391         8.23980
     2019.45791       -23.77798         8.12045
     2019.46065       -22.96704         8.31889
     2019.46339       -26.13511         8.65826
     2019.46612       -25.46218         8.74886
     2019.46886       -22.69225         8.33615
     2019.47160       -20.56632         8.21248
     2019.47434       -22.34839         8.30451
     2019.47708       -19.10946         8.44831
     2019.47981       -25.26053         8.46413
     2019.48255       -21.87360         8.34334
     2019.48529       -32.01267         8.53459
     2019.48803       -28.56873         8.26137
     2019.49076       -33.80480         8.11613
     2019.49350       -26.87687         8.27719
     2019.49624       -25.10394         8.23549
     2019.49898       -26.20801         8.10894
     2019.50172       -25.48208         8.15496
     2019.50445       -27.57115         8.15352
