# ================= DQRFIT RESULTS ================
# INPUT FILE: series/HRPR.rad
# OUTPUT: LDETRENDED
# FILTER FUNCTION: f(t)
# f(t)=+line(t)+annual(t)
# line(t)=+P 1+P 2*t
# annual(t)=+P 3*sin(2*pi*t+P 4)
# heav(t)=(t<0?0:1)
# TOTAL OBSERVATIONS MTOT= 1172
# INITIAL TIME INTERVAL= 2022.7488 - 2019.4962 =  3.2526
# TOTAL OBSERVATIONS AFTER PREFILTER M= 1169
# TIME-SPAN= 2022.7488 - 2019.4962 =  3.2526
# OBSERVATIONS: USED M=  1169 REJECTED MTOT-M=     3 %USED=   99.7440
# N=  4 PARAMETERS
# MAXSIG= 175.00000
# MAXRES=  23.66108
# SCALE FACTOR FOR LENGTHS: SCL=  10.00000
# SCALE FACTOR FOR SIGMAS: SCLSIG=   1.00000
# CHI^2=   1609.345 DOF=  1165 CHI^2/DOF=   1.38141
# RMS=      6.536 SDEV=      6.538 MEAN=   -0.00103
#  P #       PARAMETER +-    SIGMA %error PARAMETER NAME
# P 1 =     -3937.63739 +-  412.466  10.47 YZERO                              
# P 2 =         1.94672 +-    0.204  10.48 SLOPE                              
# P 3 =         4.89934 +-    0.270   5.51 ANNUAL AMPLITUDE                   
# P 4 =        -2.95691 +-    0.077   2.59 ANNUAL PHASE                       
#       T            LDETRENDED       SIG_OBS
     2019.49623        -3.65943         6.34211
     2019.49897        -0.69376         6.42791
     2019.50171         3.66691         6.34446
     2019.50444        -1.55942         6.28922
     2019.50718        -1.06175         6.28217
     2019.50992        -1.38107         6.29980
     2019.51266         0.27060         6.41263
     2019.51540         0.73927         6.45847
     2019.51813        -4.46506         6.32683
     2019.52087         0.85061         6.28687
     2019.52361        -1.51672         6.28569
     2019.52635        -0.54305         6.41850
     2019.52908        -5.51038         6.72879
     2019.53182        -4.21071         6.65122
     2019.53456        -6.23104         6.52663
     2019.53730         4.66763         6.48432
     2019.54004         4.22030         6.48197
     2019.54277         7.02897         6.53369
     2019.54551         3.66364         6.78521
     2019.54825         3.78031         6.35033
     2019.55099        -0.59402         6.32800
     2019.55373         4.40165         6.46199
     2019.55646         6.91532         6.64064
     2019.55920        -2.11101         6.86866
     2019.56091         7.02966        12.34454
     2019.56468         5.55133         6.49725
     2019.56741         7.35400         6.34211
     2019.57015         7.58467         6.29392
     2019.57289         8.21734         6.59833
     2019.57563         4.03001         6.44201
     2019.57837         0.39268         6.49255
     2019.58110         0.36635         6.30567
     2019.58384         4.28602         6.50548
     2019.58658         6.23169         6.38324
     2019.58932         9.98936         6.42908
     2019.59206        10.52603         6.62184
     2019.59479        -1.08030         6.39970
     2019.59753         6.94737         6.53486
     2019.60027         7.19404         6.60186
     2019.60301         2.23171         6.38559
     2019.60574         6.55938         6.78403
     2019.60848         0.84505         6.75465
     2019.61122        -3.23228         6.25983
     2019.61396         1.76739         6.37149
     2019.61670         7.10106         6.31390
     2019.61943         7.23973         6.38207
     2019.62217         9.70240         6.49725
     2019.62491        11.32807         6.34798
     2019.62765         8.46074         6.28334
     2019.63039         9.40241         6.32213
     2019.63312         8.49208         6.36444
     2019.63586        10.76675         6.34446
     2019.63860         3.99342         6.46552
     2019.64134         4.95809         6.48902
     2019.64407         4.53876         6.33858
     2019.64681         5.09543         6.36679
     2019.64955         6.21510         6.34328
     2019.65229        10.87377         6.31272
     2019.65503         3.37544         6.53016
     2019.65776         2.05111         6.43731
     2019.66050         6.50779         6.63124
     2019.66324         2.12746         6.33976
     2019.66598         9.24613         6.42673
     2019.66872         7.19580         6.42908
     2019.67145         2.00147         6.36209
     2019.67419         3.76914         6.42203
     2019.67693        10.46781         6.52076
     2019.67967         2.80948         6.66297
     2019.68240        -0.97885         6.35621
     2019.68514         2.99482         6.45729
     2019.68788         4.40249         6.51371
     2019.69062         5.58616         6.42673
     2019.69336         3.02983         6.28334
     2019.69609         4.45550         6.35974
     2019.69883        -0.01983         6.43613
     2019.70157         0.32884         6.33153
     2019.70431         5.56451         6.29744
     2019.70705         8.36318         6.34211
     2019.70978         7.38985         6.37032
     2019.71252         3.04952         6.41145
     2019.71526         8.10019         6.31625
     2019.71800         6.81186         6.51371
     2019.72073         0.93653         6.51136
     2019.72347        -0.74780         6.27629
     2019.72621         4.78787         6.36914
     2019.72895        -2.38346         6.38559
     2019.73169        11.34421         6.36209
     2019.73442         2.82288         6.33623
     2019.73716         2.80055         6.55602
     2019.73990        10.40922         6.55132
     2019.74264         6.11489         6.44906
     2019.74538         6.71356         6.29274
     2019.74811         7.99323         6.42556
     2019.75085         2.18690         6.41850
     2019.75359         3.01157         6.61126
     2019.75633         5.46024         6.44671
     2019.75906         1.83491         6.28804
     2019.76180        -1.12542         6.27041
     2019.76454         2.92325         6.34916
     2019.76728         5.01792         6.47022
     2019.77002        -0.01841         6.54074
     2019.77275         0.60426         6.59128
     2019.77549         2.85893         6.44436
     2019.77823         3.42060         6.43143
     2019.78097         5.04227         6.45259
     2019.78371         3.82294         6.44201
     2019.78644         0.20561         6.40910
     2019.78918         4.02028         6.45611
     2019.79192        11.80695         6.49725
     2019.79466        22.79362         6.49490
     2019.79739         9.70629         6.48315
     2019.80013         9.82396         6.45847
     2019.80287         5.70363         6.43026
     2019.80561         0.05830         6.65592
     2019.80835         4.66897         6.44201
     2019.81108        -0.72135         6.37502
     2019.81382         4.92032         6.43496
     2019.81656        10.80799         6.47257
     2019.81930        -1.07534         6.48315
     2019.82203         2.33033         6.42673
     2019.82477        -1.49700         6.45847
     2019.82751        -0.00933         6.37032
     2019.83025         0.91534         6.57835
     2019.83299         0.88301         6.56660
     2019.83572         2.80468         6.46317
     2019.83846         4.42035         6.41615
     2019.84120         4.57502         6.44084
     2019.84394        -0.42031         6.63477
     2019.84668         0.99036         6.43848
     2019.84941         1.99003         6.44436
     2019.85215         3.41970         6.42791
     2019.85489         2.26937         6.40322
     2019.85763         2.34404         6.40558
     2019.86036         4.43671         6.49137
     2019.86310         0.19138         6.47492
     2019.86584         7.79605         6.60303
     2019.86858         8.07572         6.42203
     2019.87132         5.91239         6.47492
     2019.87405         4.25106         6.39147
     2019.87679         1.02673         6.54309
     2019.87953        10.59040         6.47022
     2019.88227        17.09207         6.60186
     2019.88501        15.07674         6.40440
     2019.88774        10.80541         6.56660
     2019.89048        13.64808         6.40675
     2019.89322        10.35775         6.42085
     2019.89596         7.87542         6.43966
     2019.89869        11.37709         6.52781
     2019.90143         7.74676         6.40910
     2019.90417        14.19043         6.42673
     2019.90691         6.15710         6.39970
     2019.90965         7.57477         6.37972
     2019.91238         4.05144         6.41145
     2019.91512        -4.22189         6.45494
     2019.92060        -1.90355         6.42556
     2019.92334         8.25712         6.43378
     2019.92607         8.06179         6.42673
     2019.92881         7.55646         6.45259
     2019.93155        12.23813         6.44789
     2019.93429         7.22880         6.41263
     2019.93702         4.88947         6.37972
     2019.93976         1.21314         6.39970
     2019.94250        -0.01219         6.43496
     2019.94524         4.94848         6.49843
     2019.94798         0.46815         6.46082
     2019.95071         3.14582         6.66062
     2019.95345         4.55949         6.39265
     2019.95619         4.55516         6.42556
     2019.95893        -0.90016         6.39970
     2019.96167         0.33851         6.44906
     2019.96440        -1.58582         6.57952
     2019.96714        -4.35815         6.56425
     2019.96988        -2.81448         6.37149
     2019.97262         3.18719         6.41498
     2019.97535         6.99586         6.42203
     2019.97809        -1.46847         6.45141
     2019.98083         2.16120         6.43848
     2019.98357        -1.02713         6.39382
     2019.98631         2.84254         6.39970
     2019.98904         2.32321         6.43848
     2019.99178        -0.35512         6.46082
     2019.99452        -5.80145         6.45024
     2019.99726         3.60022         6.46904
     2020.00000        13.02189         6.49960
     2020.00273         7.81856         6.45964
     2020.00547         3.35523         6.58305
     2020.00821         3.27490         6.63359
     2020.01095         1.62357         6.56072
     2020.01368        -9.74676         6.54662
     2020.01642        -0.96109         6.53016
     2020.01916         3.49858         6.44436
     2020.02190        -0.34675         6.59598
     2020.02464        -2.11308         6.54074
     2020.02737        -0.36541         6.45141
     2020.03011         7.20926         6.44436
     2020.03285        -2.64607         6.42908
     2020.03559         1.42660         6.30215
     2020.03833         1.65227         6.32213
     2020.04106        -0.46506         6.43731
     2020.04380         0.13761         6.41380
     2020.04654        -0.09372         6.32565
     2020.04928        -7.81005         6.26689
     2020.05201        -1.57238         6.32565
     2020.05475        -1.74171         6.28452
     2020.05749         2.67696         6.29039
     2020.06023        -1.14537         6.29627
     2020.06297        -4.57970         6.29274
     2020.06570         1.57797         6.47845
     2020.06844         1.09064         6.32683
     2020.07118         4.31731         6.31743
     2020.07392         3.81998         6.36326
     2020.07666        -3.84835         6.30450
     2020.07939        -3.82968         6.30332
     2020.08213        -3.25101         6.27864
     2020.08487        -2.64034         6.32213
     2020.08761         5.27533         6.34446
     2020.09034        -1.61400         6.28569
     2020.09308         0.41667         6.28687
     2020.09582         2.21034         6.30097
     2020.09856        -6.52199         6.32213
     2020.10130         9.87968         6.38089
     2020.10403         9.95135         6.42085
     2020.10677         0.49402         6.26689
     2020.10951        -8.95730         6.30332
     2020.11225        -6.58063         6.27629
     2020.11498        -1.70696         6.28922
     2020.11772        -0.69729         6.41850
     2020.12046         6.20238         6.52428
     2020.12320        -3.66395         6.30567
     2020.12594        -3.27628         6.28804
     2020.12867        -4.00661         6.32095
     2020.13141        -1.23394         6.23163
     2020.13415        -6.54527         6.21752
     2020.13689        -0.35260         6.42908
     2020.13963        -2.33993         6.43261
     2020.14236        -1.02126         6.32448
     2020.14510         3.80541         6.35269
     2020.14784        -4.07092         6.33270
     2020.15058        -5.24925         6.29980
     2020.15331        -8.20458         6.33858
     2020.15605        -7.32791         6.35856
     2020.15879        -2.78624         6.35033
     2020.16153         0.43143         6.34916
     2020.16427         2.63010         6.29627
     2020.16700         2.16677         6.28687
     2020.16974         4.89544         6.36209
     2020.17248         4.75011         6.34681
     2020.17522         0.25678         6.32683
     2020.17796         0.23545         6.23633
     2020.18069         4.56412         6.25631
     2020.18343         2.82579         6.23398
     2020.18617         1.36746         6.30685
     2020.18891        -1.74587         6.46082
     2020.19164        -1.15520         6.36326
     2020.19438        -2.30053         6.39030
     2020.19712         0.22414         6.40793
     2020.19986        -2.37319         6.41028
     2020.20260        -0.15952         6.42791
     2020.20533        -0.75885         6.43261
     2020.20807         0.84882         6.37502
     2020.21081        -3.48151         6.35856
     2020.21355        -4.49584         6.87924
     2020.21629        -2.21017         6.67825
     2020.21902        -3.50150         6.52311
     2020.22176        -1.61983         6.41028
     2020.22450        -1.37416         6.41850
     2020.22724        -0.48349         6.39735
     2020.22997         0.32418         6.36444
     2020.23271         3.47785         6.33035
     2020.23545         1.12852         6.35151
     2020.23819        -2.99581         6.36209
     2020.24093         0.59886         6.38324
     2020.24366         4.10353         6.43026
     2020.24640         5.72420         6.41733
     2020.24914        -3.98213         6.38559
     2020.25188        -3.13246         6.37502
     2020.25735         3.26189         6.37502
     2020.26009         5.63556         6.39265
     2020.26283         2.45123         6.37854
     2020.26557        -3.07910         6.39265
     2020.26830        -4.71143         6.36914
     2020.27104         1.12324         6.32918
     2020.27378        -3.91909         6.43966
     2020.27652         0.10658         6.44906
     2020.27926        -3.11875         6.42908
     2020.28199        -1.58908         6.47022
     2020.28473        -7.47041         6.32448
     2020.28747        -0.38674         6.40910
     2020.29021        -2.30407         6.44084
     2020.29295        -3.17240         6.40205
     2020.29568         4.05127         6.38324
     2020.29842         2.03694         6.36914
     2020.30116         2.28661         6.33623
     2020.30390         4.32728         6.37384
     2020.30663         1.48395         6.40793
     2020.30937         1.95262         6.73584
     2020.31211        -4.69071         6.51136
     2020.31485        -4.21004         6.44671
     2020.31759         0.95463         6.26571
     2020.32032         1.89930         6.30685
     2020.32306         1.38897         6.33270
     2020.32580        -0.32736         6.27159
     2020.32854        -1.87369         6.49020
     2020.33128        -5.43602         6.28687
     2020.33401        -2.02735         6.31155
     2020.33675         3.89832         6.44319
     2020.33949        -1.34601         6.29627
     2020.34223        -3.30234         6.42321
     2020.34496        -2.29667         6.45141
     2020.34770        -4.92800         6.26336
     2020.35044        -1.75833         6.34211
     2020.35318        -5.34766         6.39500
     2020.35592        -2.56299         6.39382
     2020.35865         0.89768         6.34798
     2020.36139        -1.08765         6.41498
     2020.36413         6.67402         6.32918
     2020.36687         1.95169         6.37384
     2020.36961        -3.37464         6.38324
     2020.37234        -1.18197         6.27159
     2020.37508         3.37170         6.33506
     2020.37782         2.17537         6.35739
     2020.38056        -1.94396         6.32213
     2020.38329        -0.14729         6.29862
     2020.38603         2.85338         6.31507
     2020.38877         0.57005         6.51371
     2020.39151        -4.82528         6.28452
     2020.39425        -3.37761         6.32918
     2020.39698        -3.96494         6.29627
     2020.39972       -10.73827         6.34798
     2020.40246        -5.48560         6.32213
     2020.40520        -3.66193         6.43261
     2020.40794        -3.40325         6.28334
     2020.41067        -0.76958         6.42556
     2020.41341         4.04609         6.39147
     2020.41615        -0.42924         6.33270
     2020.41889        -5.30157         6.30332
     2020.42162       -11.24890         6.40322
     2020.42436         0.33477         6.57600
     2020.42710         1.66944         6.59480
     2020.42984        -1.48189         6.51958
     2020.43258         0.84278         6.42673
     2020.43531        -2.29355         6.43026
     2020.43805         1.35512         6.37972
     2020.44079        -6.72421         6.46082
     2020.44353         0.10446         6.46787
     2020.44626        -3.34387         6.36444
     2020.44900        -0.14520         6.47610
     2020.45174         0.83447         6.40910
     2020.45448        -1.75186         6.28099
     2020.45722         2.87981         6.29274
     2020.45995        -0.70852         6.25631
     2020.46269        -8.85485         6.33623
     2020.46543        -7.64518         6.34211
     2020.46817         0.68949         6.31155
     2020.47091         2.08416         6.27981
     2020.47364        -6.58917         6.29157
     2020.47638         1.66450         6.31743
     2020.47912        -0.31783         6.39147
     2020.48186         2.71884         6.35504
     2020.48459         3.74351         6.51606
     2020.48733        -1.76782         6.50313
     2020.49007         6.79385         6.53369
     2020.49281         3.42052         6.46552
     2020.49555        -0.67881         6.41615
     2020.49828         2.10686         6.29627
     2020.50102        -4.41847         6.31743
     2020.50376        -1.97880         6.30685
     2020.50650        -4.12013         6.32918
     2020.50924        -5.22046         6.31625
     2020.51197        -1.92079         6.25513
     2020.51471         6.58788         6.35269
     2020.51745        -4.81345         6.25396
     2020.52019         1.88822         6.44084
     2020.52292         1.97589         6.49843
     2020.52566        -3.12744         6.45729
     2020.52840         8.51023         6.61831
     2020.53114         2.51390         6.45024
     2020.53388        -0.81443         6.49020
     2020.53661        -0.94676         6.45494
     2020.53935         1.93591         6.39500
     2020.54209        -1.10242         6.50665
     2020.54483        -1.45775         6.50783
     2020.54757        -2.24408         6.45141
     2020.55030        -1.30041         6.45611
     2020.55304        -0.06274         6.45024
     2020.55578         6.54193         6.46199
     2020.55852        11.96461         6.66415
     2020.56125        -2.65672         6.49608
     2020.56399        -0.63505         6.57835
     2020.56673        -2.13438         6.44671
     2020.56947        11.03129         6.45024
     2020.57221         2.31696         6.66062
     2020.57494         2.88963         6.52663
     2020.57768         2.58630         6.45141
     2020.58042        -5.90003         6.53721
     2020.58316         0.14864         6.49490
     2020.58590         0.44331         6.41263
     2020.58863        -2.81502         6.38795
     2020.59137         2.64465         6.36796
     2020.59411         6.30932         6.49843
     2020.59685        -2.93601         6.86983
     2020.59958        -3.63634         6.81107
     2020.60232         5.06233         6.33506
     2020.60506         4.32300         6.48315
     2020.60780         2.99567         6.37854
     2020.61054         4.85034         6.49490
     2020.61327         2.57501         6.54309
     2020.61601        -0.60632         6.41145
     2020.61875        -3.19965         6.34916
     2020.62149         0.91302         6.40205
     2020.62423         1.52769         6.49490
     2020.62696        -0.73564         6.64182
     2020.62970        -1.11597         6.48315
     2020.63244         0.80270         6.52899
     2020.63518        -5.54663         6.52193
     2020.63791         3.69104         6.57012
     2020.64065         2.34071         6.51841
     2020.64339         0.94238         6.41380
     2020.64613        -2.41195         6.49255
     2020.64887         5.05872         6.50900
     2020.65160         5.09339         6.50078
     2020.65434         7.22606         6.58423
     2020.65708         1.72273         6.37854
     2020.65982         1.74340         6.40205
     2020.66256        -2.01593         6.43378
     2020.66529         5.80374         6.42673
     2020.66803         6.70141         6.52311
     2020.67077         8.22308         6.39147
     2020.67351         0.70475         6.59951
     2020.67624         1.33742         6.39970
     2020.67898        -1.71191         6.45376
     2020.68172        -5.04124         6.42321
     2020.68446         3.34143         6.70764
     2020.68720         2.15710         6.61949
     2020.68993        -1.44823         6.40558
     2020.69267        -2.19256         6.49490
     2020.69541        -3.03389         6.71234
     2020.69815        -0.22122         6.56542
     2020.70089        -0.36955         6.44789
     2020.70362        -2.39488         6.40087
     2020.70636        -5.56920         6.71116
     2020.70910        -7.95453         6.70058
     2020.71184        -0.96486         6.49255
     2020.71457         1.93081         6.54897
     2020.71731        -6.29852         6.59128
     2020.72005        -2.72485         6.57482
     2020.72279        -5.86818         6.40558
     2020.72553         4.13449         6.60421
     2020.72826        -0.08684         6.60538
     2020.73100         8.40083         6.66180
     2020.73374         9.20450         6.60421
     2020.73648         0.88217         6.58305
     2020.73921         1.34084         6.46199
     2020.74195         2.77851         6.42673
     2020.74469        -3.59782         6.41615
     2020.74743        -2.56715         6.45847
     2020.75017        -4.85548         6.42203
     2020.75290        -3.55381         6.47139
     2020.75564        -1.35814         6.44201
     2020.75838         3.02553         6.35621
     2020.76112         1.03420         6.39617
     2020.76386        -0.54213         6.36091
     2020.76659        -1.84146         6.34328
     2020.76933         5.35621         6.49255
     2020.77207         7.14788         6.33741
     2020.77481         2.33855         6.41615
     2020.77754         4.10422         6.44319
     2020.78028         4.29789         6.54544
     2020.78302        -1.31144         6.44671
     2020.78576         4.13123         6.51841
     2020.78850        -5.24010         6.37854
     2020.79123        -1.18643         6.40440
     2020.79397         6.84124         6.45729
     2020.79671         4.38191         6.41968
     2020.79945         3.02158         6.45141
     2020.80219         6.65925         6.62066
     2020.80492         2.64792         6.49373
     2020.80766        -0.11241         6.51018
     2020.81040         0.10426         6.52193
     2020.81314         6.10993         6.51018
     2020.81587        -1.32040         6.41380
     2020.81861        -0.27473         6.44319
     2020.82135         1.80894         6.48785
     2020.82409         2.85761         6.46082
     2020.82683        -0.58772         6.47727
     2020.82956        -0.66305         6.54191
     2020.83230         3.98162         6.59951
     2020.83504        -0.57071         6.47257
     2020.83778         3.28496         6.27276
     2020.84052         4.84563         6.25396
     2020.84325         1.45230         6.45024
     2020.84599        -3.91503         6.47610
     2020.84873         7.05064         6.30450
     2020.85147         5.20431         6.27746
     2020.85420        12.56898         6.27276
     2020.85694         7.75066         6.37149
     2020.85968         7.40933         6.32565
     2020.86242         6.07800         6.35151
     2020.86516         7.87367         6.51841
     2020.86789         8.21434         6.63477
     2020.87063         7.40501         6.41968
     2020.87337        12.73768         6.44906
     2020.87611        12.17635         6.54309
     2020.87885        10.20302         6.51488
     2020.88158         6.94669         6.67473
     2020.88432        13.82136         6.58070
     2020.88706        -0.79797         6.66768
     2020.88980        -3.31830         6.47962
     2020.89253         0.79737         6.33741
     2020.89527         6.39804         6.62184
     2020.89801         4.91371         6.65357
     2020.90075         7.03338         6.39735
     2020.90349         5.04605         6.46552
     2020.90622         0.54772         6.39147
     2020.90896         4.57839         6.60303
     2020.91170         1.83806         6.72762
     2020.91444        -0.29627         6.49373
     2020.91718         1.23740         6.38442
     2020.91991        -3.92493         6.35974
     2020.92168        -4.03937        11.83210
     2020.92556        -3.73592         6.85103
     2020.92813        -8.19092         6.39147
     2020.92995        -9.65147        11.43953
     2020.93908         1.60276         6.41145
     2020.94182        -3.72557         6.36091
     2020.94455        -6.41490         6.41615
     2020.94729        -7.84023         6.41028
     2020.95003        -9.48356         6.45847
     2020.95551       -12.42322         6.45376
     2020.95824       -17.01355         6.39265
     2020.96098        -7.02488         6.41263
     2020.96372        -8.84121         6.48080
     2020.96646         0.17346         6.53721
     2020.96919        -0.11987         6.51136
     2020.97193        -7.50320         6.31507
     2020.97467         2.64547         6.50783
     2020.97741       -11.32686         6.47727
     2020.98015        -7.94519         6.67120
     2020.98288        -7.32952         6.56072
     2020.98562        -1.96285         6.33858
     2020.98836        -0.18318         6.28804
     2020.99110         1.04349         6.24926
     2020.99384        -5.30684         6.27511
     2020.99657        -3.49717         6.34093
     2020.99931        -1.58050         6.30802
     2021.00205        -4.01883         6.31625
     2021.00479         7.66985         6.32683
     2021.00752         6.41752         6.35856
     2021.01026         1.84519         6.36444
     2021.01300         4.11986         6.37972
     2021.01574         2.23053         6.35386
     2021.01848        -4.02280         6.27159
     2021.02121        -7.85113         6.26806
     2021.02395       -17.60546         6.28217
     2021.02669        -3.49079         6.36914
     2021.02943        -3.13612         6.40675
     2021.03216        -4.10045         6.31507
     2021.03450        -2.04701         7.77484
     2021.04038        -5.35044         6.36796
     2021.04312        -3.29577         6.37619
     2021.04585         3.07790         6.37737
     2021.04859        -1.87143         6.29627
     2021.05133        -0.19576         6.37384
     2021.05407         1.48591         6.64534
     2021.05681         0.58658         6.52076
     2021.05954        -3.95475         6.36444
     2021.06776         5.76726         6.31625
     2021.07049         0.40193         6.29862
     2021.07323         0.59460         6.33035
     2021.07597       -10.05873         6.30215
     2021.07871        -3.74806         6.26101
     2021.08145        -6.75539         6.29157
     2021.08418        -9.05972         6.28452
     2021.08692        -2.59705         6.35974
     2021.08966        -2.39238         6.35386
     2021.09240        -4.47171         6.36796
     2021.09514        -6.20504         6.45611
     2021.09787        -6.56837         6.49843
     2021.10061        -3.76970         6.33623
     2021.10335        -2.84103         6.39147
     2021.10609        -4.75236         6.33623
     2021.10882        -4.13569         6.33153
     2021.11156        -5.04802         6.35033
     2021.11430        -5.04135         6.35621
     2021.11704       -18.87068         6.36091
     2021.11978       -14.12101         6.36444
     2021.12251        -2.81434         6.33858
     2021.12525       -18.07567         6.36561
     2021.12799         5.19200         6.41850
     2021.13073        -5.06833         6.32800
     2021.13347        -9.19966         6.41028
     2021.13620       -22.48599         6.38677
     2021.13894        -6.66732         6.31507
     2021.14168        -8.68065         6.35621
     2021.14442        -0.76898         6.34446
     2021.14715        -3.21131         6.42791
     2021.14989        -8.90864         6.31978
     2021.15166        -7.70508        13.54338
     2021.16358        -9.02528         6.45494
     2021.16632        -3.00861         6.49960
     2021.16906        -0.06194         6.29627
     2021.17180        -7.89727         6.31037
     2021.17453        -9.71260         6.47845
     2021.17727        -1.39893         6.51606
     2021.18001        -5.42026         6.48432
     2021.18275        -5.80359         6.63242
     2021.18548        -3.39792         6.31625
     2021.18822        -3.79225         6.32448
     2021.19096        -2.91458         6.33506
     2021.19370        -8.85891         6.38207
     2021.19644        -8.35524         6.26689
     2021.19917        -7.59857         6.28099
     2021.20191         0.53510         6.29627
     2021.20465        -2.87923         6.29980
     2021.20739        -6.15556         6.33506
     2021.21013        -1.89189         6.42908
     2021.21286        -7.21422         6.53016
     2021.21560        -5.06255         6.25748
     2021.21834        -6.26388         6.30450
     2021.22108        -6.81521         6.33741
     2021.22381        -3.17254         6.36679
     2021.22655        -4.75287         6.30685
     2021.22929         0.00980         6.26571
     2021.23203        -1.22253         6.26689
     2021.23477       -11.22386         6.29039
     2021.23750        -9.07819         6.32800
     2021.24024        -5.73252         6.39970
     2021.24298        -6.52585         6.29274
     2021.24572       -13.39418         6.23868
     2021.25119        -3.09884         6.33035
     2021.25393        -7.39417         6.34916
     2021.25667        -6.88950         6.32095
     2021.25941        -0.28483         6.31860
     2021.26214        -2.18616         6.25513
     2021.26488         2.53951         6.26689
     2021.26762        -2.76882         6.41263
     2021.27036        -3.66015         6.33506
     2021.27310        -5.92848         6.34446
     2021.27583        -6.63481         6.27394
     2021.27857        -6.19114         6.38089
     2021.28131        -5.28547         6.40205
     2021.28405        -1.00680         6.36679
     2021.28679        -1.58413         6.36914
     2021.28952        -3.40646         6.50548
     2021.29226        -6.66979         6.37384
     2021.29500        -0.69712         6.38795
     2021.29774         7.13155         6.58775
     2021.30047        -0.93078         6.38559
     2021.30321         2.80989         6.40205
     2021.30595         5.09757         6.58070
     2021.30869        10.32224         6.56189
     2021.31143         6.69191         6.30097
     2021.31416         6.18058         6.37619
     2021.31690         1.45825         6.33153
     2021.31964        -3.58208         6.41615
     2021.32238        -4.79741         6.44436
     2021.32512        -8.19374         6.34798
     2021.32785        -3.14107         6.43731
     2021.33059         4.65260         6.47492
     2021.33333         2.39127         6.32918
     2021.33607        -0.64206         6.27981
     2021.33880        -2.11639         6.32918
     2021.34154        -6.48572         6.42556
     2021.34428        -3.89805         6.55837
     2021.34702        -4.73738         6.54309
     2021.34976        -5.72971         6.32330
     2021.35249        -8.60904         6.29392
     2021.35523        -0.82737         6.40793
     2021.35797        -5.54270         6.58305
     2021.36071        -8.13803         6.44789
     2021.36344        -4.90236         6.35856
     2021.36618        -8.49569         6.46199
     2021.36892        -7.11802         6.34798
     2021.37166         2.01765         6.37384
     2021.37440        -3.49268         6.45611
     2021.37616        18.08488        12.00487
     2021.37987        -3.60634         6.60773
     2021.38261        -1.71567         6.78873
     2021.38535        -2.48200         6.56307
     2021.38809        -1.93533         6.56660
     2021.39082        -0.17566         6.46904
     2021.39356        -7.20099         6.56307
     2021.39630        -4.18832         6.55954
     2021.39904        -7.02665         6.43966
     2021.40177        -1.34798         6.51841
     2021.40451        -5.30731         6.66415
     2021.40725        -7.05364         6.44201
     2021.40999        -3.81197         6.46787
     2021.41273        -3.95030         6.46552
     2021.41546        -3.32863         6.43966
     2021.41820        -7.28596         6.54662
     2021.42094        -0.70329         6.48550
     2021.42368         6.50438         6.68178
     2021.42642         1.77605         6.69588
     2021.42915         2.65372         6.60303
     2021.43189         4.33939         6.63712
     2021.43463        -3.69894         6.58305
     2021.43737        -6.39827         6.50900
     2021.44010         3.01640         6.66532
     2021.44284        -9.76493         6.65005
     2021.44558        -5.80026         6.71469
     2021.44832        -2.30559         6.70529
     2021.45106         7.25308         6.88511
     2021.45379         8.89276         6.89216
     2021.45653        -9.96257         6.78756
     2021.45927         3.32210         6.61949
     2021.46201        -2.39023         6.52193
     2021.46475        -8.98256         6.55014
     2021.46748        -0.25289         6.61361
     2021.47022        -1.06722         6.64652
     2021.47296         2.53845         6.79931
     2021.47570        -1.48188         6.87924
     2021.47843        -3.07021         6.68648
     2021.48117        -2.67854         6.67003
     2021.48391        -8.95687         6.63124
     2021.48665        -7.15620         6.61949
     2021.48939        -5.12353         6.57482
     2021.49212        -4.03186         6.67708
     2021.49486        -8.26219         6.60303
     2021.49760        -4.65652         6.85925
     2021.50034         1.95415         6.86043
     2021.50308        -1.26718         6.69001
     2021.50581        -3.78651         6.80754
     2021.50855        -2.85784         6.82987
     2021.51129        -7.24217         6.55837
     2021.51403         7.30750         6.74760
     2021.51676         4.30817         6.59480
     2021.51950         2.44684         6.61243
     2021.52224        -7.70549         6.72879
     2021.52498        -0.95082         6.52899
     2021.52772         0.32685         6.51488
     2021.53045         2.29352         6.53721
     2021.53319        -3.51281         6.53721
     2021.53593        -0.06814         6.81107
     2021.53867         6.53753         6.92272
     2021.54141        -0.27980         6.64299
     2021.54414        -1.87813         6.66062
     2021.54688        -8.82446         6.55954
     2021.54962        -2.45079         6.58070
     2021.55509         0.31955         6.66768
     2021.55783        -3.23278         6.58188
     2021.56057        -2.43511         6.54309
     2021.56331        -0.76844         6.54426
     2021.56605        -0.86977         6.60891
     2021.56878        -1.68510         6.51723
     2021.57152        -3.96943         6.77110
     2021.57426        -5.99076         6.58658
     2021.57700        -0.42309         6.67003
     2021.57974        -8.06142         6.59480
     2021.58247       -14.56675         6.68766
     2021.58521        -7.94008         6.79696
     2021.58795        -0.46441         6.75465
     2021.59069        -1.59774         6.57835
     2021.59342        -1.83407         6.83810
     2021.59616        -2.31140         6.87218
     2021.59890        -3.24473         6.67943
     2021.60164        11.29894         6.96621
     2021.60438         0.19262         6.56072
     2021.60711        -4.10271         6.53369
     2021.60985         0.50996         6.67355
     2021.61259        -0.53337         6.55014
     2021.61533        -3.40070         6.73702
     2021.61807         0.44097         6.54191
     2021.62080        -3.34836         6.48785
     2021.62354        -1.35669         6.55837
     2021.62628        -2.88802         6.85338
     2021.62902         4.06765         6.53486
     2021.63175         3.05032         6.83222
     2021.63449        -2.87501         6.51723
     2021.63723        -3.04134         6.96503
     2021.63997         2.84533         6.68766
     2021.64271         2.22400         6.82282
     2021.64544         0.06267         6.63594
     2021.64818        -2.18266         6.52663
     2021.65092         4.31101         6.60068
     2021.65366        -3.10432         6.63829
     2021.65639         0.32335         6.48785
     2021.65913        -6.46798         6.52193
     2021.66187        -0.08431         6.54662
     2021.66461         1.01536         6.65945
     2021.66735         4.63403         6.46552
     2021.67008        -3.28830         6.73584
     2021.67282         2.19737         6.75230
     2021.67556        -1.74096         6.88159
     2021.67830        -3.02229         6.60891
     2021.68104         4.24838         6.40558
     2021.68377         3.12205         6.37737
     2021.68651        -5.43628         6.53956
     2021.68925        -1.27961         6.53251
     2021.69199         5.65406         6.63124
     2021.69472         1.43973         6.56307
     2021.69746        -3.89360         6.42321
     2021.70020        -5.01993         6.44789
     2021.70294         0.33874         6.43143
     2021.70568         3.40241         6.60421
     2021.70841         4.60308         6.57130
     2021.71115         1.88875         6.47492
     2021.71389         7.74342         6.53604
     2021.71663         8.61509         6.82635
     2021.71937        -1.51024         6.65710
     2021.72210        -6.52457         6.62301
     2021.72484        -4.23690         6.48550
     2021.72758        -0.15023         6.41968
     2021.73032        -8.75756         6.75465
     2021.73305         3.37811         6.60656
     2021.73579         5.37078         6.60891
     2021.73853         9.84645         6.48667
     2021.74127         5.82512         6.70999
     2021.74401        -1.35921         6.43143
     2021.74674         1.26246         6.43848
     2021.74948        -0.45387         6.47727
     2021.75222        -0.00719         6.60891
     2021.75496         2.61148         6.63006
     2021.75770         1.53115         6.47492
     2021.76043         2.75982         6.45141
     2021.76317         3.08549         6.59833
     2021.76591         0.63516         6.67590
     2021.76865        -1.18617         6.66415
     2021.77138         3.37450         6.52781
     2021.77412         2.06817         6.66180
     2021.77686         7.47884         6.53016
     2021.77960         8.54751         6.49608
     2021.78234         1.14818         6.48785
     2021.78507        13.42485         6.47374
     2021.78781         5.40452         6.59245
     2021.79009        -0.32192         7.94644
     2021.79603         7.19453         6.49373
     2021.79876         1.30520         6.43731
     2021.80150         3.37487         6.84045
     2021.80424         3.66654         6.68531
     2021.80698         6.14521         6.75230
     2021.80971        -3.59912         6.44906
     2021.81245        12.43755         6.55132
     2021.81519        11.95122         6.46552
     2021.81793         9.68289         6.43966
     2021.82067        -2.08544         6.58658
     2021.82340         0.95523         6.54426
     2021.82614         6.39190         6.55837
     2021.82888         3.81157         6.54544
     2021.83162         6.14424         6.65357
     2021.83436        -0.39609         6.53016
     2021.83709        -1.66442         6.56072
     2021.83983        -5.07375         6.57247
     2021.84234         1.83137         7.41989
     2021.84531         5.13359         6.56660
     2021.84804         2.37626         6.57835
     2021.85078         0.00393         6.69706
     2021.85352         1.28060         6.54191
     2021.85626         2.05427         6.48315
     2021.85900        -5.19906         6.43143
     2021.86173        -3.58939         6.50548
     2021.86447        -4.75072         6.65475
     2021.86721        -0.25005         6.77816
     2021.86995        -1.20438         6.78051
     2021.87269         0.33429         6.59833
     2021.87542        -4.03004         6.67825
     2021.87816        -5.84437         6.65945
     2021.88090        -1.77370         6.41145
     2021.88364        -0.27603         6.44554
     2021.88637        -8.18436         6.43731
     2021.88911        -9.99369         6.38442
     2021.89185       -11.07102         6.34681
     2021.89459         1.26265         6.50665
     2021.89733         0.01832         6.48785
     2021.90006        -8.92701         6.46082
     2021.90280        -7.27733         6.52428
     2021.90554        -9.80266         6.51841
     2021.90828         2.85401         6.38795
     2021.91102        -3.04232         6.44789
     2021.91375        11.79135         6.44084
     2021.91649        -5.02298         6.45847
     2021.91923        -4.02331         6.57600
     2021.92197       -12.93764         6.79931
     2021.92470       -11.55697         6.55367
     2021.92721        -1.26186         7.35054
     2021.93018        -9.71363         6.60068
     2021.93292       -12.17396         6.73114
     2021.93566         2.29171         6.72292
     2021.93839         1.12938         6.67590
     2021.94113         6.57905         6.77933
     2021.94387         9.80872         6.56072
     2021.94661         2.24339         6.59128
     2021.94935         3.49806         6.55484
     2021.95208         1.05673         6.54191
     2021.95482         5.53540         6.68060
     2021.95756        23.35207         6.66532
     2021.96030        -3.40326         6.68766
     2021.96303         0.46541         6.71704
     2021.96577         1.93008         6.69823
     2021.96851        -2.98325         6.67355
     2021.97125         3.36242         7.86769
     2021.97399         0.71509         6.76288
     2021.97672         3.42376         6.70764
     2021.97946         8.57143         6.71469
     2021.98220        11.21910         6.78638
     2021.98494         1.19577         6.71821
     2021.98767         5.34344         6.72997
     2021.99041         3.91411         6.55719
     2021.99315        -2.55922         6.53251
     2021.99589        -4.17255         6.48785
     2021.99863         7.22512         6.51488
     2022.00136        -8.87821         6.51841
     2022.00410       -11.25354         6.54897
     2022.00684        -9.62287         6.55484
     2022.00958       -12.07820         6.61008
     2022.01232       -15.40253         6.74877
     2022.01505       -21.95386         6.66650
     2022.01779         4.48981         6.72292
     2022.02053        17.49848         6.59363
     2022.02327        -1.79185         6.89334
     2022.02600       -11.96418         6.52428
     2022.02874       -11.98651         6.55484
     2022.03148       -18.26184         6.55954
     2022.03422        -8.81617         6.54897
     2022.03696       -10.75650         6.49373
     2022.03969       -12.37283         6.91802
     2022.04243        -6.57916         6.66062
     2022.04517        -6.86049         6.52663
     2022.04791        -8.31382         6.53486
     2022.05065        -4.03215         6.46904
     2022.05338        -7.43147         6.49843
     2022.05612       -15.95880         6.53016
     2022.05886       -21.72813         6.55602
     2022.06160       -18.69146         6.52428
     2022.06433        -8.17679         6.51136
     2022.06707        -9.28812         6.53956
     2022.06981        -3.98645         6.51841
     2022.07255       -17.53278         6.44436
     2022.07529       -12.42111         6.41733
     2022.07802        -9.39444         6.41263
     2022.08076        -2.90677         6.38442
     2022.08350        15.33090         6.42791
     2022.08624        -6.13543         6.40440
     2022.08898        -6.18576         6.41850
     2022.09171       -11.43809         6.37854
     2022.09445       -10.55542         6.36209
     2022.09719       -12.89875         6.33858
     2022.09993       -12.41908         6.54191
     2022.10266       -14.81141         6.57130
     2022.10540        -8.52174         6.52076
     2022.10814        -6.33207         6.51841
     2022.11088        -6.10140         6.37502
     2022.11362        -8.12573         6.89451
     2022.11641        -3.76717         6.92155
     2022.11909        -8.54439         6.78051
     2022.12183        -5.92972         6.42791
     2022.13278        -9.25704         6.40322
     2022.13552        -9.62637         6.36444
     2022.13826         2.35630         6.46317
     2022.14099        -6.48903         6.38442
     2022.14373        -7.88236         6.33035
     2022.14647        -4.05669         6.37972
     2022.14921        -5.04902         6.66532
     2022.15195        -7.88035         6.67825
     2022.15468        -8.06868         6.37619
     2022.15742        -2.02001         6.39852
     2022.16016        -6.98034         6.39382
     2022.16290        -5.20267         6.75818
     2022.16564       -10.28100         6.37502
     2022.16837        -4.14533         6.41968
     2022.17111        -3.96266         6.51723
     2022.17385        -0.28999         6.37384
     2022.17659        -2.09332         6.39735
     2022.17932       -14.67465         6.40205
     2022.18206        -8.83598         6.43261
     2022.18480       -11.74131         6.38912
     2022.18754        -3.61664         6.44789
     2022.19028        -9.70397         6.46082
     2022.19301        -6.88630         6.37737
     2022.19575         7.59637         6.50548
     2022.19849        -6.71196         6.43261
     2022.20123         0.73672         6.39852
     2022.20397         2.36339         6.33976
     2022.20670        -5.32894         6.47727
     2022.20944        -6.43527         6.53604
     2022.21218        -3.36160         6.46434
     2022.21492        -2.55593         6.67825
     2022.21765        -5.34426         6.34328
     2022.22039        -9.36359         6.36326
     2022.22313       -10.63192         6.35974
     2022.22587       -15.00325         6.61479
     2022.22861        -6.99058         6.51723
     2022.23134        -1.60091         6.34916
     2022.23408         1.36676         6.35504
     2022.23682        -0.21757         6.53134
     2022.23956        -2.41090         6.41263
     2022.24230        -0.71823         6.43496
     2022.24503         0.28644         6.36914
     2022.24777         2.84211         6.36444
     2022.25051        -2.55522         6.41028
     2022.25325        -0.84755         7.15661
     2022.25598         9.77412         6.39500
     2022.25872        -2.53221         6.53604
     2022.26146        -6.40854         6.34798
     2022.26420        -4.52387         6.33388
     2022.26694        -0.47820         6.61126
     2022.26967        -3.09153         6.43261
     2022.27241         0.59814         6.55249
     2022.27515        -4.86419         6.50783
     2022.27789         0.77548         6.33506
     2022.28062        -3.30885         6.76288
     2022.28336        -3.40418         6.39970
     2022.28610         0.04949         6.51723
     2022.28884       -17.72584         6.55602
     2022.29158        -5.86317         6.39382
     2022.29431       -13.59950         6.53134
     2022.29705        -1.03983         6.39617
     2022.29979         2.84584         6.40793
     2022.30253        -5.63949         6.60186
     2022.30527        -1.49382         6.79109
     2022.30800        -7.00515         6.38324
     2022.31074        -7.00748         6.36326
     2022.31348        -5.92281         6.39852
     2022.31622        -7.89914         6.50548
     2022.31895       -22.89047         6.67708
     2022.32169        -3.58880         6.63947
     2022.32443        -4.63413         6.37032
     2022.32717        -6.62546         6.42321
     2022.32991        -4.79879         6.42556
     2022.33264        -7.46312         6.65005
     2022.33538        -3.60045         6.71586
     2022.33812        -4.46078         6.79226
     2022.34086        -1.19211         6.44906
     2022.34360         1.74856         6.56895
     2022.34633         9.83623         6.51723
     2022.34907        -7.04910         6.66650
     2022.35181         1.40658         6.42673
     2022.35455        -3.28775         6.48315
     2022.35728        -3.47408         6.40322
     2022.36002        -6.15341         6.42908
     2022.36276        -1.85174         6.52193
     2022.36550        -7.76307         6.40793
     2022.36824       -10.73840         6.41028
     2022.37097         4.42927         6.69236
     2022.37371        -6.91606         6.54897
     2022.37645       -10.22339         6.49490
     2022.37919        -2.40572         6.76758
     2022.38193        -8.99205         6.53604
     2022.38466        -6.73938         6.41263
     2022.38740       -21.79971         6.46552
     2022.39014        -9.80104         6.47962
     2022.39288        -3.34137         6.56307
     2022.39561        -7.19070         6.58188
     2022.39835        -3.57903         6.42438
     2022.40109        -5.28736         6.50078
     2022.40383        -3.74469         6.43613
     2022.40657        -3.47102         6.64652
     2022.40930       -10.03635         6.67943
     2022.41204        -7.10568         6.43261
     2022.41478       -10.76701         6.36914
     2022.41752       -10.83634         6.51253
     2022.42026        -5.53367         6.79344
     2022.42299        -3.56400         6.69588
     2022.42573         0.78767         6.75230
     2022.42847         0.84134         6.55249
     2022.43121        -7.11599         6.67590
     2022.43394         2.18668         7.96289
     2022.43668       -11.37465         7.18247
     2022.43942        -5.32898         6.66650
     2022.44216         6.48969         6.72879
     2022.44490         4.28136         6.70881
     2022.44763         0.94903         6.51018
     2022.45037        -6.75230         6.34681
     2022.45311       -15.75763         6.38912
     2022.45585        -7.82096         6.54074
     2022.45859       -13.93129         6.59363
     2022.46132        -8.77762         6.44554
     2022.46406        -6.47095         6.37854
     2022.46680        -9.58128         6.56542
     2022.46954       -11.02861         6.48785
     2022.47227       -16.43894         6.34328
     2022.47501        -2.25427         6.42321
     2022.47775        -8.54960         6.57952
     2022.48049        -8.28093         6.38912
     2022.48323        -3.96126         6.55954
     2022.48596        -0.11359         6.42908
     2022.48870        -9.34792         6.44201
     2022.49144       -11.40625         6.52781
     2022.49418        -8.89958         6.51606
     2022.49692        -7.87391         6.55132
     2022.49965         2.75477         6.69823
     2022.50239       -17.08656         6.61831
     2022.50513        -4.96689         6.78873
     2022.50787        -0.61722         6.67943
     2022.51060        -5.65355         6.57012
     2022.51334        -6.16888         6.46317
     2022.51608        -5.95821         6.63829
     2022.51882        -7.80854         6.45141
     2022.52156         5.06513         6.48432
     2022.52429         6.53280         6.37149
     2022.52703        12.74547         6.34328
     2022.52977        17.37014         6.47610
     2022.53251        11.99981         6.56189
     2022.53525         9.85148         6.47845
     2022.53764        11.37281         7.41049
     2022.54146         9.93137        41.15083
     2022.55268        10.87755        12.33279
     2022.55441        10.51217         6.51958
     2022.55715        18.35084         6.39735
     2022.55989        15.59651         6.44906
     2022.56262         7.14818         6.48080
     2022.56536         3.69485         6.36914
     2022.56810        13.65352         6.40910
     2022.57084         9.59019         6.53369
     2022.57357        21.36786         6.75112
     2022.57631         7.73153         6.36326
     2022.57905         6.51920         6.53721
     2022.58179        19.63587         6.33153
     2022.58453        21.18354         6.81459
     2022.58726        12.21521         6.62419
     2022.59000        11.74888         6.62301
     2022.59274         2.46055         6.28922
     2022.59548         9.97722         6.44436
     2022.59822         3.81989         6.35504
     2022.60095         2.93456         6.43496
     2022.60369        18.57723         6.65357
     2022.60643         9.38190         6.69353
     2022.60917         4.05457         6.62184
     2022.61190        26.92524         6.72879
     2022.61464        16.34991         6.56307
     2022.61738        17.76258         6.54662
     2022.62012         7.18625         6.43026
     2022.62286        11.28992         6.52193
     2022.62559        12.86159         7.07081
     2022.62833        16.59826         6.41615
     2022.63107        15.24793         6.41498
     2022.63381        17.27160         6.42791
     2022.63655        17.84727         6.49608
     2022.63928        14.94494         6.59951
     2022.64202        17.80461         7.05789
     2022.64476        13.90028         7.00147
     2022.64750        22.44095         6.56895
     2022.65023        22.19363         6.58893
     2022.65297        19.27030         6.65357
     2022.65571        16.94697         6.68178
     2022.65845        19.47964         6.49608
     2022.66119        16.57931         6.41615
     2022.66392        15.59598         6.71351
     2022.66666        18.77465         6.59128
     2022.66940        19.41832         6.43026
     2022.67214        16.32499         6.39382
     2022.67488        21.14266         6.39265
     2022.67761        16.02833         6.42791
     2022.68035        22.17100         6.35386
     2022.68309        27.74267         6.38559
     2022.68583        18.54434         6.67943
     2022.68856        23.40301         6.47374
     2022.69130        16.22868         6.43966
     2022.69404        15.03535         6.46199
     2022.69678        20.77402         6.57482
     2022.69952        10.98869         6.55954
     2022.70225        15.31536         6.87924
     2022.70499        28.53703         6.74642
     2022.70773        19.22470         6.58893
     2022.71047        16.50237         6.42791
     2022.71321        24.80504         6.46787
     2022.71594        23.33871         6.45611
     2022.71868        17.81738         6.42556
     2022.72142        27.58705         6.45611
     2022.72416        19.42072         6.55954
     2022.72689        20.56839         6.46904
     2022.72963        22.54806         6.34446
     2022.73237        17.43073         6.35974
     2022.73511        20.67840         6.43378
     2022.73785        17.24407         6.37384
     2022.74058        21.35674         6.55249
     2022.74332        27.09141         6.69941
     2022.74606        20.89108         6.42438
     2022.74880        18.68075         6.35269
