# ================= DQRFIT RESULTS ================
# INPUT FILE: series/IDBB.rad
# OUTPUT: LDETRENDED
# FILTER FUNCTION: f(t)
# f(t)=+line(t)+annual(t)
# line(t)=+P 1+P 2*t
# annual(t)=+P 3*sin(2*pi*t+P 4)
# heav(t)=(t<0?0:1)
# TOTAL OBSERVATIONS MTOT= 2679
# INITIAL TIME INTERVAL= 2022.7488 - 2015.0034 =  7.7454
# TOTAL OBSERVATIONS AFTER PREFILTER M= 2679
# TIME-SPAN= 2022.7488 - 2015.0034 =  7.7454
# OBSERVATIONS: USED M=  2679 REJECTED MTOT-M=     0 %USED=  100.0000
# N=  4 PARAMETERS
# MAXSIG= 175.00000
# MAXRES=  45.09683
# SCALE FACTOR FOR LENGTHS: SCL=  10.00000
# SCALE FACTOR FOR SIGMAS: SCLSIG=   1.00000
# CHI^2=   3331.676 DOF=  2675 CHI^2/DOF=   1.24549
# RMS=      6.266 SDEV=      6.267 MEAN=    0.05235
#  P #       PARAMETER +-    SIGMA %error PARAMETER NAME
# P 1 =      3296.81202 +-  107.898   3.27 YZERO                              
# P 2 =        -1.63666 +-    0.053   3.27 SLOPE                              
# P 3 =         3.57122 +-    0.167   4.69 ANNUAL AMPLITUDE                   
# P 4 =         2.71676 +-    0.060   2.22 ANNUAL PHASE                       
#       T            LDETRENDED       SIG_OBS
     2015.00342        -5.35052         5.91376
     2015.00616       -13.03704         5.94166
     2015.00889        -9.24855         6.01420
     2015.01163        -9.55107         5.98965
     2015.01437       -10.63359         6.01197
     2015.01711       -11.20711         6.15928
     2015.01984        -4.06263         6.05549
     2015.02258        -3.94715         6.20504
     2015.02532        -1.06767         5.99411
     2015.02806        -7.90119         6.04656
     2015.03080        -8.40071         6.24521
     2015.03353        -9.85123         6.03987
     2015.03627        -6.67175         6.09232
     2015.03901        -5.07126         5.98407
     2015.04175        -8.28978         6.07000
     2015.04449        -6.41030         6.13808
     2015.04722        -3.87182         6.09232
     2015.04996        -7.95034         6.11464
     2015.05270        -8.62086         6.09343
     2015.05544        -5.32038         5.96956
     2015.05817        -3.28790         6.01866
     2015.06091        -5.03242         6.07558
     2015.06365        -3.12994         6.19164
     2015.06639        -3.45245         6.07781
     2015.06913        -5.41797         6.07000
     2015.07186       -10.97349         6.03429
     2015.07460        -7.41401         6.07558
     2015.07734       -10.79553         6.10013
     2015.08008       -13.11805         6.09455
     2015.08282        -7.69457         6.09343
     2015.08555        -6.82209         6.06665
     2015.08829        -6.22561         6.09120
     2015.09103        -3.34013         6.06888
     2015.09377        -8.23565         6.04991
     2015.09650        -4.21816         6.11687
     2015.09924         1.56732         6.17714
     2015.10198         6.73880         6.16821
     2015.10472         2.49228         6.11352
     2015.10746         0.76176         6.05772
     2015.11019        -6.65876         6.24521
     2015.11293       -11.95628         6.18272
     2015.11567       -12.94380         6.10459
     2015.11841        -9.98332         6.04656
     2015.12115        -2.45484         6.10683
     2015.12388        -4.22735         6.04991
     2015.12662       -10.30887         6.01643
     2015.12936        -8.18739         6.08227
     2015.13210        -9.37891         6.12022
     2015.13483        -7.99843         6.22959
     2015.13757        -0.25795         6.20727
     2015.14031        -5.05747         6.05437
     2015.14305        -9.13899         6.04991
     2015.14579       -12.38351         6.09790
     2015.14852        -6.86403         6.03875
     2015.15126        -6.28255         6.04768
     2015.15400        -5.19206         6.00862
     2015.15674        -5.20358         5.98853
     2015.15948        -2.20410         6.05437
     2015.16221        -3.26762         6.03652
     2015.16495        -3.23114         6.03317
     2015.16769        -4.22566         6.08116
     2015.17043        -6.53018         6.04879
     2015.17316        -8.28270         6.23628
     2015.17590        -9.07822         6.26865
     2015.17864        -5.02874         6.04991
     2015.18138        -4.18226         6.07669
     2015.18412        -2.57677         6.07781
     2015.18617        -5.15541         9.00177
     2015.18959        -7.93281         6.07223
     2015.19233        -7.67233         6.22289
     2015.19507        -7.72785         6.04879
     2015.19780        -4.60537         6.04210
     2015.20054        -4.71889         6.09009
     2015.20328        -7.89241         6.08897
     2015.20602       -10.75993         6.13138
     2015.20876        -6.76345         6.08004
     2015.21149        -8.33896         6.05326
     2015.21423       -10.49348         6.20838
     2015.21697       -10.61500         6.10125
     2015.21971       -14.16152         6.11799
     2015.22245        -4.11004         6.10571
     2015.22518        -1.95656         6.11129
     2015.22792        -4.41108         6.10236
     2015.23066        -5.84560         6.11799
     2015.23340        -6.62412         6.21731
     2015.23613         1.40536         6.29320
     2015.23887        -3.01416         6.32780
     2015.24161        -6.03467         6.37244
     2015.24435         1.05681         6.36463
     2015.24709         0.33029         6.24968
     2015.24982        -8.35323         6.88580
     2015.25256        -7.58975         6.06665
     2015.25530        -5.63727         6.06888
     2015.25804        -0.75379         6.10794
     2015.26078         0.24169         6.10236
     2015.26351        -1.46683         6.12357
     2015.26625         1.95765         6.12580
     2015.26899        -1.41086         6.15928
     2015.27173        -2.66038         6.26976
     2015.27446         0.53310         6.20504
     2015.27739         1.53689         6.49966
     2015.27994        -4.37494         6.06665
     2015.28268        -0.29746         6.08562
     2015.28542        -1.03298         6.24633
     2015.28747        -4.29362         9.34215
     2015.29089        -4.90202         6.05995
     2015.29363        -6.60054         6.12022
     2015.29637        -2.15206         6.05437
     2015.29911         1.66943         6.07000
     2015.30184        -1.48709         6.03094
     2015.30390        -5.07073         9.01851
     2015.30732        -3.19213         6.02313
     2015.31006        -1.49965         5.99299
     2015.31279        -3.94317         6.00192
     2015.31553        -8.24569         6.11464
     2015.31827       -11.22321         5.96844
     2015.32101       -11.94373         6.02089
     2015.32375        -9.05825         6.06107
     2015.32648        -5.51577         6.22289
     2015.32922       -10.97428         6.20057
     2015.33196        -9.52980         6.11241
     2015.33470        -5.77932         6.12133
     2015.33744        -8.62684         6.06442
     2015.34017        -3.69836         6.08562
     2015.34291        -2.56588         6.05549
     2015.34565        -1.53040         6.08227
     2015.34839        -5.74592         6.05661
     2015.35112        -8.07844         6.05437
     2015.35386        -5.71596         6.06219
     2015.35660       -10.01047         6.06442
     2015.35934        -9.60099         6.30771
     2015.36208        -6.43151         6.18495
     2015.36413       -14.11915         8.89686
     2015.36755         0.38045         6.09120
     2015.36961         2.14181         8.84329
     2015.37303       -12.20559         6.04991
     2015.37577       -11.48211         6.03987
     2015.37850       -14.39763         6.22736
     2015.38056       -11.07527         8.58549
     2015.38398        -7.98367         6.02647
     2015.38672        -6.26618         6.08004
     2015.38945        -6.06270         6.06888
     2015.39219        -7.25722         6.03763
     2015.39493        -7.74874         6.07558
     2015.39767       -14.16826         6.10683
     2015.40041        -5.20078         6.18606
     2015.40314        -7.56830         6.23294
     2015.40588       -17.07282         6.05103
     2015.40862       -15.58534         6.11017
     2015.41136       -13.67386         6.09009
     2015.41410        -9.08937         6.29097
     2015.41683        -7.90389         6.07893
     2015.41957        -9.03041         6.03540
     2015.42231       -10.04893         6.27981
     2015.42505       -11.02045         6.53872
     2015.42778       -12.62397         6.17044
     2015.43052        -9.67349         6.12022
     2015.43326       -13.65801         6.05884
     2015.43600        -9.96253         6.12245
     2015.43874        -6.03005         6.26976
     2015.44147        -9.13657         6.38137
     2015.44421       -12.39408         6.13696
     2015.44695       -11.25060         6.08116
     2015.44969        -9.27612         5.98518
     2015.45243       -11.29964         6.29432
     2015.45516        -6.34216         6.24075
     2015.45790       -11.77768         6.18495
     2015.46132        -3.80308         9.18702
     2015.46338        -7.42472         6.19499
     2015.46611        -5.31324         6.09120
     2015.46885        -4.44876         6.05772
     2015.47159        -3.86528         6.03987
     2015.47433       -10.01879         6.26865
     2015.47707        -7.74231         6.17267
     2015.47980        -9.37683         6.27758
     2015.48254        -7.22535         6.11464
     2015.48528       -10.61187         6.07335
     2015.48802       -10.53039         6.02424
     2015.49076       -10.73591         5.99857
     2015.49349       -12.56343         6.27088
     2015.49623        -7.97395         6.38248
     2015.49897        -7.63847         6.22624
     2015.50171        -5.12398         5.97179
     2015.50444        -6.65550         6.03094
     2015.50650        -4.51714         8.38796
     2015.50992        -7.37854         6.20950
     2015.51266        -5.18806         6.04321
     2015.51540        -7.26258         5.97514
     2015.51813        -8.58810         6.01085
     2015.52087         1.87738         6.11575
     2015.52361        -3.01914         6.09678
     2015.52635        -3.34566         5.99523
     2015.52908         1.17182         6.13808
     2015.53182        -3.15269         5.98630
     2015.53456        -1.93921         6.15035
     2015.53730        -5.50173         6.09343
     2015.54004        -3.28425         6.18495
     2015.54277        -6.65277         6.11017
     2015.54551         0.60771         6.12915
     2015.54825        -2.16281         6.14366
     2015.55099        -1.88633         6.17156
     2015.55373        -6.43185         6.15035
     2015.55646         1.87963         6.27981
     2015.55920         2.28412         6.23740
     2015.56194         0.18560         6.13138
     2015.56468        -2.94692         6.09901
     2015.56741        -2.94044         6.13138
     2015.57015        -3.80796         6.27869
     2015.57289        -2.10248         6.30548
     2015.57563        -3.61900         6.12245
     2015.57837        -7.17852         6.15928
     2015.58110        -0.67204         6.03987
     2015.58384        -3.34956         5.99076
     2015.58658        -3.20308         6.24968
     2015.58932        -6.39959         6.24298
     2015.59206         0.45889         6.33449
     2015.59479        -5.20863         7.23400
     2015.59753         4.41785         6.17490
     2015.60027         3.86833         6.35905
     2015.60301        -4.45619         6.34789
     2015.60574         1.20529         6.22066
     2015.60848         1.32377         6.22624
     2015.61122        -0.89475         6.16374
     2015.61396        -2.53727         6.26084
     2015.61670        -3.09279         6.12468
     2015.61943         4.79670         6.13473
     2015.62217         3.78818         6.02982
     2015.62491         5.82866         5.96844
     2015.62765        -1.84686         5.97514
     2015.63039        -0.69238         5.97067
     2015.63312         0.40310         5.95170
     2015.63586         3.25458         5.97960
     2015.63860        -2.72894         6.01643
     2015.64134        -1.60646         5.93608
     2015.64407        -5.92998         6.04433
     2015.64681        -1.81549         6.17825
     2015.64955        -6.21501         6.03317
     2015.65229        -1.25153         6.06107
     2015.65503         2.43895         6.09567
     2015.65776         0.74743         6.02089
     2015.66050         1.10291         6.18383
     2015.66324         5.04339         6.04991
     2015.66529         2.06775         8.39465
     2015.66872         1.86335         6.16263
     2015.67145         2.52083         6.05326
     2015.67419         1.27031         6.08451
     2015.67693        11.06780         6.07781
     2015.67967         3.47728         5.99188
     2015.68240        -0.08424         6.01085
     2015.68514        -2.99976         5.98183
     2015.68788         2.06972         5.93384
     2015.69062         1.21220         5.95728
     2015.69336        -0.40932         6.19276
     2015.69609        -2.57184         5.99746
     2015.69883         2.57364         6.02089
     2015.70157         5.45212         6.03429
     2015.70431         5.34861         6.05661
     2015.70705         9.42109         6.02536
     2015.70978         7.22657         5.99076
     2015.71252        -7.15095         6.04210
     2015.71526        -1.66047         6.02647
     2015.71800         2.73001         6.00973
     2015.72073         0.41149         6.59118
     2015.72347         0.11697         5.97960
     2015.72621        -3.27055         6.00415
     2015.72895        -7.84707         6.05214
     2015.73169        -3.18159         6.04879
     2015.73442        -1.56610         6.46284
     2015.73716         0.54338         6.06665
     2015.73990         1.49686         6.19611
     2015.74264        -6.95766         6.25749
     2015.74538         2.35082         6.29097
     2015.74811         2.87630         6.36686
     2015.75085         0.33478         6.22959
     2015.75359        -4.26174         6.01978
     2015.75633        -1.73726         6.55770
     2015.75906        -4.79578         6.05884
     2015.76180        -5.15830         6.73179
     2015.76454        -4.88781         6.05884
     2015.76728        -6.43933         6.01308
     2015.77002        -4.72485         6.04433
     2015.77275        -1.66537         6.02089
     2015.77549        -3.52489         6.08562
     2015.77823         0.91959         5.98407
     2015.78097        -1.11793         5.99969
     2015.78371        -0.72145         5.96398
     2015.78644        -0.84997         5.90036
     2015.78918        -5.04449         5.97849
     2015.79192        -2.12800         5.98183
     2015.79466         0.25248         5.99969
     2015.79739         6.47296         6.01308
     2015.80013         6.38844         6.13808
     2015.80287        -3.33008         5.94724
     2015.80561        -3.58160         5.99299
     2015.80835        -5.45112         6.03205
     2015.81108        -7.15264         5.95840
     2015.81382        -4.48016         5.96509
     2015.81656        -4.90268         6.02424
     2015.81930        -2.02920         6.06107
     2015.82203         0.61729         5.96286
     2015.82477         6.86877         6.07000
     2015.82751         3.29925         6.05884
     2015.83025         0.92573         6.11241
     2015.83299        -4.39279         6.09009
     2015.83572         2.52369         6.41596
     2015.83846         2.59117         6.27981
     2015.84120         2.99065         6.17825
     2015.84394        -3.03787         6.20169
     2015.84668        -6.34239         6.22066
     2015.84941        -1.67991         6.17825
     2015.85215         1.50458         6.18606
     2015.85489         6.25406         6.17379
     2015.85763         2.53054         6.18383
     2015.86036        -2.18798         6.16486
     2015.86310        -0.29550         6.11241
     2015.86584        -0.12302         6.12357
     2015.86858        -3.15954         6.15370
     2015.87132         2.79894         6.15258
     2015.87405         2.69642         6.16709
     2015.87679        -4.51110         6.12580
     2015.87953         2.45439         6.21285
     2015.88227         3.77387         6.09343
     2015.88501        -0.09965         6.72956
     2015.88774       -11.43217         6.16486
     2015.89048        -6.32369         6.21731
     2015.89322        -0.34521         6.10906
     2015.89596         5.38427         6.17044
     2015.89869         5.60575         6.13808
     2015.90143        -1.11377         6.09790
     2015.90417        -2.36229         6.12245
     2015.90691        -3.97481         6.16151
     2015.90965         1.33368         6.12357
     2015.91238         0.39116         6.15928
     2015.91512        -2.52236         6.18383
     2015.91786        -0.90188         6.18495
     2015.92056         0.73255         6.36463
     2015.92334         8.51508         6.18048
     2015.92607         9.25656         6.18160
     2015.92881         8.58904         6.18160
     2015.93155         5.75952         6.30325
     2015.93429         8.90900         6.31552
     2015.93702        17.66649         6.28762
     2015.93976        15.71797         6.32557
     2015.94250        17.68045         6.34789
     2015.94524        12.40093         6.16932
     2015.94798        15.88541         6.17156
     2015.95071        13.59689         6.08227
     2015.95345        13.94837         6.06553
     2015.95619        12.70385         6.19946
     2015.95893        11.98933         6.35570
     2015.96167        13.31981         6.23852
     2015.96440        15.32529         6.02871
     2015.96714        12.29978         6.11910
     2015.96988        18.40426         6.10348
     2015.97262        17.63374         6.10125
     2015.97535        17.25022         6.04879
     2015.97809        10.43570         6.01420
     2015.98083         9.39118         6.06777
     2015.98357         1.63866         6.05437
     2015.98631         1.07314         6.07223
     2015.98904         7.65662         6.06888
     2015.99178         5.92210         6.03094
     2015.99452         4.32158         6.02871
     2015.99726         7.54207         6.03429
     2016.00000         5.78255         6.04768
     2016.00273         1.15503         6.10125
     2016.00547         4.73951         6.04656
     2016.00821         8.79099         6.07893
     2016.01095        12.30247         6.06442
     2016.01368         6.47995         6.09455
     2016.01642         7.08843         6.22512
     2016.01916         8.87891         6.38806
     2016.02190        12.70139         6.25526
     2016.02464         9.18888         6.20838
     2016.02737         2.51336         6.00192
     2016.03011         3.92784         6.02982
     2016.03285        12.20132         6.05772
     2016.03559        14.22480         6.04098
     2016.03833        12.73428         6.16486
     2016.04106         7.95276         6.06219
     2016.04380        12.60324         5.97737
     2016.04654         8.08972         6.02201
     2016.04928        10.32320         5.99634
     2016.05201         9.12568         6.02201
     2016.05475         6.00017         5.97402
     2016.05749         5.84265         6.03094
     2016.06023        11.58413         5.97625
     2016.06297         7.98361         5.95728
     2016.06570         9.52509         6.06330
     2016.06844         8.59557         6.09455
     2016.07118         4.09105         6.10236
     2016.07392         8.61853         6.14700
     2016.07666        10.99201         6.19388
     2016.07939        14.56249         6.11910
     2016.08213        11.49598         6.20950
     2016.08487        12.51646         6.11687
     2016.08761         2.47294         6.09455
     2016.09034         3.54742         6.12022
     2016.09308        10.71290         6.08897
     2016.09582         1.87338         6.16040
     2016.09856         5.88986         6.27423
     2016.10130        -3.11766         6.12580
     2016.10403        -7.22818         6.40257
     2016.10677         0.43730         6.00750
     2016.10951         5.74678         6.15705
     2016.11225         5.69627         6.06665
     2016.11498         4.90075         6.08004
     2016.11772         2.49723         6.05884
     2016.12046         9.75871         6.15593
     2016.12320         7.82619         6.07111
     2016.12594        10.70167         6.07000
     2016.12867        15.09315         6.12468
     2016.13141        17.80063         6.09009
     2016.13415        14.25911         6.15705
     2016.13689         9.82959         6.10348
     2016.13963         4.34707         6.07335
     2016.14236         3.01056         6.06777
     2016.14510         3.92604         6.09901
     2016.14784        -1.56948         6.07446
     2016.15058         2.13400         6.08897
     2016.15331         4.59048         6.23628
     2016.15605         8.78496         6.10125
     2016.15879         1.73244         6.17379
     2016.16153         2.61892         6.25079
     2016.16427         3.58140         6.20615
     2016.16700         4.45988         6.13584
     2016.16974         3.06337         6.11799
     2016.17248         3.84585         6.29320
     2016.17522         3.20533         6.06888
     2016.17796         9.72781         6.10571
     2016.18069        10.35829         6.20280
     2016.18343         6.58077         6.36686
     2016.18617         3.54725         6.15705
     2016.18891         7.41473         6.00415
     2016.19164        11.97721         6.09120
     2016.19438        14.78069         6.02647
     2016.19712         8.60817         6.05214
     2016.19986        10.81366         6.18048
     2016.20260         4.20014         6.12468
     2016.20533         4.01362         6.20169
     2016.20807         6.09710         6.33003
     2016.21081        -2.44442         6.15147
     2016.21355         0.87306         6.12915
     2016.21629         0.65054         6.01085
     2016.21902         8.31102         6.01308
     2016.22176        13.30150         6.08897
     2016.22450         1.88498         6.06777
     2016.22724         8.05147         6.02647
     2016.22997         7.70295         6.03540
     2016.23271         4.50143         6.05549
     2016.23545         7.80791         6.08116
     2016.23819        10.06239         6.00304
     2016.24093        14.82687         6.11464
     2016.24366         4.98535         6.00304
     2016.24640        12.51383         6.06888
     2016.24914         4.63731         6.06777
     2016.25188         7.89779         6.05437
     2016.25462        13.16027         6.06553
     2016.25735         0.29876         6.18383
     2016.26009         2.50524         6.19053
     2016.26283        -3.18128         6.11352
     2016.26557        -2.24880         6.09567
     2016.26830         5.39368         6.09567
     2016.27104         9.73916         6.09901
     2016.27378        19.57064         6.12245
     2016.27652         9.00612         6.15928
     2016.27926         5.12060         6.08116
     2016.28199         1.98908         6.13584
     2016.28473        12.94256         6.13473
     2016.28747        11.37905         6.15593
     2016.29021         0.66753         6.08785
     2016.29295         1.77501         6.03540
     2016.29568         2.25349         6.12245
     2016.29842         9.47097         6.24298
     2016.30116         8.46445         6.23628
     2016.30390        -2.58507         6.14366
     2016.30663         8.43641         6.26642
     2016.30937         4.21689         6.05884
     2016.31211         7.21637         6.09455
     2016.31485         8.99386         6.11352
     2016.31759        12.11534         6.15928
     2016.32032         3.86982         6.09901
     2016.32306         0.72430         6.09232
     2016.32580         0.40278         6.06107
     2016.32854         5.09326         6.04433
     2016.33128         1.52874         6.09901
     2016.33401         4.30622         6.15370
     2016.33675        -0.07430         6.12022
     2016.33949         2.81418         6.22178
     2016.34223         0.66666         6.18048
     2016.34496         9.93915         6.37579
     2016.34770        11.04663         6.23294
     2016.35044         9.76511         6.23963
     2016.35318         7.92459         6.28427
     2016.35592         0.13907         6.03875
     2016.35865        -4.94645         6.07446
     2016.36139        -1.06697         6.06777
     2016.36413         5.68951         6.10571
     2016.36687         5.14199         6.30548
     2016.36961        12.14247         6.13250
     2016.37234        10.46796         6.10683
     2016.37508         7.41744         6.05772
     2016.37782        -0.94708         6.03094
     2016.38056         8.48340         6.23852
     2016.38329        14.05388         6.19611
     2016.38603         3.04836         6.13473
     2016.38877         9.91084         6.13138
     2016.39151         3.36532         6.05884
     2016.39425         7.38580         6.08562
     2016.39698         8.93628         6.13138
     2016.39972         3.54176         6.10236
     2016.40246         4.39925         6.19611
     2016.40520         0.59173         6.08562
     2016.40794        -0.03379         6.08227
     2016.41067        -2.78231         6.12245
     2016.41341        -1.83783         6.04545
     2016.41615        -3.57935         6.08674
     2016.41889         2.90013         6.19388
     2016.42162         5.49161         6.14366
     2016.42436        -3.13091         6.20950
     2016.42710         1.41157         6.11687
     2016.42984         4.91105         6.18606
     2016.43258         6.27954         6.19276
     2016.43531        12.40002         6.22178
     2016.43805         9.17050         6.27758
     2016.44079         3.17098         6.15035
     2016.44353         5.11246         6.01308
     2016.44626        -4.31406         6.11910
     2016.44900         5.57342         6.06665
     2016.45174         9.62290         6.14254
     2016.45448         6.76838         6.07223
     2016.45722         0.66186         6.09455
     2016.45995         4.79735         6.16598
     2016.46269         7.73383         6.08674
     2016.46543         2.11731         6.05884
     2016.46817         2.74379         6.10683
     2016.47091         6.23227         6.20169
     2016.47364         9.01175         6.10236
     2016.47638         9.64923         6.14477
     2016.47912        16.40571         6.30436
     2016.48186         7.55019         6.16263
     2016.48459         4.13667         6.04210
     2016.48733         0.49215         6.05772
     2016.49007         9.04464         6.14477
     2016.49281         9.83312         6.10348
     2016.49555         9.18460         6.32668
     2016.49828         2.25908         6.07111
     2016.50102         8.61356         6.11910
     2016.50376        10.08304         6.21731
     2016.50650        14.56552         6.27534
     2016.50924         8.93000         6.09901
     2016.51197         7.55448         6.07000
     2016.51471         4.84996         6.07558
     2016.51745         6.12345         6.14589
     2016.52019         5.69893         6.03875
     2016.52292        14.54441         6.21508
     2016.52566         8.23589         6.10125
     2016.52840         2.99837         6.07335
     2016.53114         3.35385         6.10125
     2016.53388         8.54033         6.01755
     2016.53661         7.05581         6.08785
     2016.53935        14.44429         6.06442
     2016.54209         7.42077         6.12357
     2016.54483        10.20325         6.09455
     2016.54757         5.71774         6.09901
     2016.55030        10.15522         6.12245
     2016.55304         8.83470         6.04545
     2016.55578        14.12518         6.32780
     2016.55852        11.59766         6.11687
     2016.56125         4.86914         6.02313
     2016.56399         7.27562         6.03652
     2016.56673         8.19310         6.23182
     2016.56947         7.56458         6.27088
     2016.57221        12.46806         6.24521
     2016.57494        13.29754         6.23628
     2016.57768         9.69703         6.20950
     2016.58042        13.13251         6.18272
     2016.58316         7.01799         6.12915
     2016.58590         9.03647         6.18830
     2016.58863        11.18695         6.13696
     2016.59137         7.57843         6.09343
     2016.59411        10.62791         6.10013
     2016.59685        17.72739         6.18941
     2016.59958        16.22687         6.26865
     2016.60232        11.96035         6.04210
     2016.60506         9.86484         6.02647
     2016.60780        12.45932         6.11910
     2016.61054         7.34480         6.04768
     2016.61327         7.15428         6.04210
     2016.61601        13.10376         6.08562
     2016.61875         7.15724         6.06107
     2016.62149        14.03472         6.14031
     2016.62423        11.56120         6.18830
     2016.62696        14.07468         6.11687
     2016.62970         6.51716         6.11910
     2016.63244         5.76464         6.25972
     2016.63518        10.46113         6.10683
     2016.63791        13.11861         6.10571
     2016.64065        16.07209         6.09678
     2016.64339        15.33457         6.08562
     2016.64613         8.42705         6.04210
     2016.64887        11.65553         6.06330
     2016.65160        15.05401         6.20280
     2016.65434         7.85849         6.04321
     2016.65708        12.41197         6.07893
     2016.65982         6.95245         6.05549
     2016.66256        13.03894         6.12245
     2016.66529        12.15242         6.10125
     2016.66803        15.32490         6.14254
     2016.67077        18.73038         6.24075
     2016.67351        17.75286         6.10794
     2016.67624        19.73534         6.08004
     2016.67898        13.74182         6.26418
     2016.68172        18.30930         6.02424
     2016.68446        16.91578         6.25637
     2016.68720        11.39026         6.51306
     2016.68993        19.21574         6.11575
     2016.69267         9.51523         6.03652
     2016.69541        13.79971         6.12580
     2016.69815        15.85719         6.04991
     2016.70089        16.89767         6.01197
     2016.70362        11.63415         6.24410
     2016.70636        10.57463         6.35905
     2016.70910         7.74211         6.35123
     2016.71184        14.32659         6.05995
     2016.71457        18.81007         6.13026
     2016.71731        16.87455         6.12691
     2016.72005        20.04403         6.02759
     2016.72279        19.89852         6.06442
     2016.72553        14.02700         6.16374
     2016.72826        16.77448         6.21508
     2016.73100        13.83096         6.01643
     2016.73374         2.99344         5.98295
     2016.73648         7.56192         5.97179
     2016.73921         7.34140         5.94724
     2016.74195         9.25588         5.99411
     2016.74469         9.47136         6.18272
     2016.74743        13.46584         6.05549
     2016.75017        10.25133         6.19611
     2016.75290        14.07381         6.16263
     2016.75564        20.92529         6.13696
     2016.75838        16.90377         5.99411
     2016.76112        10.86225         6.02201
     2016.76386         7.59573         6.02201
     2016.76659         5.62621         6.00081
     2016.76933        10.96169         5.95393
     2016.77207         7.26117         5.96509
     2016.77481        11.43365         6.07335
     2016.77754        10.82513         6.14254
     2016.78028         6.96462         6.04321
     2016.78302         5.65010         6.00862
     2016.78576        16.73658         6.04321
     2016.78850        19.50106         6.04321
     2016.79123        17.42954         6.08451
     2016.79397        19.58602         6.01085
     2016.79671        12.72650         5.99857
     2016.79945         7.32398         5.89478
     2016.80219        11.39346         6.03094
     2016.80492        12.16794         5.99076
     2016.80766        10.90643         6.07446
     2016.81040         5.68591         5.96956
     2016.81314         9.42239         6.05772
     2016.81587         9.36787         6.00750
     2016.81861         4.29035         5.97737
     2016.82135         9.66183         6.03987
     2016.82409        11.39131         5.99188
     2016.82683         4.26879         6.05772
     2016.82956         7.66527         6.03094
     2016.83230        17.04075         6.00862
     2016.83504         9.29723         5.92045
     2016.83778         6.71472         5.97402
     2016.84052         3.60220         5.97067
     2016.84325         3.18468         5.99746
     2016.84599         9.65716         5.99523
     2016.84873        13.46364         6.04210
     2016.85147         5.83812         5.94054
     2016.85420         4.34760         6.01978
     2016.85694         7.20808         6.01197
     2016.85968         8.85756         6.13919
     2016.86242         8.14204         5.95728
     2016.86516        13.79252         6.02424
     2016.86789        13.11801         6.06442
     2016.87063        11.99949         6.04210
     2016.87337        15.79397         6.05103
     2016.87611        17.23345         6.06665
     2016.87885        11.71093         6.02647
     2016.88158         0.67041         5.99299
     2016.88432         7.14389         5.95282
     2016.88706        10.71637         6.05772
     2016.88980        13.64385         5.97402
     2016.89253         6.35133         5.97514
     2016.89527         9.76482         6.00527
     2016.89801        13.14830         5.98407
     2016.90075         7.05178         5.95505
     2016.90349        11.64526         6.05549
     2016.90622        19.92474         6.16263
     2016.90896        19.19422         6.02424
     2016.91170        16.41670         6.01755
     2016.91444        12.20218         5.98965
     2016.91718         9.75066         6.02089
     2016.91991         5.74314         6.03875
     2016.92265        10.48162         5.99076
     2016.92539         7.71111         5.96956
     2016.92813         9.65959         6.02089
     2016.93086         3.49707         5.90594
     2016.93360         5.06855         5.94166
     2016.93634         4.49003         5.95505
     2016.93908         2.24451         6.07223
     2016.94182         7.25699         5.99411
     2016.94455         6.98547         6.05995
     2016.94729        10.64895         5.99523
     2016.95003         6.19443         6.03987
     2016.95277        10.51192         6.08116
     2016.95551         7.47040         5.96844
     2016.95824         8.81988         5.94612
     2016.96098         4.03336         5.96398
     2016.96372        -1.23216         5.90260
     2016.96646         1.31732         5.96844
     2016.96919         6.05780         5.95728
     2016.97193         8.47128         5.94947
     2016.97467         9.42576         5.95728
     2016.97741        10.02424         5.92380
     2016.98015        11.96372         5.92157
     2016.98288         9.87721         6.01643
     2016.98562         5.81469         5.96733
     2016.98836         6.23817         5.89925
     2016.99110        10.77565         5.92938
     2016.99384         5.10813         5.92157
     2016.99657         8.84161         5.89702
     2016.99931         5.60909         5.90260
     2017.00205        11.02757         5.90483
     2017.00479        10.68505         5.85684
     2017.00752         4.17653         5.90148
     2017.01026         4.59701         5.89478
     2017.01300         7.82350         5.92826
     2017.01574         3.66998         5.96398
     2017.01848         5.83146         5.91487
     2017.02121         9.30294         5.92938
     2017.02395         7.20442         5.96956
     2017.02669         9.23690         6.07000
     2017.02943         6.82538         6.00081
     2017.03216         3.97386         6.03317
     2017.03490         5.32634         5.97737
     2017.03764        -1.56118         6.06330
     2017.04038         2.48131         5.97179
     2017.04312         4.04879         5.95951
     2017.04585         5.38927         6.17602
     2017.04859        15.09675         6.13026
     2017.05133        14.56923         5.97402
     2017.05407        16.54271         5.96509
     2017.05681        18.39219         5.93942
     2017.05954         6.64467         6.00415
     2017.06228         9.01815         5.95840
     2017.06502         2.47663         5.91710
     2017.06776         2.01411         5.97402
     2017.07049        -1.27440         5.98518
     2017.07323        -0.22492         6.03094
     2017.07597        -2.64544         5.97737
     2017.07871        -2.55796         5.97849
     2017.08145        -0.24248         6.44498
     2017.08418        -4.74800         8.23172
     2017.08692         7.86348        12.05295
     2017.09006        44.59362       109.25216
     2017.09325         8.56084         9.76512
     2017.09514         7.77992         6.06219
     2017.09787         5.30541         5.97291
     2017.10061         3.73489         6.26084
     2017.10335         7.80237        11.49494
     2017.10609        12.84085        22.81690
     2017.10888         6.88342         7.80205
     2017.11156        -5.34619         9.27407
     2017.11436        -7.27862         6.12245
     2017.11704       -14.49723         6.24521
     2017.11978       -12.49775         5.96621
     2017.12251       -17.60327        10.58874
     2017.12508       -21.38907        19.74451
     2017.12799         5.73170        10.03966
     2017.13078         4.46727        13.26494
     2017.13347        -5.38934        10.70592
     2017.13620        -7.04286        11.15679
     2017.13900         3.98071        32.43359
     2017.14168        -3.21890         7.42819
     2017.14442        -5.37042         6.81550
     2017.14715        -7.85494        10.23719
     2017.14909        -5.21176        19.71438
     2017.15257        -6.94007        34.26162
     2017.15605        -1.05437         8.14020
     2017.15811        -3.38301         6.18048
     2017.16084        -4.21453         5.97849
     2017.16358       -14.59005         5.91041
     2017.16632       -11.31257         5.96286
     2017.16906       -10.79809         6.00415
     2017.17180        -3.22161         5.91599
     2017.17453        -0.25913         5.97849
     2017.17727        -2.67765         6.04098
     2017.18001        -2.81817         5.90260
     2017.18275        -4.61269         5.95393
     2017.18548       -13.33420         5.99299
     2017.18822       -14.29772         5.93273
     2017.19096       -12.59224         5.91934
     2017.19370        -9.20576         5.98295
     2017.19644        -5.55328         5.96621
     2017.19917        -9.81180         5.93942
     2017.20191        -5.49832         5.93942
     2017.20465        -7.75984         6.09009
     2017.20739        -8.61036         5.98518
     2017.21013        -1.36488         5.97291
     2017.21286        -2.94140         6.08674
     2017.21560        -5.54691         5.92826
     2017.21834        -7.12543         5.99857
     2017.22108         0.30105         6.00862
     2017.22381        -2.25847         6.05326
     2017.22655        -1.12899         6.13808
     2017.22929        -4.12951         5.91822
     2017.23203        -0.45103         5.91264
     2017.23477        -5.22755         5.91376
     2017.23750       -11.01007         5.92157
     2017.24024        -3.55059         5.91710
     2017.24298        -2.21310         6.01420
     2017.24572        -1.96962         6.01085
     2017.24846        -8.12114         5.90929
     2017.25119        -4.53966         5.97625
     2017.25393        -3.39718         6.05772
     2017.25667        -8.95570         5.95951
     2017.25941       -11.24022         5.93496
     2017.26214       -10.49274         5.94166
     2017.26488        -1.56526         5.96621
     2017.26762        -2.98478         6.01420
     2017.27036         2.72970         6.03987
     2017.27310        -7.24181         5.95951
     2017.27583        -9.07533         6.01866
     2017.27857       -14.40885         5.95951
     2017.28131        -5.29737         6.00081
     2017.28405        -9.88389         6.03875
     2017.28679        -8.14441         6.01531
     2017.28952        -9.15593         5.92045
     2017.29226        -2.35645         6.05772
     2017.29500       -14.00597         5.93831
     2017.29774        -2.51449         6.01308
     2017.30047        -9.45201         6.04991
     2017.30321       -10.35252         5.89813
     2017.30595       -14.12004         5.97625
     2017.30869        -7.00456         6.00973
     2017.31143        -8.10608         5.95840
     2017.31416        -5.96360         6.02759
     2017.31690        -3.93512         6.03875
     2017.31964        -5.37664         6.23182
     2017.32238        -9.01316         6.11799
     2017.32512       -13.18368         5.95393
     2017.32785        -6.88020         5.99634
     2017.33059        -8.85971         5.98853
     2017.33333       -11.30523         6.01643
     2017.33607       -10.46075         6.00304
     2017.33880       -13.51027         5.99411
     2017.34154       -11.77379         6.02871
     2017.34428        -4.28731         6.06330
     2017.34702        -6.12883         6.06665
     2017.34976        -6.32935         5.98853
     2017.35249       -10.77187         6.01531
     2017.35523       -13.52139         5.87804
     2017.35797       -12.58591         5.96174
     2017.36071        -0.39642         6.07111
     2017.36344        -4.98694         5.99969
     2017.36618       -11.80246         6.03987
     2017.36886        -5.76607         6.09009
     2017.37166        -6.78150         6.00415
     2017.37440        -7.65502         6.00973
     2017.37713        -6.88754         6.08227
     2017.37987       -15.33406         6.09232
     2017.38261       -12.86658         6.04210
     2017.38535       -12.88310         5.99969
     2017.38809       -11.94561         5.99188
     2017.39082        -7.80513         5.97067
     2017.39356        -5.84965         6.12022
     2017.39630         0.74983         5.96621
     2017.39904        -5.14769         6.00192
     2017.40177       -13.53921         5.95393
     2017.40451        -9.44673         6.12357
     2017.40725        -9.26825         5.96398
     2017.40999        -8.13977         6.06330
     2017.41273        -6.85829         6.11352
     2017.41546       -10.28581         6.05884
     2017.41820        -9.93732         6.16486
     2017.42094       -13.42584         6.02424
     2017.42368        -6.21436         6.13361
     2017.42642        -8.11488         6.13361
     2017.42915        -9.29840         6.02313
     2017.43189        -9.62292         6.08004
     2017.43463        -3.75344         6.09343
     2017.43737        -5.94696         6.06107
     2017.44010        -6.88348         6.05772
     2017.44284        -2.68600         6.03987
     2017.44558         0.27548         6.18383
     2017.44832        -8.26603         5.99411
     2017.45106        -6.51355         6.03875
     2017.45379        -4.76707         6.16040
     2017.45653        -3.94359         6.16151
     2017.45927        -1.66811         6.01643
     2017.46201        -9.16563         5.97737
     2017.46475       -10.15415         6.01085
     2017.46748       -11.55267         6.14031
     2017.47022       -10.25019         6.19276
     2017.47296        -7.36871         6.09009
     2017.47570        -5.59222         5.96063
     2017.47843       -14.16274         5.95170
     2017.48117       -15.06726         6.02982
     2017.48391        -6.41678         5.97291
     2017.48665         1.89670         6.26418
     2017.48939         5.84918         6.21731
     2017.49212        -1.80934         6.10348
     2017.49486       -15.27686         6.09678
     2017.49760       -10.97038         6.01420
     2017.50034        -1.90590         6.11017
     2017.50308        -3.64742         6.06107
     2017.50581        -9.19393         6.21285
     2017.50855       -11.99045         6.05995
     2017.51129       -11.11897         6.32891
     2017.51403        -3.97249         6.24633
     2017.51676         0.36999         6.10013
     2017.51950        -4.06753         6.10459
     2017.52224        -2.38405         6.13919
     2017.52498        -2.27357         6.01085
     2017.52772       -12.06609         6.22512
     2017.53045        -6.92461         6.12915
     2017.53319        -5.74412         6.11464
     2017.53593        -5.43964         6.12357
     2017.53867        -5.22116         6.20504
     2017.54141         4.89432         6.14812
     2017.54414         3.67680         6.13473
     2017.54688         2.24428         6.22736
     2017.54962         2.38876         6.47623
     2017.55236        -6.00176         6.02536
     2017.55509        -2.97828         6.03987
     2017.55783        -3.06480         6.16486
     2017.56057        -3.30732         6.00639
     2017.56331        -5.31583         6.02982
     2017.56605        -5.27335         6.07000
     2017.56878        -8.87187         6.38360
     2017.57152        -4.48839         6.09343
     2017.57426        -4.06791         6.11352
     2017.57700         0.98457         6.12691
     2017.57974        -5.56795         6.04210
     2017.58247        -6.15447         6.11575
     2017.58521       -13.29899         6.09343
     2017.58795        -8.28751         6.21620
     2017.59069        -5.79703         6.25637
     2017.59342        -7.15054         6.09790
     2017.59616        -3.45806         6.10125
     2017.59890        -2.93858         6.01978
     2017.60164        -2.42710         6.01420
     2017.60438       -11.28962         6.05772
     2017.60711        -6.09114         6.15816
     2017.60985        -5.89966         6.21620
     2017.61259        -8.06418         6.09455
     2017.61533        -2.81970         6.19611
     2017.61807         2.75678         6.20392
     2017.62080        -1.68973         6.13584
     2017.62354        -6.37925         6.11129
     2017.62628        -5.16477         6.17937
     2017.62902        -1.59529         6.30771
     2017.63175        -1.66281         6.05326
     2017.63449        -3.60333         6.11241
     2017.63723        -4.81685         6.07335
     2017.63997        -3.56437         6.04545
     2017.64271        -4.96489         6.00973
     2017.64544         0.77159         6.07781
     2017.64818        -0.75893         6.44051
     2017.65092        -1.65444         6.09343
     2017.65366        -2.35696         6.02536
     2017.65639        -6.88348         5.97849
     2017.65913        -4.11700         6.22178
     2017.66187        -2.40552         6.06888
     2017.66461         5.26996         6.19722
     2017.66735        -0.22256         6.10348
     2017.67008        -1.72408         5.95728
     2017.67282        -2.58060         6.19053
     2017.67556         0.82288         6.08116
     2017.67830        -0.13363         6.06665
     2017.68104        -3.44815         5.99523
     2017.68377         5.00933         6.09901
     2017.68651         4.82881         6.14700
     2017.68925         6.77129         6.08785
     2017.69199        -0.76223         6.10459
     2017.69472         3.46025         6.01420
     2017.69746         4.59273         6.14254
     2017.70020         7.13021         6.19388
     2017.70294         7.14969         6.41150
     2017.70568         0.43117         6.24521
     2017.70841        -0.28734         5.97737
     2017.71115        -2.94386         6.04321
     2017.71389         4.40862         5.92826
     2017.71663         6.80810         6.03652
     2017.71937         6.15558         6.02871
     2017.72210         0.46306         6.01866
     2017.72484        -0.31746         5.98407
     2017.72758        -2.24898         5.94054
     2017.73032         3.01150         5.97402
     2017.73305        -0.16502         6.02536
     2017.73579        -1.51654         6.01866
     2017.73853        -6.28305         5.98518
     2017.74127        -5.19757         5.96286
     2017.74401         1.26891         5.98630
     2017.74674        -2.28361         6.06888
     2017.74948         6.69087         6.13473
     2017.75222        -3.20265         6.03205
     2017.75496         0.80483         5.97737
     2017.75770        -2.10069         6.18830
     2017.76043        -2.42421         6.00973
     2017.76317         0.60927         6.01308
     2017.76591         6.53376         6.02201
     2017.76865         6.36724         6.03540
     2017.77138         0.33572         5.99299
     2017.77412         0.78020         5.96733
     2017.77686        -3.70532         6.00973
     2017.77960        -0.22184         6.12357
     2017.78234        -4.68236         6.00527
     2017.78507        -5.11688         6.03205
     2017.78781        -8.22040         6.01755
     2017.79055        -3.83792         5.93719
     2017.79329         1.43056         6.05103
     2017.79603        -0.41895         5.97067
     2017.79876         5.63653         6.06777
     2017.80150         5.29301         6.22401
     2017.80424         5.09449         5.96286
     2017.80698         0.77797         6.04098
     2017.80971        -6.30455         6.01531
     2017.81245        -8.86207         6.00639
     2017.81519        -0.96259         6.00192
     2017.81793        -2.66411         6.00639
     2017.82067        -7.13163         6.14254
     2017.82340        -2.79215         6.02982
     2017.82614        -1.29966         6.01755
     2017.82888        -3.88918         6.02089
     2017.83162        -0.94670         6.08339
     2017.83436         6.72278         6.09678
     2017.83709         0.55126         6.18606
     2017.83983        -0.80226         6.02871
     2017.84257        -2.09878         6.04656
     2017.84531        -1.53230         6.04321
     2017.84804        -3.99282         6.02871
     2017.85078        -4.26134         6.02982
     2017.85352        -5.73485         6.04321
     2017.85597        -0.04284         6.97620
     2017.86196        -2.63404         6.79318
     2017.86447        -4.57193         6.22401
     2017.86603         8.85362        18.79144
     2017.90925         0.97635        10.75056
     2017.91102         0.71325         6.02313
     2017.91375        -3.31227         6.06777
     2017.91649        -3.07979         5.93161
     2017.91923         0.80469         6.00081
     2017.92197        -0.48483         6.00639
     2017.92470        -0.19335         5.92826
     2017.92744        -7.95387         5.97291
     2017.93018        -9.93739         5.94724
     2017.93292        -8.49491         6.00081
     2017.93566        -1.84243         6.02647
     2017.93839        -2.68295         6.04879
     2017.94113        -5.56246         6.01531
     2017.94387        -1.22198         5.98518
     2017.94661        -3.28450         5.97514
     2017.94935        -1.49402         6.06777
     2017.95208        -3.00354         6.14924
     2017.95482        -5.28906         6.06777
     2017.95756        -4.28158         5.98853
     2017.96030        -2.40910         5.96174
     2017.96303        -3.50962         6.00639
     2017.96577         3.75186         6.16932
     2017.96851         3.82934         6.10236
     2017.97125        -6.59417         6.07335
     2017.97399        -0.42369         6.07223
     2017.97672        -2.74621         6.01643
     2017.97946        -0.75573         6.09901
     2017.98220        -4.64125         5.96509
     2017.98494        -9.44477         6.00862
     2017.98767       -12.44629         6.00750
     2017.99041        -7.67481         5.96286
     2017.99315         0.54467         6.02536
     2017.99589        -0.54985         5.99634
     2017.99863        -6.89036         5.98630
     2018.00136       -10.87288         6.00862
     2018.00410       -13.09040         5.95616
     2018.00684       -10.75492         5.95728
     2018.00958        -6.48044         5.98965
     2018.01232        -7.70596         6.03763
     2018.01505        -6.92148         6.02089
     2018.01779        -4.02100         5.97737
     2018.02053        -3.45852         6.02089
     2018.02325        -0.01806         5.97849
     2018.02600         0.02344         6.02089
     2018.02874        -5.35307         5.97067
     2018.03148       -13.17959         5.95728
     2018.03422       -10.96311         6.05214
     2018.03696       -12.98363         5.92380
     2018.03969       -14.38115         5.93719
     2018.04243       -12.93167         5.93050
     2018.04517       -11.97419         6.03429
     2018.04791        -9.60771         5.95616
     2018.05065         0.85477         5.91041
     2018.05338        -1.13475         5.97514
     2018.05612        -5.40126         5.97179
     2018.05886        -8.87178         6.00527
     2018.06160        -5.36830         6.04098
     2018.06433        -5.12582         6.08451
     2018.06707         2.89066         6.15147
     2018.06981        -3.53386         6.12803
     2018.07255        -8.10238         6.16598
     2018.07529       -16.40190         6.14366
     2018.07802       -15.14142         6.12245
     2018.08076        -6.45894         6.12803
     2018.08350        -4.29346         6.16709
     2018.08624        -9.77597         6.16598
     2018.08898        -9.11349         6.16709
     2018.09171        -8.03201         6.22847
     2018.09445         1.65447         6.18160
     2018.09719         1.52395         6.19276
     2018.09993        -6.19957         6.06553
     2018.10266        -7.64109         6.15928
     2018.10540       -11.61961         6.20615
     2018.10814         0.64787         6.04768
     2018.11088        -1.78565         6.04545
     2018.11362        -1.01417         6.12915
     2018.11635        -4.04368         6.04879
     2018.11909        -9.04520         6.12022
     2018.12183        -6.74472         6.16040
     2018.12457        -1.02624         6.04656
     2018.12731        -5.72976         6.08674
     2018.13004        -1.31228         6.11464
     2018.13278         2.90120         6.06219
     2018.13552         2.86468         5.99299
     2018.13826        -3.01484         6.03205
     2018.14099        -1.10036         6.04321
     2018.14373        -0.95787         6.04545
     2018.14647        -2.94639         6.31552
     2018.14921         2.12409         6.13250
     2018.15195        -1.12843         6.01420
     2018.15468         0.00005         6.01978
     2018.15742         0.02453         6.05549
     2018.16016        -3.37899         6.09567
     2018.16290        -6.29951         6.13808
     2018.16564        -0.59203         6.18383
     2018.16837        -1.76255         6.07000
     2018.17111        -4.54507         6.04656
     2018.17385        -6.00758         6.07223
     2018.17659        -4.25910         6.07781
     2018.17932        -4.44762         5.99523
     2018.18206         3.42886         6.18830
     2018.18480         6.25134         6.41150
     2018.18754        -1.75118         6.04879
     2018.19028        -5.45770         6.12468
     2018.19301        -3.90322         5.99634
     2018.19575        -1.22374         5.96509
     2018.20162         7.74986         7.10454
     2018.20397         6.22771         6.14812
     2018.20670         5.20819         5.98630
     2018.20944         0.44367         6.03652
     2018.21218        -2.88585         6.01085
     2018.21492       -10.30537         6.08451
     2018.21765         2.86911         5.90260
     2018.22039        -1.04441         5.90594
     2018.22313        -1.51093         6.00639
     2018.22587        -7.65045         5.90371
     2018.22861        -3.40597         5.99634
     2018.23134        -4.33748         5.90818
     2018.23408        -4.30600         5.92045
     2018.23682        -5.99952         5.94054
     2018.23956        -3.68904         5.93608
     2018.24230        -7.63956         5.90036
     2018.24503        -0.77608         5.91822
     2018.24777        -2.45160         5.93942
     2018.25051         4.14488         5.97402
     2018.25325        -6.63364         5.89702
     2018.25598        -5.03216         5.85572
     2018.25872        -4.01068         6.02982
     2018.26146        -0.72819         6.01643
     2018.26420        -2.86171         5.96063
     2018.26694        -1.42423         6.07446
     2018.26967        -7.51375         5.85796
     2018.27241        -4.16027         5.86800
     2018.27515         6.63021         6.04210
     2018.27789         3.65169         6.13919
     2018.28062        -1.13883         6.20838
     2018.28336        -8.41735         5.92603
     2018.28610        -5.89787         5.87581
     2018.28884         7.82662         5.97960
     2018.29158         7.24910         6.05661
     2018.29431        -2.08142         6.01643
     2018.29705        -2.97594         5.90483
     2018.29979        -5.11046         5.87693
     2018.30253        -5.79398         5.88474
     2018.30527        -0.35550         5.86019
     2018.30800        -4.88602         6.06777
     2018.31074        -8.32854         5.91487
     2018.31348       -10.58306         5.91599
     2018.31622        -9.93058         5.86019
     2018.31895        -2.60109         5.97625
     2018.32169        -2.44661         5.91487
     2018.32443        -5.47313         5.90371
     2018.32717        -7.00465         5.92157
     2018.32991        -3.85617         6.08116
     2018.33264        -5.19069         5.86242
     2018.33538        -7.90021         6.02647
     2018.33812        -2.30373         6.13584
     2018.34086        -9.20125         5.94166
     2018.34360        -8.94977         5.98630
     2018.34633       -10.52528         5.94835
     2018.34907        -7.78780         5.89032
     2018.35181        -0.79132         6.01308
     2018.35455        -2.65984         6.01420
     2018.35728        -3.37836         6.02201
     2018.36002        -5.45788         5.99523
     2018.36276        -3.53240         5.98741
     2018.36550        -5.84992         5.97179
     2018.36824        -5.25244         5.92045
     2018.37097        -2.67696         6.07223
     2018.37371        -2.15448         6.01085
     2018.37645        -1.33499         6.17044
     2018.37919        -7.09151         5.97402
     2018.38193        -2.74103         6.05326
     2018.38466        -4.07755         6.04098
     2018.38740        -2.61807         6.03763
     2018.39014         2.07441         5.94389
     2018.39288        -9.05111         5.89255
     2018.39561        -0.23963         6.05661
     2018.39835        -3.23615         6.02536
     2018.40109        -5.60467         6.14477
     2018.40383        -6.21019         6.01755
     2018.40657        -2.27070         6.06777
     2018.40930        -1.36922         6.15816
     2018.41204         4.29026         6.17490
     2018.41478        -7.84826         5.97625
     2018.41752        -9.78178         5.98853
     2018.42026       -10.34830         5.94947
     2018.42299        -5.38682         5.90706
     2018.42573         3.09966         5.93719
     2018.42847        -3.42786         5.98518
     2018.43121        -1.83838         6.02536
     2018.43394        -5.50889         5.94947
     2018.43668        -0.16741         5.87135
     2018.43942        -1.44093         5.98630
     2018.44216        -3.47045         5.91822
     2018.44490        -5.58097         5.87916
     2018.45037         3.28299         6.05214
     2018.45311         5.46847         6.00527
     2018.45585        -0.31505         5.95170
     2018.45859         4.94843         6.20615
     2018.46132        -5.09509         6.03205
     2018.46406        -5.24360         5.92045
     2018.46680        -6.37012         5.96844
     2018.46954        -3.77964         6.00192
     2018.47227         2.39584         6.04545
     2018.47501         6.94132         6.10459
     2018.47775         0.58180         5.95616
     2018.48049        -8.20472         6.01531
     2018.48323        -9.19324         6.03763
     2018.48596        -6.34576         5.95058
     2018.48870         0.00872         5.95951
     2018.49144         4.57221         6.07000
     2018.49418         0.85669         6.17714
     2018.49692         1.33717         6.14924
     2018.49965        -3.76335         5.97179
     2018.50239         1.09913         5.99523
     2018.50513        -7.15239         5.93161
     2018.50787        -0.18191         6.03205
     2018.51060         0.48057         6.14031
     2018.51334        -0.23195         5.97291
     2018.51608        -2.01447         5.98965
     2018.51882        -3.06199         5.95505
     2018.52149         6.57839         6.38806
     2018.52431         1.69000         6.05103
     2018.52703        -3.49654         6.10794
     2018.52977        -5.04006         5.94166
     2018.53251         1.22042         5.92603
     2018.53525         0.15290         6.02647
     2018.53798         5.22138         6.08451
     2018.54072         7.46586         6.17044
     2018.54346        -4.38466         5.95170
     2018.54620        -4.98918         6.09120
     2018.54893        -2.44770         5.99299
     2018.55167         4.77279         6.14477
     2018.55441        -0.99373         5.98630
     2018.55715        -3.60425         5.98072
     2018.55989        -9.21877         6.10013
     2018.56262         1.08971         6.02536
     2018.56536        -1.85581         6.18606
     2018.56810         3.97567         6.08562
     2018.57084        -0.22785         6.01085
     2018.57357        -4.22337         6.11687
     2018.57631        -9.58289         6.25526
     2018.57905        -3.37940         6.29990
     2018.58179         2.44008         6.22624
     2018.58453         7.24956         6.21396
     2018.58726         4.87904         6.14924
     2018.59000         2.60752         6.12580
     2018.59274         3.13100         6.03094
     2018.59548        -0.59352         5.97849
     2018.59822         1.20096         5.98183
     2018.60095        -1.45056         5.91041
     2018.60369        -0.09508         5.94835
     2018.60643        -5.21160         6.01978
     2018.60917        -2.62111         5.95170
     2018.61190         0.26837         5.94835
     2018.61464         2.42685         5.96509
     2018.61607        42.65918        84.98556
     2018.62559         8.78577         6.21620
     2018.62833        -3.31475         6.03317
     2018.63107         1.40173         5.94835
     2018.63381         2.20421         6.11017
     2018.63655         1.11570         6.00192
     2018.63928         2.04918         6.38025
     2018.64202        -0.04634         6.22066
     2018.64476         5.25114         5.94612
     2018.64750         4.00462         5.98630
     2018.65023         7.83910         6.16598
     2018.65297         8.87258         6.01643
     2018.65571         0.18106         6.00750
     2018.65845        -2.92146         5.94612
     2018.66119         7.24702         5.93719
     2018.66392         5.04550         6.00081
     2018.66666         4.11399         6.02536
     2018.66940         1.95447         5.95058
     2018.67214         1.03995         5.93050
     2018.67488         2.39743         5.99634
     2018.67761         0.98491         5.90371
     2018.68035        -3.87561         6.03652
     2018.68309        -1.51513         6.05549
     2018.68583         2.80135         6.16598
     2018.68856         7.49483         5.99188
     2018.69130         6.78531         5.91487
     2018.69404         4.83479         6.11910
     2018.69678         7.78628         5.97291
     2018.69952         3.14376         5.96174
     2018.70225         2.77324         6.12022
     2018.70499         3.40272         6.06107
     2018.70773         2.82920         6.07446
     2018.71047        -0.40732         6.02759
     2018.71321         3.38616         5.97625
     2018.71594         1.99064         5.93496
     2018.71868        -2.27188         5.96844
     2018.72142        -3.09840         6.05549
     2018.72416         2.59709         5.94500
     2018.72689         0.54457         6.11241
     2018.72963         2.92705         6.03094
     2018.73237        -0.41647         5.99634
     2018.73511        -1.97999         5.90929
     2018.73785         0.74649         5.93942
     2018.74058         0.21897         5.94724
     2018.74332         7.29145         6.01085
     2018.74606         7.35593         5.95728
     2018.74880         0.47741         5.99411
     2018.75154         1.19389         5.95951
     2018.75427         5.90538         6.02424
     2018.75701         4.35486         6.04545
     2018.75975        -0.71966         5.91264
     2018.76249         0.38982         5.90483
     2018.76522        -1.87970         6.08674
     2018.76796        -1.61022         5.91152
     2018.77070         4.75426         6.00415
     2018.77344         2.09574         5.95505
     2018.77618         0.55122         5.91822
     2018.77891        -3.73930         5.97402
     2018.78165        -4.54181         6.10794
     2018.78439        -0.99833         5.98072
     2018.78713        -2.41685         5.98741
     2018.78987        -7.62737         6.11575
     2018.79260        -5.30289         5.97849
     2018.79534         1.18059         5.98853
     2018.79808        -1.21493         5.99969
     2018.80082        -2.23045         6.03763
     2018.80355        -0.16097         5.99411
     2018.80629        -0.23049         6.12915
     2018.80903         0.80999         6.12133
     2018.81177         1.58548         6.30213
     2018.81451        -2.63404         6.06777
     2018.81724         2.40944         5.97849
     2018.81998         1.16192         5.97291
     2018.82272         3.11740         5.98183
     2018.82546        15.01988         6.78313
     2018.82820         1.45236         6.06777
     2018.83093         0.47684         5.97402
     2018.83367         0.74332         5.98741
     2018.83641         4.95180         5.98741
     2018.83915         0.30028         5.97179
     2018.84188        -1.38023         5.94500
     2018.84462         4.00725         5.90148
     2018.84736        -3.60427         6.16486
     2018.85010        -0.57579         5.93384
     2018.85284        -4.05431         5.91041
     2018.85557        -4.67183         5.97179
     2018.85831         1.28565         5.92826
     2018.86105        -1.17287         5.92603
     2018.86379        -4.33239         6.03094
     2018.86653         1.84309         6.06107
     2018.86926        -6.68442         5.95616
     2018.87200         0.25406         6.04098
     2018.87474         1.76454         5.94166
     2018.87748        -6.68998         6.04768
     2018.88021        -5.37450         6.03987
     2018.88295         1.52898         6.04321
     2018.88569         1.40646         6.07669
     2018.88843         1.46594         6.09343
     2018.89117         0.44342         6.06107
     2018.89390         2.29790         6.08339
     2018.89664        -0.00862         6.24744
     2018.89938         1.53787         6.03987
     2018.90212        -3.72065         6.05437
     2018.90485         1.82483         6.06553
     2018.90759         0.95831         6.26530
     2018.91033         0.75379         6.11799
     2018.91307         6.03127         6.14254
     2018.91581         4.02975         6.07223
     2018.91854         9.09523         6.13138
     2018.92128         1.67771         6.11687
     2018.92402         1.96219         6.09009
     2018.92676         5.93368         6.07446
     2018.92950         1.84116         6.09120
     2018.93223        -2.18336         6.18830
     2018.93497         0.55212         6.06777
     2018.93771        -0.23140         6.14700
     2018.94045         3.91508         6.00415
     2018.94318         2.77756         5.97514
     2018.94592         5.57304         5.94054
     2018.94866         0.52752         5.91934
     2018.95140         1.70900         6.17379
     2018.95414         5.85148         5.96174
     2018.95687         1.54897         5.95616
     2018.95961         3.51945         5.98518
     2018.96235         6.48693         6.01643
     2018.96509         3.95441         5.98072
     2018.96783        -2.13111         6.11241
     2018.97056         7.89037         6.04433
     2018.97330         0.96285         5.98183
     2018.97604        -1.21167         6.03875
     2018.97866         0.10263         6.29990
     2018.98151        -1.47971         6.00639
     2018.98425         0.88377         6.16151
     2018.98699         0.54626         6.15816
     2018.98973        -2.23426         6.11687
     2018.99247        -1.76178         6.14812
     2018.99481        -5.75595         7.32328
     2018.99794        -4.58882         6.24968
     2019.00068        -6.23434         6.11352
     2019.00342        -3.58486         6.12915
     2019.00616        -5.46438         6.00304
     2019.00889        -1.32290         5.96956
     2019.01163        -0.13942         5.98183
     2019.01437         0.91507         6.03094
     2019.01711         7.12055         6.05103
     2019.01984       -11.13897         6.21062
     2019.02258        -8.33449         5.96844
     2019.02532        -3.09901         6.07558
     2019.02806        -5.97853         6.00192
     2019.03080        -4.24905         6.01420
     2019.03353       -10.46357         5.93273
     2019.03627       -16.94409         5.94724
     2019.03901        -7.34261         5.92157
     2019.04175        -6.13313         5.91041
     2019.04449         0.87236         5.94500
     2019.04722        -6.68816         6.01755
     2019.04996       -13.54368         6.02313
     2019.05270       -11.61420         6.18272
     2019.05544        -4.88372         6.09678
     2019.05817        -6.61624         6.15370
     2019.06091        -3.88576         6.10013
     2019.06365        -1.20828         6.06553
     2019.06639        -4.72480         6.06219
     2019.06913        -5.67932         5.96621
     2019.07186        -5.46883         6.02424
     2019.07460        -9.34335         5.87804
     2019.07734        -0.20387         5.92157
     2019.08008         0.62261         5.90929
     2019.08282       -10.14191         6.00415
     2019.08555         1.08057         5.94277
     2019.08829        -3.60995         5.88139
     2019.09103         2.15553         5.85349
     2019.09377         2.66101         5.94835
     2019.09650         5.86949         5.97849
     2019.09924         0.35797         5.89255
     2019.10198        -4.89054         5.86800
     2019.10472        -3.33006         5.86912
     2019.10746        -5.14658         5.88920
     2019.11019         1.76990         5.94835
     2019.11293         2.11438         5.98072
     2019.11567         0.35786         6.15035
     2019.11841        13.08834         5.92045
     2019.12115        11.52782         5.95393
     2019.12388         6.49830         6.02759
     2019.12662         5.82078         5.91934
     2019.12936        -2.97874         5.90148
     2019.13210        -2.01125         5.88809
     2019.13483        -0.85477         5.88028
     2019.13757         3.88171         5.88362
     2019.14031         6.36319         5.87693
     2019.14305         0.28667         5.87470
     2019.14579        -3.04885         5.86019
     2019.14852         1.67963         5.91487
     2019.15126         0.94111         5.90371
     2019.15400         0.76659         5.91264
     2019.15674        -1.57493         5.89702
     2019.15948         0.27156         5.86130
     2019.16221        -2.50096         5.96509
     2019.16495        -1.88448         5.85461
     2019.16769        -9.94100         5.87693
     2019.17043        -7.57052         5.85126
     2019.17316        -7.11804         5.84345
     2019.17590        -2.10256         5.84903
     2019.17864         1.89692         5.88809
     2019.18138        -0.81760         5.88586
     2019.18412        -4.90912         5.88474
     2019.18685        -3.96364         5.86800
     2019.18959        -2.00815         5.87916
     2019.19233         1.21333         5.84122
     2019.19507         0.95881         5.84680
     2019.19780        -5.35571         5.89367
     2019.20054        -9.85223         5.96509
     2019.20328       -10.96775         5.90371
     2019.20602        -6.44127         5.89702
     2019.20876        -8.29979         6.03317
     2019.21149       -11.57431         5.87135
     2019.21423        -6.41883         5.87581
     2019.21697        -8.63434         5.90371
     2019.21971        -5.45686         6.01085
     2019.22245        -0.77038         5.81778
     2019.22518        -6.34790         5.84122
     2019.22792        -9.13342         5.86354
     2019.23066        -5.55594         5.84680
     2019.23340        -2.35146         5.96063
     2019.23613        -5.14698         5.90148
     2019.23887        -4.22150         5.88028
     2019.24161       -12.05602         6.03094
     2019.24435        -5.93754         6.01866
     2019.24709        -8.60905         5.98741
     2019.24982        -5.69657         5.91264
     2019.25256        -6.47409         6.03205
     2019.25530        -8.96261         5.92603
     2019.25804        -2.00713         6.01197
     2019.26078         1.02835         6.03540
     2019.26351        -1.62617         6.00192
     2019.26625        -2.40369         5.88139
     2019.26899        -1.13221         6.01085
     2019.27173        -1.63373         6.12468
     2019.27446        -6.18425         5.94277
     2019.27720        -3.82376         5.94166
     2019.27994        -0.92028         5.79211
     2019.28268        -4.44280         5.84456
     2019.28542        -4.18332         5.85349
     2019.28815        -0.04984         5.86577
     2019.29089        -3.05436         5.88586
     2019.29363        -6.09288         5.88809
     2019.29637        -5.71540         5.96398
     2019.29911         1.60308         5.87023
     2019.30184        -3.73644         5.91041
     2019.30458       -11.12995         5.90706
     2019.30732        -7.89047         5.85684
     2019.31006        -2.87799         6.04098
     2019.31279       -10.50751         6.03317
     2019.31553        -0.52003         6.03987
     2019.31827        -6.54155         5.88251
     2019.32101        -1.19307         5.90594
     2019.32375       -17.57459         5.83006
     2019.32648       -11.66411         5.83564
     2019.32922       -10.54963         5.87470
     2019.33196        -8.58015         6.02871
     2019.33470        -8.04566         6.03317
     2019.33744        -7.30718         5.84568
     2019.34017       -12.58970         5.87246
     2019.34291        -5.84622         5.88139
     2019.34565        -6.89974         6.05437
     2019.34839        -9.69926         5.99969
     2019.35112        -8.50078         5.90148
     2019.35386       -12.74630         5.88586
     2019.35660        -8.33982         5.89925
     2019.35934        -0.74734         5.85461
     2019.36208        -1.33785         5.91264
     2019.36481        -3.95737         5.90371
     2019.36755        -4.53189         5.97291
     2019.37029        -1.50741         5.89478
     2019.37303        -3.50093         5.93719
     2019.37577        -5.50945         5.95951
     2019.37850        -4.93297         5.86354
     2019.38124        -3.91949         5.89367
     2019.38398        -6.35401         5.90260
     2019.38672        -4.69353         5.92268
     2019.38945        -8.07105         5.89813
     2019.39219       -10.48856         6.99071
     2019.39493        -7.19708         5.87023
     2019.39767        -6.20160         5.97179
     2019.40041        -6.52312         5.88586
     2019.40314        -5.63964         5.89144
     2019.40588        -3.61116         5.88697
     2019.40862        -4.26068         5.85796
     2019.41136         3.40980         5.97291
     2019.41410        -4.79172         5.96174
     2019.41683        -9.83424         5.99188
     2019.41957        -3.60976         5.95058
     2019.42231        -8.25927         5.94500
     2019.42505        -4.45979         5.95393
     2019.42778        -5.73731         6.24744
     2019.43052         0.25317         6.15370
     2019.43326        -9.01135         5.94724
     2019.43600       -12.41787         5.92938
     2019.43874       -12.81439         6.32333
     2019.44147       -12.51691         6.01755
     2019.44421        -0.16243         6.00862
     2019.44695        -2.88095         6.18606
     2019.44969         0.74554         6.36351
     2019.45243        -1.50198         6.13473
     2019.45516        -6.47050         6.05103
     2019.45790        -2.66402         6.15705
     2019.46064        -5.33054         6.12133
     2019.46338        -1.59306         6.54988
     2019.46611         3.01342         6.47511
     2019.46885        -4.12110         6.21062
     2019.47159        -1.28362         6.06219
     2019.47433        -0.89014         6.07669
     2019.47707        -1.04466         6.07781
     2019.47980        -1.50717         6.10459
     2019.48254        -4.79169         6.12468
     2019.48528        -8.64421         6.10236
     2019.48802        -6.88173         6.30994
     2019.49076       -12.70325         5.93384
     2019.49349        -8.01777         5.95951
     2019.49623        -6.50329         6.16821
     2019.49897        -6.36081         5.96956
     2019.50171        -0.90533         5.95951
     2019.50444        -6.28885         5.98965
     2019.50718        -8.05236         5.91822
     2019.50992        -8.48888         5.98072
     2019.51266        -7.73240         5.97737
     2019.51540        -5.64392         6.00415
     2019.51813        -1.81844         6.13808
     2019.52087        -5.19396         5.99857
     2019.52361        -8.51748         5.93384
     2019.52538         0.51741        10.81529
     2019.53558        -0.22689        14.52492
     2019.53730        -1.10107         6.17156
     2019.54004        -0.45259         6.12133
     2019.54277         1.36889         6.13026
     2019.54551         0.48237         6.24410
     2019.54825        -1.22415         6.12468
     2019.55099        -5.84467         5.93050
     2019.55373        -6.42519         6.42712
     2019.55646        -2.13671         6.14700
     2019.55920        -9.39823         6.23182
     2019.56194        -4.40175         6.01197
     2019.56468        -8.41627         6.10683
     2019.56741        -5.18778         5.97179
     2019.57012        -9.46935         6.06219
     2019.57292        -2.91278         6.17825
     2019.57563        -2.88434         6.16374
     2019.57837        -4.43586         6.11129
     2019.58110        -3.87038         6.09009
     2019.58384        -8.32390         6.17825
     2019.58658         1.08658         5.99188
     2019.58932        -5.19294         6.02313
     2019.59206         3.64754         6.21285
     2019.59479        -5.79197         6.04768
     2019.59753        -0.27149         6.23852
     2019.60027        -0.85101         6.17602
     2019.60301       -10.33953         6.04098
     2019.60574         7.03095         6.50524
     2019.60848         0.85143         6.41485
     2019.61122        -5.20909         5.95505
     2019.61396        -1.88161         6.04321
     2019.61670        -6.52313         6.08004
     2019.61943        -0.77865         6.03540
     2019.62211         0.85374         6.28092
     2019.62491         4.93532         5.99634
     2019.62765         3.43680         5.91376
     2019.63039         0.51828         6.01197
     2019.63312        -0.88124         5.96509
     2019.63586         4.21024         5.98072
     2019.63860         1.20372         6.04321
     2019.64134         3.53720         6.21954
     2019.64407         6.17968         6.04098
     2019.64681        -2.77384         6.06442
     2019.64955        -0.24036         5.95170
     2019.65229         2.72412         5.96174
     2019.65503        -1.85239         6.11575
     2019.65776         1.97609         6.22178
     2019.66050         1.65657         6.26418
     2019.66324        -2.62495         6.16932
     2019.66598        -0.53947         6.02089
     2019.66872         1.57701         6.03317
     2019.67145        -1.59651         6.00862
     2019.67419         2.38097         6.08004
     2019.67693        -2.09255         6.26195
     2019.67967        -3.55707         6.33115
     2019.68240        -3.19958         6.01085
     2019.68514         5.03790         6.23517
     2019.68788         4.09638         6.10013
     2019.69062        11.49086         6.28427
     2019.69336        -1.30066         6.06553
     2019.69609        -5.01718         5.95282
     2019.69883        -4.27770         6.00415
     2019.70157         1.10878         5.99076
     2019.70431         4.76826         6.02313
     2019.70705         9.50574         6.13919
     2019.70978         7.68022         6.05884
     2019.71252        -0.45529         5.96621
     2019.71526         6.99119         5.99188
     2019.71800         1.92567         6.33896
     2019.72073        -0.76385         6.29208
     2019.72347        -1.66937         5.97960
     2019.72621        -1.97789         5.92826
     2019.72895         1.46059         6.08897
     2019.73169         7.09307         5.97402
     2019.73442         7.81655         5.99969
     2019.73716         2.27203         6.12357
     2019.73990         3.33752         6.30436
     2019.74264         0.17600         6.11799
     2019.74538         0.67248         6.00081
     2019.74811         3.99196         6.10013
     2019.75085         1.98444         6.42824
     2019.75359        -1.03808         6.29655
     2019.75633        -0.21060         6.20727
     2019.75906         0.53288         6.06219
     2019.76180        -2.58264         6.03540
     2019.76454        -0.37216         6.04991
     2019.76728         0.19532         6.16374
     2019.77002         2.14081         6.28316
     2019.77275        -1.28171         6.26642
     2019.77549         1.50077         6.17602
     2019.77823         0.97725         6.11687
     2019.78097         3.83473         6.08897
     2019.78371         1.54421         6.17379
     2019.78644        -2.10231         6.14254
     2019.78918         1.24417         6.18048
     2019.79192        11.19765         6.13026
     2019.79466        10.95113         6.14589
     2019.79739         5.64861         6.22066
     2019.80013         5.08110         6.13250
     2019.80287         2.16258         6.15705
     2019.80561         2.95706         6.15147
     2019.80835        -0.48046         6.12691
     2019.81108        -3.27098         6.09232
     2019.81382        -0.37150         6.15147
     2019.81656         1.02398         6.14924
     2019.81930        -1.53554         6.09455
     2019.82203        -0.77206         6.07558
     2019.82477         0.34742         6.07111
     2019.82751        -4.38509         6.13361
     2019.83025        -2.18161         6.20950
     2019.83299        -3.81413         6.15593
     2019.83572        -6.58165         6.08116
     2019.83846         1.57883         6.11017
     2019.84120         0.49231         6.11352
     2019.84394        -2.24821         6.36574
     2019.84668        -5.28473         6.17379
     2019.84941        -1.30825         6.08339
     2019.85215        -0.06377         6.09790
     2019.85489         0.31671         6.11575
     2019.85763        -0.27080         6.14477
     2019.86036        -2.15932         6.39699
     2019.86310        -0.50684         6.10683
     2019.86584         6.68764         6.21843
     2019.86858         1.78812         6.13361
     2019.87132         2.24660         6.19164
     2019.87405         7.55008         6.16263
     2019.87679        -0.17544         6.27311
     2019.87953         3.76204         6.11017
     2019.88227         6.57552         6.06442
     2019.88501         9.79701         6.15593
     2019.88774         5.69549         6.29878
     2019.89048        11.40297         6.14142
     2019.89322         7.32345         6.08004
     2019.89596         5.84793         6.11799
     2019.89869         8.41341         6.10459
     2019.90143         6.15989         6.07669
     2019.90417         3.12437         6.14031
     2019.90691         2.76285         6.09009
     2019.90965         4.31833         6.10571
     2019.91238         5.08281         6.08451
     2019.91512         5.48230         6.19834
     2019.91786         8.57878         6.13026
     2019.92060         0.11026         6.24633
     2019.92334         3.13974         6.12915
     2019.92607         2.36122         6.09343
     2019.92881         2.61570         6.11129
     2019.93155         6.02818         6.13026
     2019.93429         2.64866         6.13473
     2019.93702         5.49914         6.13026
     2019.93976         1.44962         6.09343
     2019.94250         0.05410         6.07558
     2019.94524        -2.42241         6.11575
     2019.94798        -3.33293         6.17379
     2019.95071         1.40755         6.44833
     2019.95345         3.69003         6.14031
     2019.95619         0.90651         6.09009
     2019.95893        -0.75301         6.12022
     2019.96167         1.47347         6.16040
     2019.96440         1.96895         6.27758
     2019.96714         0.50443         6.30994
     2019.96988        -2.14709         6.10236
     2019.97262         2.54440         6.09567
     2019.97535         5.09588         6.09678
     2019.97809        -2.34964         6.22401
     2019.98083         4.19284         6.12245
     2019.98357        -1.57868         6.06553
     2019.98631         2.43580         6.06553
     2019.98904         3.15028         6.04991
     2019.99178         1.34576         6.10125
     2019.99452         0.35024         6.12580
     2019.99726         4.17672         6.13026
     2020.00000         6.31320         6.12691
     2020.00273         1.09169         6.11017
     2020.00547         2.73717         6.22066
     2020.00821         5.10865         6.22178
     2020.01095        -0.57787         6.32110
     2020.01368        -7.12539         6.47065
     2020.01642        -8.69691         6.26195
     2020.01916        -0.18043         6.08785
     2020.02190        -1.51095         6.17379
     2020.02464        -5.93347         6.16932
     2020.02737        -2.16599         6.09120
     2020.03011        -2.25850         6.23628
     2020.03285        -5.60202         6.08785
     2020.03559        -0.44554         5.98407
     2020.03833        -5.39306         5.94500
     2020.04106        -4.66258         6.06107
     2020.04380         2.57490         6.12245
     2020.04654        -0.93562         5.92603
     2020.04928        -6.78814         5.90594
     2020.05201        -8.79366         5.90483
     2020.05475        -4.03818         5.90371
     2020.05749         0.40130         5.90148
     2020.06023         1.39479         5.89478
     2020.06297        -4.19873         5.87916
     2020.06570         0.01275         5.89590
     2020.06844         2.14123         5.91041
     2020.07118         5.76771         5.92157
     2020.07392        -0.16281         5.93496
     2020.07666        -3.52933         5.92380
     2020.07939        -3.26585         6.05437
     2020.08213        -4.48337         5.89255
     2020.08487        -0.93689         5.93608
     2020.08761         4.96659         5.91152
     2020.09034         3.90408         5.94612
     2020.09308        -1.33344         5.90929
     2020.09582         0.43504         5.92380
     2020.09856        -0.80648         5.92268
     2020.10130        -1.08100         5.93161
     2020.10403         1.74648         6.00192
     2020.10677        -4.26004         5.92045
     2020.10951        -3.67256         6.14254
     2020.11225        -2.62408         5.89144
     2020.11498        -1.37960         5.86354
     2020.11772        -3.04311         6.01085
     2020.12046        -4.76963         6.05995
     2020.12320         0.15085         5.93496
     2020.12594        -2.50467         5.90483
     2020.12867        -5.25819         5.89478
     2020.13141        -6.33271         5.87023
     2020.13415        -9.91523         5.90929
     2020.13689        -1.62075         6.09232
     2020.13963        -0.13727         6.07335
     2020.14236        -4.04679         5.90483
     2020.14510        -1.30231         6.02536
     2020.14784        -5.96182         5.94054
     2020.15058        -6.87134         5.94054
     2020.15331        -6.87886         5.94947
     2020.15605        -6.34038         5.92157
     2020.15879        -7.97290         5.88809
     2020.16153        -1.50942         5.93273
     2020.16427         1.40606         5.94612
     2020.16700         3.32954         5.92492
     2020.16974         3.32902         5.95058
     2020.17248        -1.59850         5.89925
     2020.17522        -5.82201         5.86130
     2020.17796        -1.94853         5.93050
     2020.18069        -0.75105         5.94500
     2020.18343        -0.38157         5.87358
     2020.18617        -1.90209         5.89925
     2020.18891        -5.69461         5.93273
     2020.19164        -0.65713         5.97402
     2020.19438        -6.77565         5.99746
     2020.19712        -5.89117         5.96844
     2020.19986        -5.10869         6.05437
     2020.20260        -6.48521         5.99746
     2020.20533        -0.99672         5.96956
     2020.20807        -8.80324         6.01197
     2020.21081       -12.58176         5.98630
     2020.21355        -2.66528         6.46284
     2020.21629        -6.74680         6.28092
     2020.21902        -4.87932         6.12468
     2020.22176        -5.02684         6.01866
     2020.22450         0.02364         6.02647
     2020.22724        -3.27188         5.98630
     2020.22997         0.37460         6.00750
     2020.23271         2.18608         5.93719
     2020.23545         0.80057         5.96956
     2020.23819        -3.10395         5.94835
     2020.24093        -3.97247         5.95058
     2020.24366        -4.45899         5.95170
     2020.24640        -4.36051         5.96286
     2020.24914        -5.39703         5.92157
     2020.25188        -6.17155         5.96063
     2020.25462        -6.71507         5.98741
     2020.25735        -2.45559         5.94947
     2020.26009         0.86889         5.97402
     2020.26283        -0.69662         6.03987
     2020.26557        -6.19714         6.02424
     2020.26830        -6.88866         5.95728
     2020.27104        -5.43318         5.97737
     2020.27378        -3.12370         5.95728
     2020.27652        -0.52522         6.02759
     2020.27926        -3.86174         6.22066
     2020.28199        -5.48026         6.02647
     2020.28473       -12.70978         5.93273
     2020.28747        -1.94030         5.98183
     2020.29021        -9.73282         5.97514
     2020.29295        -5.78233         5.95170
     2020.29568        -0.57585         5.98741
     2020.29842         1.15663         5.96174
     2020.30116         0.42411         5.95282
     2020.30390        -2.10941         6.71394
     2020.30663        -2.77393         6.01866
     2020.30937        -4.70945         6.15147
     2020.31211       -11.59797         6.09790
     2020.31485        -8.83149         5.99746
     2020.31759        -3.29201         5.91152
     2020.32032        -8.52152         5.94947
     2020.32306        -4.31404         5.86688
     2020.32580        -7.65456         5.85126
     2020.32854        -5.15408         5.94054
     2020.33128        -6.16060         5.93050
     2020.33401        -5.88612         5.86577
     2020.33675        -2.04964         5.98518
     2020.33949        -8.68716         5.88474
     2020.34223        -8.79568         5.96733
     2020.34496        -4.81220         6.01531
     2020.34770        -8.33272         5.91041
     2020.35044        -8.41523         5.94166
     2020.35318       -12.08875         6.03094
     2020.35592       -13.79727         5.97402
     2020.35865        -4.66779         5.92826
     2020.36139        -3.53731         5.93496
     2020.36413         0.62517         5.92045
     2020.36687        -3.57835         5.94947
     2020.36961        -2.24587         5.98183
     2020.37234        -5.81639         5.87358
     2020.37508        -5.72191         5.93384
     2020.37782         4.58257         5.98407
     2020.38056        -2.49194         5.92380
     2020.38329        -0.16446         5.91376
     2020.38603        -1.60598         5.89478
     2020.38877        -4.37750         6.10013
     2020.39151        -6.13602         5.90818
     2020.39425        -7.41254         5.89813
     2020.39698       -10.88506         5.91934
     2020.39972        -6.70258         5.96956
     2020.40246        -8.49310         5.99188
     2020.40520       -11.41662         6.25526
     2020.40794        -8.71113         5.92268
     2020.41067        -2.45165         6.02647
     2020.41341         1.70583         6.09455
     2020.41615        -5.16069         5.97514
     2020.41889        -5.36921         5.96844
     2020.42162        -6.16773         6.07669
     2020.42436         1.98575         6.23852
     2020.42710         0.48423         6.42043
     2020.42984        -1.89229         6.10125
     2020.43258         2.21819         6.14366
     2020.43531        -4.88333         6.05661
     2020.43805        -2.97384         6.02089
     2020.44079        -6.15236         5.97960
     2020.44353        -4.71788         6.05772
     2020.44626        -8.53540         5.90706
     2020.44900         2.34308         6.11352
     2020.45174         0.05356         5.98407
     2020.45448        -5.12996         5.93608
     2020.45722         0.83252         5.91376
     2020.45995        -6.49900         5.95282
     2020.46269       -12.18152         5.88251
     2020.46543        -9.67703         5.92157
     2020.46817        -5.20055         5.90706
     2020.47091        -0.23007         5.94947
     2020.47364        -8.16559         5.91152
     2020.47638        -2.53811         5.86912
     2020.47912        -6.89563         6.13026
     2020.48186        -1.35815         6.01308
     2020.48459        -7.18667         6.07335
     2020.48733        -2.03619         6.08227
     2020.49007         7.37329         6.18941
     2020.49281        -0.19223         6.40592
     2020.49555        -7.80474         6.03205
     2020.49828        -4.98126         6.00415
     2020.50102        -5.21278         5.91487
     2020.50376        -3.86730         5.99299
     2020.50661        -8.81064         6.13808
     2020.50924        -5.67534         5.90483
     2020.51197       -11.42986         6.02759
     2020.51471         3.19362         5.96733
     2020.51745         0.51510         5.91599
     2020.52019        -1.65942         6.04210
     2020.52292        -2.16294         6.12803
     2020.52566        -9.08645         6.00527
     2020.52840        -1.53797         6.03652
     2020.53114         2.40351         6.08451
     2020.53388        -1.92501         6.11241
     2020.53661        -5.43253         6.02647
     2020.53935        -5.76805         6.01531
     2020.54209         2.13243         6.03875
     2020.54483        -3.23109         6.13361
     2020.54757        -6.63661         6.01308
     2020.55030        -4.08913         6.03317
     2020.55304        -2.04464         6.11575
     2020.55578        -2.84316         6.13584
     2020.55852         2.64232         6.12357
     2020.56125        -0.50220         6.09790
     2020.56399         4.09028         6.26530
     2020.56673        -6.42424         6.30436
     2020.56947         5.54124         6.05437
     2020.57221         3.86572         6.30325
     2020.57494        -2.08480         6.05437
     2020.57768        -4.13032         6.09790
     2020.58042        -5.43284         6.14254
     2020.58316        -8.79435         6.11017
     2020.58590        -2.17587         6.12133
     2020.58863        -1.85139         6.04656
     2020.59137        -5.59691         6.13808
     2020.59409         5.58553         6.10459
     2020.59685         7.08205         6.23963
     2020.59958         0.37653         6.25079
     2020.60232         3.28801         6.08785
     2020.60506        -4.99651         6.13361
     2020.60780        -1.92003         6.08451
     2020.61054         2.63546         6.10236
     2020.61327         4.05994         6.11575
     2020.61601        -1.07458         6.03875
     2020.61875        -7.47510         6.09790
     2020.62149        -8.99662         6.08451
     2020.62423        -1.47614         6.07111
     2020.62696        -4.23866         6.05772
     2020.62970        -1.87318         6.09343
     2020.63244         5.14630         6.23628
     2020.63518        -4.30222         6.36351
     2020.63791        -2.57574         6.28316
     2020.64065        -1.55525         6.11464
     2020.64339        -3.61377         6.07000
     2020.64613         2.11771         6.18830
     2020.64887         3.91419         6.24856
     2020.65160         1.32867         6.29990
     2020.65434         0.93215         6.26084
     2020.65708         5.57063         6.03205
     2020.65982        -2.63389         6.09232
     2020.66256         4.72559         6.20838
     2020.66529         4.86707         6.15147
     2020.66803        -3.59545         6.12245
     2020.67077         2.24904         6.09455
     2020.67351         1.16652         6.04991
     2020.67624        -2.38900         6.11799
     2020.67898        -3.90552         6.16486
     2020.68172        -0.79804         6.24410
     2020.68446         3.18244         6.21285
     2020.68600       -22.60304        18.34838
     2020.69648         2.43012        14.98025
     2020.69815        -4.75915         6.22512
     2020.70089        -0.67967         6.06665
     2020.70362        -5.54619         6.08116
     2020.70636        -7.66071         6.41819
     2020.70910        -4.77223         6.53649
     2020.71184        -2.44475         6.27646
     2020.71457        -1.51727         6.38025
     2020.71731         1.04121         6.41150
     2020.72005        -6.82831         6.38360
     2020.72279        -2.80983         6.19722
     2020.72553         4.02265         6.33561
     2020.72826        -4.95386         6.42377
     2020.73100         1.16162         6.11352
     2020.73374         3.58910         6.16821
     2020.73648         9.28458         6.19053
     2020.73921        -1.17094         6.26195
     2020.74195        -0.17846         6.16040
     2020.74469        -4.40998         6.13250
     2020.74743        -3.31650         6.09343
     2020.75017        -2.61802         6.17490
     2020.75290        -6.07054         6.21731
     2020.75564        -3.80605         6.05437
     2020.75838        -2.18857         6.04098
     2020.76123         1.53109         6.25972
     2020.76386        -0.55761         6.03094
     2020.76659         2.80587         6.03094
     2020.76933         5.83435         6.19164
     2020.77207         9.28483         6.03429
     2020.77481         9.61631         6.04768
     2020.77754         4.89979         6.06330
     2020.78028         2.36227         6.09232
     2020.78302         3.21575         5.97514
     2020.78576        10.91424         6.05549
     2020.78850        -0.52628         5.97737
     2020.79123        -3.04480         5.92603
     2020.79397        -0.13732         5.96174
     2020.79671         2.21316         5.94612
     2020.79945         5.71764         6.05772
     2020.80219         4.29812         6.13919
     2020.80492        -2.50040         6.02982
     2020.80766        -3.78792         6.11799
     2020.81040        -1.61044         6.03987
     2020.81314         5.05904         5.95505
     2020.81587        -2.68647         5.96398
     2020.81861         1.01101         5.96621
     2020.82135         3.22249         5.99634
     2020.82409         0.13797         6.04321
     2020.82683        -0.05355         6.02982
     2020.82956         1.99693         6.00862
     2020.83230         4.55241         6.06442
     2020.83504         0.73489         6.09343
     2020.83778         1.67437         5.91599
     2020.84052         0.85885         5.94500
     2020.84325        -0.21166         6.10571
     2020.84599         1.68682         6.13584
     2020.84873         4.61830         5.98407
     2020.85147        10.02478         6.03317
     2020.85420        10.80026         5.95393
     2020.85694        11.52674         6.09901
     2020.85968         7.64922         5.99523
     2020.86242         7.13870         6.07000
     2020.86516         4.33518         6.23852
     2020.86789         9.12566         6.23963
     2020.87063        12.79514         6.04768
     2020.87337         7.63263         6.10236
     2020.87611         8.56311         6.26195
     2020.87885        -0.01641         6.21285
     2020.88158         6.43407         6.23963
     2020.88432        12.56055         6.21173
     2020.88706        -1.72497         6.43047
     2020.88980        -0.91649         6.22401
     2020.90349        10.31992         6.19164
     2020.90622         2.65640         6.16598
     2020.90896         2.01188         6.23517
     2020.91170         5.64636         6.34007
     2020.91444         5.58584         6.22512
     2020.91718         3.57732         6.16932
     2020.91991         0.01780         6.12245
     2020.92265        -3.18872         6.25191
     2020.92539        -2.80824         6.18272
     2020.92813        -4.31676         6.15147
     2020.93086        -1.31227         6.11241
     2020.93360         0.44521         6.13919
     2020.93634         0.73969         6.10013
     2020.93908        -0.02183         6.20169
     2020.94182        -0.27735         6.17490
     2020.94455         0.98613         6.09455
     2020.94729        -1.72839         6.08227
     2020.95003        -5.16691         6.17825
     2020.95277        -6.99243         6.23294
     2020.95551        -5.19795         6.23405
     2020.95824        -6.50547         6.18495
     2020.96098        -4.89598         6.18606
     2020.96372         0.87350         6.13808
     2020.96646         5.16198         6.22512
     2021.27583        -3.62168         6.06442
     2021.27857        -3.20219         6.15035
     2021.28131        -2.33771         6.13808
     2021.28405        -2.18123         6.14142
     2021.28679        -5.41675         6.12915
     2021.28952        -1.38327         6.23963
     2021.29226        -6.91279         6.13808
     2021.29500         3.05969         6.14031
     2021.29774         0.05617         6.30436
     2021.30047        -4.20235         6.11687
     2021.30321        -0.15987         6.12245
     2021.30595         2.40161         6.35235
     2021.30869        13.35810         6.34900
     2021.31143         5.54458         6.04433
     2021.31416         8.11506         6.01420
     2021.31690         2.05754         6.05549
     2021.31964        -0.59098         6.19834
     2021.32238        -1.31950         6.22401
     2021.32512        -5.60902         6.02424
     2021.32785        -3.79854         5.99523
     2021.33059         3.25294         6.07335
     2021.33333         7.19642         6.13808
     2021.33607        -5.25709         6.07335
     2021.33880         0.74139         6.11799
     2021.34154        -5.70813         6.07000
     2021.34428        -9.69665         6.21396
     2021.34702        -3.54317         6.17267
     2021.34976        -2.80769         6.17044
     2021.35249        -5.82021         6.10794
     2021.35523        -4.79673         6.15482
     2021.35797        -6.45525         6.10348
     2021.36071        -4.07377         6.09678
     2021.36344        -8.10829         6.14031
     2021.36618        -8.36980         6.15370
     2021.36892        -6.69332         6.16821
     2021.37166         0.94416         6.15370
     2021.37440         1.45264         6.23294
     2021.37713        -1.65388         6.21173
     2021.37987         1.12660         6.33338
     2021.38261         1.84208         6.63470
     2021.38535        -1.00044         6.37021
     2021.38809         2.29604         6.28204
     2021.39082        -3.94548         6.19053
     2021.39356        -3.28900         6.14812
     2021.40725        -2.47259         6.18048
     2021.40999        -2.49811         6.15035
     2021.41273        -3.22563         6.17937
     2021.41546        -1.78315         6.16709
     2021.41820        -6.87167         6.14142
     2021.42094        -4.93019         6.17156
     2021.42368        -1.46270         6.29320
     2021.42642        -0.79622         6.28316
     2021.42915         1.88326         6.29543
     2021.43189         2.48974         6.16486
     2021.43463        -5.22278         6.13584
     2021.43737        -1.59430         6.21620
     2021.44010         0.27218         6.44051
     2021.44284        -8.40034         6.32333
     2021.44558        -6.65286         6.28427
     2021.44832        -9.47238         6.30659
     2021.45106        -2.23690         6.40145
     2021.45379         3.58359         6.45279
     2021.45653        -2.18293         6.39587
     2021.45927         2.83755         6.17379
     2021.46475        -3.73949         6.23405
     2021.46748         4.39199         6.16709
     2021.47022        -0.88653         6.32780
     2021.47296        10.76995         6.38471
     2021.47570        -0.48757         6.29990
     2021.47843        -0.20209         6.22066
     2021.48117        -4.68561         6.38137
     2021.48391        -5.64612         6.21620
     2021.48665        -4.41264         6.27311
     2021.48939        -3.66816         6.26195
     2021.49212        -3.88068         6.24744
     2021.49486         1.36580         6.33003
     2021.49760        -1.71772         6.45614
     2021.50034        -4.39424         6.38471
     2021.50308        -1.29376         6.33003
     2021.50581         1.13172         6.35458
     2021.50855        -3.19980         6.39141
     2021.51129        -0.87131         6.32557
     2021.51403        -1.99983         6.34119
     2021.51676         2.99365         6.21396
     2021.51950         1.88513         6.32891
     2021.52224        -6.04839         6.19499
     2021.52498        -3.89991         6.18383
     2021.52772        -3.17043         6.28874
     2021.53045         1.17505         6.32110
     2021.53593         1.23001         6.37355
     2021.53867         8.37549         6.62243
     2021.54141        -6.04502         6.34119
     2021.54414        -9.67054         6.25526
     2021.54688        -8.49706         6.14142
     2021.54962         1.57942         6.17490
     2021.55236        -4.54410         6.17267
     2021.55509         3.27938         6.42824
     2021.55783        -7.07414         6.26418
     2021.56057        -3.34766         6.11464
     2021.56331         2.21282         6.07669
     2021.56605        -1.35170         6.12580
     2021.56878         0.43079         6.22289
     2021.57152        -4.62673         6.17267
     2021.57426        -7.27525         6.16374
     2021.57700         0.56323         6.31552
     2021.57974         0.36071         6.31552
     2021.58247        -5.10381         6.16374
     2021.58521        -5.49333         6.18383
     2021.58795        -8.63585         6.29320
     2021.59069        -7.27137         6.16374
     2021.59342        -0.98789         6.37355
     2021.59616        -0.56941         6.42824
     2021.59890        -1.70892         6.12915
     2021.60164         5.25856         6.09232
     2021.60438         3.84804         6.35235
     2021.60711         3.87652         6.13361
     2021.60985         7.53800         6.17379
     2021.61259         6.15648         6.15258
     2021.61533        -0.27304         6.08897
     2021.61807         1.93844         6.19053
     2021.62080        -1.24508         6.20727
     2021.62354         2.43840         6.18606
     2021.62628         7.50388         6.21173
     2021.62902        13.16637         6.33226
     2021.63175        -0.72915         6.21173
     2021.63449        -3.34667         6.05103
     2021.63723        -2.02819         6.43940
     2021.64271         5.84377         6.38695
     2021.64544         2.84625         6.12580
     2021.64818        -0.39527         6.08116
     2021.65092         5.33121         6.10794
     2021.65366         1.55069         6.15482
     2021.65639         4.67018         6.12803
     2021.65913        -4.85934         6.12580
     2021.66187         0.48414         6.07446
     2021.66461         5.65962         6.13919
     2021.66735         5.25910         6.19276
     2021.67008        -0.39142         6.38137
     2021.67282         7.61506         6.56439
     2021.67556        -1.70246         6.48962
     2021.67830        -3.42298         6.30213
     2021.68104         7.47250         6.17267
     2021.68377         3.50798         6.16151
     2021.68651        -0.69553         6.15482
     2021.68925         2.02595         6.13026
     2021.69199         2.06643         6.26084
     2021.69472        -2.75309         6.31887
     2021.69746        -3.68161         6.24186
     2021.70020         4.81087         6.21285
     2021.70294         2.63635         6.11129
     2021.70568         6.21183         6.12357
     2021.70841         2.86231         6.18048
     2021.71115         1.85779         6.12468
     2021.71389        10.32628         6.21062
     2021.71663         6.69876         6.23740
     2021.71937        -0.66476         6.17937
     2021.72210        -5.68428         6.10459
     2021.72484        -5.67480         6.09009
     2021.72758        -0.77432         6.20392
     2021.73032        -7.39284         6.39476
     2021.73305         7.26664         6.15035
     2021.73579         9.33312         6.11575
     2021.73853         9.09960         6.05995
     2021.74127        10.00408         6.20838
     2021.74401         2.69657         6.10906
     2021.74674         3.62805         6.10794
     2021.74948         4.60153         6.16151
     2021.75222         7.36801         6.10571
     2021.75496         5.02149         6.07558
     2021.75770        -0.74303         6.10236
     2021.76043         5.77045         6.09678
     2021.76317         5.93193         6.17156
     2021.76591         4.31941         6.21173
     2021.76865         2.15389         6.11017
     2021.77138         2.66837         6.10125
     2021.77412         7.15586         6.09343
     2021.77686         5.80834         6.09120
     2021.77960         7.48882         6.14477
     2021.78234         9.84230         6.09678
     2021.78507         9.39378         6.11464
     2021.78781         7.27726         6.09120
     2021.79055         1.61974         6.05549
     2021.79329         1.43722         6.13026
     2021.79603         8.37770         6.13250
     2021.79876         3.04718         6.17714
     2021.80150         1.09267         6.20950
     2021.80424         3.87615         6.19053
     2021.80698         5.53763         6.09343
     2021.80971         5.75811         6.17267
     2021.81245        12.99959         6.29208
     2021.81519        13.28707         6.07111
     2021.81793         9.99755         6.07000
     2021.82067         6.16603         6.17044
     2021.82340         6.30851         6.20280
     2021.82614         2.93699         6.23963
     2021.82888         8.82147         6.17156
     2021.83162         3.05996         6.15147
     2021.83983        -3.00760         6.24968
     2021.84257        -2.24512         6.19388
     2021.84531         5.37136         6.36016
     2021.84804         2.35884         6.24410
     2021.85078         4.16532         6.24298
     2021.85352         6.48680         6.26084
     2021.85626         2.10828         6.14366
     2021.85900         5.32577         6.08897
     2021.86173         2.40925         6.11129
     2021.86447         4.27273         6.22959
     2021.86721         0.33021         6.45056
     2021.86995         9.94669         6.44386
     2021.87269         7.31117         6.18495
     2021.87542        11.45665         6.36463
     2021.87816         2.54513         6.12468
     2021.88090         3.80361         6.17156
     2021.88364         4.27709         6.20392
     2021.88637        -1.06243         6.14924
     2021.88911        -1.06494         6.15147
     2021.89185        -6.27646         6.21731
     2021.89459         4.80402         6.15705
     2021.89733         1.49850         6.17825
     2021.90006        -1.90502         6.16932
     2021.90280        -2.32054         6.16932
     2021.90554        -1.18606         6.13919
     2021.90828         6.70142         6.21062
     2021.91102         7.81890         6.20838
     2021.91375         0.85238         6.21062
     2021.91649         1.97286         6.12245
     2021.91923         1.60235         6.19276
     2021.92197        -6.21517         6.38471
     2021.92470        -3.64469         6.21285
     2021.92744         7.70379         6.29655
     2021.93018        -1.86373         6.21731
     2021.93292         6.58375         6.25191
     2021.93566        10.41423         6.27981
     2021.93839        13.00271         6.31441
     2021.94113        14.01319         6.52198
     2021.94387        13.66367         6.21396
     2021.94661         8.71616         6.16374
     2021.94935         5.15864         6.18606
     2021.95208        12.64612         6.20169
     2021.95756         5.97908         6.45391
     2021.96030         2.34456         6.31441
     2021.96303         6.99504         6.34565
     2021.96577         5.40952         6.29990
     2021.96851         2.06500         6.37802
     2021.97125         6.84648         6.39811
     2021.97399         4.48996         6.41819
     2021.97672        12.35045         6.38248
     2021.97946        17.74593         6.34900
     2021.98220        15.30341         6.40480
     2021.98494        17.20389         6.37467
     2021.98767        12.81937         6.38695
     2021.99041        14.31885         6.26195
     2021.99315        10.94333         6.15035
     2021.99863         5.83329         6.24968
     2022.00136         4.47577         6.23182
     2022.00410        -2.16574         6.29208
     2022.00684        -3.85826         6.23517
     2022.00958         5.79622         6.23963
     2022.01232        -1.67930         6.23963
     2022.01505         4.01818         6.19388
     2022.01779        17.49266         6.35681
     2022.02053         5.60814         6.23628
     2022.02327         6.86762         6.51194
     2022.02600        -4.76590         6.18941
     2022.02874        -5.60142         6.24856
     2022.03148        -6.99094         6.23517
     2022.03422        -8.82445         6.20727
     2022.03696        -2.32997         6.16374
     2022.03969        -5.75949         6.18606
     2022.04243         1.03899         6.22736
     2022.04517        -2.57853         6.22847
     2022.04791        -2.20205         6.26307
     2022.05065         2.67443         6.17825
     2022.05338         2.88391         6.17937
     2022.05612        -9.43461         6.19834
     2022.05886        -6.90213         6.22066
     2022.06160       -10.83965         6.22847
     2022.06433        -2.08816         6.22066
     2022.06707        -8.96768         6.24298
     2022.06981        -0.10620         6.21620
     2022.07255        -9.01572         6.10125
     2022.07529        -4.67024         6.09343
     2022.07802        -6.65476         6.13361
     2022.08076         3.89972         6.09343
     2022.08350         6.43120         6.11464
     2022.08624         3.25768         6.08785
     2022.08898         2.41116         6.07111
     2022.09171        -5.06335         6.09678
     2022.09445        -5.42287         6.08785
     2022.09719         0.09361         6.10236
     2022.09993        -5.97591         6.20280
     2022.10266        -7.19643         6.20727
     2022.10540        -5.10795         6.22959
     2022.10814        -1.86047         6.23740
     2022.11088        -2.09999         6.06553
     2022.11362         2.71349         6.04433
     2022.11635         1.35397         6.04879
     2022.11909        -5.11455         6.06442
     2022.12183        -2.69806         6.09678
     2022.12457        11.30542         6.21285
     2022.12731         3.60090         6.09009
     2022.13004        -4.01162         6.11352
     2022.13278         2.32986         6.09232
     2022.13552        -5.07866         6.05214
     2022.13826         4.37182         6.08674
     2022.14099         1.63930         6.09678
     2022.14373         0.48778         6.48181
     2022.14647         0.73526         6.04768
     2022.14921         1.76475         6.30994
     2022.15195        -6.49377         6.37802
     2022.15468         0.28671         6.03317
     2022.15742        -1.31381         6.15482
     2022.16016        -4.25433         6.13473
     2022.16290        -1.68085         6.11575
     2022.16564        -4.28137         6.05772
     2022.16837         0.94711         6.03652
     2022.17111         3.48759         6.10013
     2022.17385        -0.39493         6.12357
     2022.17659        -0.98845         6.12357
     2022.17932        -3.11996         6.03987
     2022.18206        -7.85748         6.07111
     2022.18480        -1.31100         6.15928
     2022.18754        -0.55652         6.25860
     2022.19028        -4.14504         6.28427
     2022.19301         0.82544         6.12580
     2022.19575         7.15992         6.15147
     2022.19849        -1.13060         6.12691
     2022.20123        -1.48912         6.15258
     2022.20397         7.24036         6.14700
     2022.20670        -0.85716         6.23405
     2022.20944         2.56233         6.26418
     2022.21218         2.65081         6.13808
     2022.21492         2.66729         6.16263
     2022.21765        -1.68423         6.18606
     2022.22039        -4.12175         6.14366
     2022.22313        -1.76427         6.13919
     2022.22587        -6.47579         6.28762
     2022.22861        -0.95431         6.23294
     2022.23134         1.76417         6.15816
     2022.23408         1.22465         6.17825
     2022.23682         8.14014         6.25191
     2022.23956         6.11462         6.15370
     2022.24503         7.45758         6.16040
     2022.24777         7.59506         6.13808
     2022.25051         3.10954         6.16151
     2022.25325         2.44402         6.12245
     2022.25598         7.41750         6.09009
     2022.25872        11.43798         6.13361
     2022.26146        -5.18954         6.11464
     2022.26420        -5.64206         6.12357
     2022.26694         2.84743         6.23070
     2022.26967         4.92591         6.08451
     2022.27241         5.30139         6.08785
     2022.27515         3.74087         6.19499
     2022.27789         4.98035         6.10571
     2022.28062         1.60483         6.12245
     2022.28336        -0.40469         6.01085
     2022.28610         4.27279         6.23070
     2022.28884        -1.36673         6.20727
     2022.29158        -1.77625         6.13584
     2022.29431        -2.27176         6.12691
     2022.29705         4.91072         6.03875
     2022.29979         4.35420         6.05772
     2022.30253         3.09568         6.19053
     2022.30527         1.55516         6.20392
     2022.30800         0.55564         6.07446
     2022.31074         0.83712         6.04433
     2022.31348        -3.24340         6.04545
     2022.31622        -5.59592         6.05884
     2022.31895       -13.86544         6.36909
     2022.32169         4.74504         6.42712
     2022.32443         1.01853         6.12915
     2022.32717        -0.40699         6.05437
     2022.32991         1.34849         6.09790
     2022.33264        -4.76103         6.22624
     2022.33538        -3.67555         6.45502
     2022.33812         1.09993         6.40257
     2022.34086         0.40541         6.10571
     2022.34360         3.87989         6.21173
     2022.34633         6.79437         6.18048
     2022.34907         2.32785         6.16374
     2022.35181         5.30533         6.11241
     2022.35455         6.11982         6.09455
     2022.35728         1.79330         6.07335
     2022.36002         4.05178         6.05214
     2022.36276         2.19726         6.08004
     2022.36550        -2.48326         6.15147
     2022.36824         3.11222         6.08785
     2022.37097         2.33270         6.14366
     2022.37371        -4.50582         6.10348
     2022.37645        -4.91534         6.06665
     2022.37919         8.83714         6.34119
     2022.38193        -5.56737         6.23852
     2022.38466         0.03411         6.07446
     2022.38740       -13.89741         6.06330
     2022.39014        -7.19293         6.05884
     2022.39288         1.00955         6.11241
     2022.39561        -3.24997         6.13026
     2022.39835        -1.30749         6.10125
     2022.40109        -1.05001         6.26976
     2022.40383         3.57647         6.06107
     2022.40657         2.89595         6.07000
     2022.40930        -3.71157         6.11241
     2022.41204        -6.91708         6.10571
     2022.41478        -9.73660         6.02982
     2022.41752        -5.90512         6.20057
     2022.42026         3.48836         6.22066
     2022.42299         2.59984         6.02536
     2022.42573        -2.20768         6.04098
     2022.42847         3.61580         6.12803
     2022.43121        -1.69672         6.19276
     2022.43394         5.59876         6.15035
     2022.43668        -5.22576         6.06107
     2022.43942        -0.23527         6.05772
     2022.44216        -0.24979         6.08339
     2022.44490         4.26569         6.29655
     2022.44763         1.80717         6.10906
     2022.45037        -6.20135         6.03540
     2022.45311        -3.60387         5.99969
     2022.45585        -3.53039         6.03205
     2022.45859         7.80809         6.37690
     2022.46132         0.40257         6.04656
     2022.46406         1.46905         6.04545
     2022.46680        -2.85747         6.08227
     2022.46954        -1.75998         6.07893
     2022.47227       -13.04750         6.02536
     2022.47501         0.25598         6.04991
     2022.47775        -6.09454         6.21620
     2022.48049        -8.86506         6.04321
     2022.48323        -0.48658         5.99857
     2022.48596         2.47690         6.02313
     2022.48870        -0.48462         6.10459
     2022.49144         7.41986         6.09120
     2022.49418        -5.87366         6.15928
     2022.49692        -4.98618         6.01866
     2022.49965        -0.13569         6.07893
     2022.50239        -9.53721         6.07669
     2022.50513        -2.19073         6.32557
     2022.50787         4.39975         6.30659
     2022.51060         0.72023         6.15035
     2022.51334         1.49771         6.05103
     2022.51608        -2.92381         6.01085
     2022.51882        -2.23133         6.00527
     2022.52156        -1.46785         6.05549
     2022.52429         2.15863         5.99969
     2022.52703         4.30012         5.96621
     2022.52977         8.04860         6.16040
     2022.53251         8.70008         6.19946
     2022.53525        -2.42044         6.21954
     2022.53798         2.54904         6.19053
     2022.54072        -0.21148         5.99411
     2022.54346         2.86300         6.13473
     2022.54620         2.33748         6.00415
     2022.54893         4.69296         6.05549
     2022.55167         2.70744         6.19834
     2022.55441         5.37192         6.00415
     2022.55715         6.92541         6.11464
     2022.55989         2.77089         6.00750
     2022.56262         6.14837         6.01531
     2022.56536        -1.73115         5.99746
     2022.56810         4.59933         5.97291
     2022.57084        -3.37319         6.05214
     2022.57357        -0.45471         6.13919
     2022.57631         3.87177         6.04433
     2022.57905         3.41825         5.99299
     2022.58179         8.52373         5.98741
     2022.58453        15.32522         6.24186
     2022.58726         6.39370         6.13696
     2022.59000         8.81218         6.17825
     2022.59274        -1.01534         6.06219
     2022.59548         3.04014         6.00304
     2022.59822        -7.50238         6.06330
     2022.60095        -8.39090         5.96286
     2022.60369         3.73958         5.94389
     2022.60643         2.24606         6.02536
     2022.60917         4.21154         6.17379
     2022.61190         6.90402         6.13361
     2022.61464         1.23951         6.19834
     2022.61738         1.76199         6.04210
     2022.62012         4.78447         6.04879
     2022.62286         5.36995         5.95282
     2022.62559         1.57543         5.96509
     2022.62833         1.39391         6.01308
     2022.63107        -5.62061         6.06219
     2022.63381        10.80187         6.09901
     2022.63655         6.80935         6.03429
     2022.63928         5.49383         6.09120
     2022.64202         1.64531         6.66595
     2022.64476         8.60380         6.47065
     2022.64750         5.54728         6.16932
     2022.65023         7.35376         6.19053
     2022.65297        13.07724         6.19276
     2022.65571        11.88472         6.13026
     2022.65845        11.20020         6.14589
     2022.66119         7.18968         5.94500
     2022.66392         6.06516         5.96063
     2022.66666         4.99464         5.98518
     2022.66940         7.14712         5.89144
     2022.67214         6.25861         5.95170
     2022.67488         1.47109         5.93608
     2022.67761        13.40857         5.94724
     2022.68035         6.09805         5.91822
     2022.68309         9.86553         5.92492
     2022.68583         4.78301         6.22512
     2022.68856        14.47949         6.02424
     2022.69130         8.91697         6.01420
     2022.69404         5.64645         6.03317
     2022.69678         7.79093         5.99188
     2022.69952         3.04041         6.01420
     2022.70225        15.52190         6.16709
     2022.70499        14.33638         6.31999
     2022.70773         6.64886         6.13138
     2022.71047         7.91334         5.92938
     2022.71321        13.62182         5.96509
     2022.71594        11.68530         5.93273
     2022.71868        10.19278         5.92715
     2022.72142        12.69826         6.04433
     2022.72416         8.26774         6.24968
     2022.72689        15.15522         6.01531
     2022.72963         8.78971         5.93273
     2022.73237         5.18019         5.92826
     2022.73511         7.74767         5.89813
     2022.73785         4.62715         5.93719
     2022.74058        11.36563         6.03429
     2022.74332        11.30711         6.38918
     2022.74606        15.92159         6.02424
     2022.74880         8.00407         5.96733
