# ================= DQRFIT RESULTS ================
# INPUT FILE: series/IDBY.rad
# OUTPUT: LDETRENDED
# FILTER FUNCTION: f(t)
# f(t)=+line(t)+annual(t)
# line(t)=+P 1+P 2*t
# annual(t)=+P 3*sin(2*pi*t+P 4)
# heav(t)=(t<0?0:1)
# TOTAL OBSERVATIONS MTOT= 2662
# INITIAL TIME INTERVAL= 2022.7488 - 2015.0007 =  7.7481
# TOTAL OBSERVATIONS AFTER PREFILTER M= 2661
# TIME-SPAN= 2022.7488 - 2015.0007 =  7.7481
# OBSERVATIONS: USED M=  2661 REJECTED MTOT-M=     1 %USED=   99.9624
# N=  4 PARAMETERS
# MAXSIG= 175.00000
# MAXRES=  35.19538
# SCALE FACTOR FOR LENGTHS: SCL=  10.00000
# SCALE FACTOR FOR SIGMAS: SCLSIG=   1.00000
# CHI^2=   2736.778 DOF=  2657 CHI^2/DOF=   1.03003
# RMS=      5.650 SDEV=      5.651 MEAN=    0.07054
#  P #       PARAMETER +-    SIGMA %error PARAMETER NAME
# P 1 =      3701.21737 +-   99.840   2.70 YZERO                              
# P 2 =        -1.83759 +-    0.049   2.69 SLOPE                              
# P 3 =         2.69440 +-    0.154   5.70 ANNUAL AMPLITUDE                   
# P 4 =         3.09257 +-    0.081   2.61 ANNUAL PHASE                       
#       T            LDETRENDED       SIG_OBS
     2015.00068        -0.11766         5.35868
     2015.00342        -6.69663         5.35564
     2015.00616        -7.83260         5.44901
     2015.00889        -8.54157         5.63474
     2015.01163        -5.76854         5.51701
     2015.01437        -8.17450         5.56674
     2015.01711        -6.54447         5.63068
     2015.01984        -1.15444         5.56674
     2015.02258         1.84959         5.73623
     2015.02532         0.14162         5.52817
     2015.02806        -3.19235         5.51092
     2015.03080         0.56568         5.51193
     2015.03353        -4.37529         5.56065
     2015.03627        -3.08426         5.60632
     2015.03901        -3.58323         5.61545
     2015.04175         1.19381         5.56268
     2015.04449         0.33084         5.59008
     2015.04722         4.59487         5.66518
     2015.04996        -0.36410         5.63778
     2015.05270        -1.56707         5.56166
     2015.05544        -1.10004         5.59921
     2015.05817        -0.35801         5.57689
     2015.06091        -0.30198         5.63068
     2015.06365         0.35405         5.65808
     2015.06639        -1.04391         5.57486
     2015.06913         0.87712         5.64387
     2015.07186        -5.48485         5.58906
     2015.07460         3.59218         5.66518
     2015.07734        -2.02679         5.66417
     2015.08008        -8.57576         5.59921
     2015.08282        -4.97273         5.62865
     2015.08555        -5.69470         5.63575
     2015.08829        -1.64767         5.62763
     2015.09103        11.62336         5.74637
     2015.09377         3.23740         5.76769
     2015.09650         1.68243         5.65605
     2015.09924         3.98746         5.70984
     2015.10198         7.42349         5.68244
     2015.10472         6.83652         5.59008
     2015.10746         5.57055         5.58298
     2015.11019        -1.29342         5.80016
     2015.11293        -4.85139         5.77987
     2015.11567        -6.03136         5.58703
     2015.11841        -2.14732         5.60327
     2015.12115         0.95971         5.66315
     2015.12388        -0.27826         5.60632
     2015.12662        -5.46923         5.59921
     2015.12936        -3.62220         5.57181
     2015.13210        -3.89017         5.61850
     2015.13483         0.60486         5.69969
     2015.13757         4.10089         5.75145
     2015.14031        -1.91408         5.60327
     2015.14305        -1.23405         5.62966
     2015.14579        -4.06501         5.64793
     2015.14852        -1.05598         5.53426
     2015.15126         1.71105         5.65097
     2015.15400         2.71308         5.60327
     2015.15674         4.43111         5.56268
     2015.15948         5.82114         5.63575
     2015.16221        -0.54883         5.53933
     2015.16495         2.72820         5.56065
     2015.16769         4.88123         5.61241
     2015.17043        -1.11073         5.68954
     2015.17316        -3.94470         5.77784
     2015.17590        -4.59267         5.75348
     2015.17864         1.54236         5.57486
     2015.18138         5.53539         5.62053
     2015.18412         5.57742         5.67635
     2015.18685         1.03945         5.65199
     2015.18959        -3.03852         5.56572
     2015.19233         2.11451         5.78799
     2015.19507        -1.15946         5.55557
     2015.19780         2.97558         5.60936
     2015.20054         1.43161         5.65503
     2015.20328        -2.07136         6.50451
     2015.20602        -1.93733         5.69258
     2015.20876         4.57470         5.60835
     2015.21149        -2.50727         5.60429
     2015.21423        -5.54024         5.75957
     2015.21697        -2.18721         5.61241
     2015.21971        -0.40518         5.59008
     2015.22245         0.31686         5.64691
     2015.22518         5.55889         5.63676
     2015.22792        -2.28208         5.70273
     2015.23066         1.89495         5.64793
     2015.23340         1.42998         5.71593
     2015.23613         8.64101         5.74637
     2015.23887        -3.12696         5.84178
     2015.24161         0.84907         5.85801
     2015.24435         1.72210         5.86512
     2015.24709         4.84213         5.74942
     2015.24982         2.00817         5.60023
     2015.25256        -0.21980         5.61850
     2015.25530         0.53023         5.59414
     2015.25804        -0.67074         5.62256
     2015.26078        12.96829         5.67127
     2015.26351         6.55032         5.63169
     2015.26625         9.74335         5.68345
     2015.26899         0.43138         5.61342
     2015.27173         4.65941         5.71897
     2015.27446        10.70145         5.75551
     2015.27720        13.20348         5.62459
     2015.27994         3.87551         6.96121
     2015.28268         7.16954         5.60835
     2015.28542         5.33157         5.70172
     2015.28815         1.64460         5.80321
     2015.29089         6.62863         5.67432
     2015.29363         6.25966         5.67939
     2015.29637         2.82769         5.56572
     2015.29911         6.56373         5.56166
     2015.30184        10.64376         5.58805
     2015.30458         9.04079         5.57486
     2015.30732         1.04782         5.57892
     2015.31006         5.57285         5.52208
     2015.31279         1.65688         5.51092
     2015.31553         6.15591         5.53426
     2015.31827        -4.54806         5.45916
     2015.32101         0.30497         5.55050
     2015.32375         1.42900         5.55151
     2015.32648         2.94504         5.71694
     2015.32922         1.16407         5.65808
     2015.33196         2.10010         5.60835
     2015.33470         2.65013         5.64793
     2015.33744         2.93516         5.56674
     2015.34017         3.99219         5.54948
     2015.34291         6.25622         5.56268
     2015.34565         4.78925         5.60327
     2015.34839        -0.77672         5.58906
     2015.35112         3.61232         5.61139
     2015.35386         5.20535         5.52716
     2015.35660         0.63638         5.53832
     2015.35934         9.11441         5.80828
     2015.36208         1.93644         5.74840
     2015.36481         3.77547         5.60023
     2015.36755         7.15450         5.64082
     2015.37029        14.14753         5.64488
     2015.37303        -1.84644         5.54238
     2015.37577         1.65559         5.59312
     2015.37850        -2.85637         5.74333
     2015.38124         4.05366         5.70781
     2015.38398        -2.19631         5.60530
     2015.38672         1.37372         5.53527
     2015.38945         7.85175         5.60226
     2015.39219         2.26078         5.54238
     2015.39493        -0.39819         5.61139
     2015.39767        -3.39816         5.62966
     2015.40041         6.64187         5.74130
     2015.40314         4.60191         5.75449
     2015.40588        -5.00706         5.61342
     2015.40862        -3.30903         5.68041
     2015.41136        -3.64800         5.62154
     2015.41410         1.98503         5.70172
     2015.41683         2.44606         5.64894
     2015.41957         3.55509         5.56268
     2015.42231         1.40812         6.59686
     2015.42505        -5.12085         5.80219
     2015.42778        -3.11182         5.55151
     2015.43052         1.46922         5.55151
     2015.43326        -3.70575         5.50178
     2015.43600         2.21028         5.54238
     2015.43874         5.91731         5.60429
     2015.44147         7.00834         5.87425
     2015.44421         0.74437         5.50178
     2015.44695        -0.32760         5.58196
     2015.44969         4.74543         5.54948
     2015.45243         1.83646         5.72608
     2015.45516         0.17050         5.80118
     2015.45790        -4.29147         5.64793
     2015.46064         3.73656         5.69055
     2015.46338         3.98459         5.61951
     2015.46611         6.45462         5.56572
     2015.46885         7.46565         5.61545
     2015.47159         1.58668         5.56877
     2015.47433        -1.72729         5.69360
     2015.47707        -5.00426         5.75043
     2015.47980         1.75977         5.72912
     2015.48254        -1.12719         5.65097
     2015.48528         0.32384         5.54441
     2015.48802         5.24387         5.51904
     2015.49076        -2.71710         5.52817
     2015.49349         1.33693         5.78596
     2015.49623         4.92596         5.80828
     2015.49897         6.90799         5.72100
     2015.50171         5.26702         5.54238
     2015.50444         2.94105         5.54745
     2015.50718         0.26409         5.54238
     2015.50992        -3.64288         5.68751
     2015.51266         7.23715         5.57892
     2015.51540         2.15218         5.55557
     2015.51813         5.49421         5.57993
     2015.52087         4.72624         5.57384
     2015.52361        -0.14673         5.57993
     2015.52635        -1.53970         5.56978
     2015.52908         8.01733         5.68345
     2015.53182         8.20736         5.54847
     2015.53456        12.29340         5.60936
     2015.53730         1.87543         5.68447
     2015.54004         0.86346         5.67432
     2015.54277        -3.58451         5.70070
     2015.54551         7.52752         5.68650
     2015.54825         3.36555         5.60124
     2015.55099         5.79658         5.63474
     2015.55373         7.47561         5.63778
     2015.55646         6.64964         5.82249
     2015.55920         3.75668         5.69664
     2015.56194         4.20871         5.64082
     2015.56468        12.91074         5.61951
     2015.56741         9.34277         5.81133
     2015.57015         2.94180         5.75348
     2015.57289        -0.21117         6.10971
     2015.57563         0.41686         5.68548
     2015.57837         5.21689         5.65402
     2015.58110         6.12692         5.57486
     2015.58384         7.49796         5.59109
     2015.58658         2.46199         5.64996
     2015.58932         2.25602         5.78393
     2015.59206         3.32505         5.76363
     2015.59479        10.50408         5.71593
     2015.59753        14.68511         5.71897
     2015.60027        12.40614         5.82046
     2015.60301         3.43517         5.79712
     2015.60574         7.16420         5.70070
     2015.60848         6.29423         5.70476
     2015.61122         8.76927         5.65706
     2015.61396         8.77230         5.63068
     2015.61670         7.16133         5.57080
     2015.61943         5.69036         5.60936
     2015.62217        10.49039         5.52716
     2015.62491        16.64942         6.02649
     2015.62761         5.68638         5.61241
     2015.63039         9.65548         5.70679
     2015.63312         8.63951         5.50584
     2015.63586         8.56055         5.52716
     2015.63860        12.97258         5.58298
     2015.64134         3.81761         5.48250
     2015.64407         4.94564         5.54035
     2015.64681         2.94267         5.64996
     2015.64955         2.90770         5.53426
     2015.65229         6.09773         5.62662
     2015.65503         8.47476         5.53426
     2015.65776        10.54079         5.58095
     2015.66050        10.03782         5.75449
     2015.66324        12.92586         5.55760
     2015.66598         7.51489         5.67026
     2015.66872        11.78492         5.64387
     2015.67145        13.50595         5.54847
     2015.67419        14.33198         5.50483
     2015.67693        12.81801         5.64590
     2015.67967         7.89504         5.54238
     2015.68240         8.56507         5.50077
     2015.68514         3.52410         5.52919
     2015.68788         5.93014         5.50178
     2015.69062         8.22817         5.50584
     2015.69336         4.44720         5.70984
     2015.69609         8.81123         5.54238
     2015.69883         7.68026         5.53832
     2015.70157        10.21329         5.56471
     2015.70431        17.02432         5.61038
     2015.70705        13.00835         5.61545
     2015.70978        13.64838         5.54847
     2015.71252        -0.65459         5.56268
     2015.71526         7.05745         5.53730
     2015.71800        12.79448         5.51701
     2015.72073        11.57451         5.50584
     2015.72347         7.12854         5.53426
     2015.72621         6.48757         5.53629
     2015.72895         1.32660         5.55456
     2015.73169         7.61363         5.54441
     2015.73442         7.85666         5.51904
     2015.73716         4.75969         5.54339
     2015.73990         8.20373         5.65402
     2015.74264         5.88376         5.67635
     2015.74538         9.96879         5.78393
     2015.74811        13.04782         5.82046
     2015.75085         6.26385         5.59312
     2015.75359         6.34888         5.56471
     2015.75633         8.40091         5.51701
     2015.75906         6.12194         5.61241
     2015.76180         0.09797         5.59312
     2015.76454         6.20000         5.60632
     2015.76728         5.70104         5.55760
     2015.77002         0.00307         5.47235
     2015.77275        12.17210         5.55354
     2015.77549         9.24713         5.63676
     2015.77823        13.05016         5.53426
     2015.78097         9.39619         5.49874
     2015.78371         9.80322         5.47337
     2015.78644         8.13825         5.48047
     2015.78918         4.10128         5.51396
     2015.79192        11.63332         5.52513
     2015.79466        12.70835         5.52513
     2015.79739        15.57538         5.59617
     2015.80013        12.93641         5.70984
     2015.80287        14.02744         5.58399
     2015.80561         8.87447         5.50584
     2015.80835         6.24250         5.53730
     2015.81108         0.77553         5.52208
     2015.81382        -0.60644         5.51396
     2015.81656         1.90859         5.61342
     2015.81930        10.08863         5.54035
     2015.82203         7.20566         5.60530
     2015.82477        17.60969         5.60327
     2015.82751        11.27772         5.62459
     2015.83025        15.17375         5.57993
     2015.83299         8.58078         5.61748
     2015.83572        10.92481         5.66315
     2015.83846         9.97684         5.76058
     2015.84120         7.11287         5.71288
     2015.84394         4.50791         5.73623
     2015.84668         3.75594         5.72912
     2015.84941        10.39597         5.72811
     2015.85215        11.15000         5.61850
     2015.85489        11.12803         5.65706
     2015.85763         6.82706         5.62053
     2015.86036         5.23309         5.72709
     2015.86310         8.69112         5.66518
     2015.86584        11.32115         5.63676
     2015.86858         2.31519         5.65808
     2015.87132         6.50122         5.67838
     2015.87405         8.52425         5.64488
     2015.87679         2.58128         5.70578
     2015.87953        13.14931         5.62662
     2015.88227         8.45134         5.62560
     2015.88501         3.37937         5.67229
     2015.88774         1.27040         5.66620
     2015.89048         8.69143         5.70476
     2015.89322         6.99546         5.68244
     2015.89596         5.32450         5.69055
     2015.89869         7.18753         5.66924
     2015.90143         5.51956         5.64488
     2015.90417         1.51459         5.68650
     2015.90691         6.87762         5.70375
     2015.90965         4.11765         5.67026
     2015.91238         5.95668         5.71187
     2015.91512         3.24771         5.72709
     2015.91786        -0.78426         5.72303
     2015.92060         5.45578         5.70375
     2015.92334         4.59281         5.70375
     2015.92607         4.61184         5.70070
     2015.92881        -5.22913         5.78291
     2015.93155         1.90790         5.83873
     2015.93429         6.58293         5.81742
     2015.93702        11.56996         5.73927
     2015.93976         9.90099         5.85192
     2015.94250         5.60702         5.83670
     2015.94524         4.23405         5.76058
     2015.94798        10.76409         5.69867
     2015.95071        15.35612         6.00416
     2015.95345         6.15815         5.68244
     2015.95619         8.63018         5.72608
     2015.95893        -0.26979         5.86410
     2015.96167         5.00424         5.76870
     2015.96440         3.94127         5.62763
     2015.96714         7.91630         5.61951
     2015.96988         8.38033         5.65199
     2015.97535        11.46840         5.63575
     2015.97809         6.57943         5.54441
     2015.98083         4.49246         5.48554
     2015.98357        -2.16051         5.56268
     2015.98631        -5.77948         5.56369
     2015.98904        -1.93845         5.58805
     2015.99178         2.77958         5.52614
     2015.99452         1.93261         5.46322
     2015.99726        -0.87936         5.52208
     2016.00000        -2.86732         5.53324
     2016.00273        -1.87929         5.53324
     2016.00547         2.87574         5.50280
     2016.00821         5.75977         5.48047
     2016.01095         3.45380         5.52411
     2016.01368         3.62883         5.65199
     2016.01642         8.70986         5.81133
     2016.01916         6.06389         5.94834
     2016.02190         3.17492         5.86106
     2016.02464         3.10096         5.59109
     2016.02737        -3.34001         5.63474
     2016.03011         1.49802         5.61850
     2016.03285         1.42405         5.62662
     2016.03559         4.72308         5.58906
     2016.03833         7.07911         5.68650
     2016.04106         3.68914         5.59312
     2016.04380         3.80017         5.43378
     2016.04654        19.63920         5.88846
     2016.04928        12.37923         6.43955
     2016.05201         6.87527         5.56471
     2016.05475         2.41530         5.46829
     2016.05749        -3.05667         5.47743
     2016.06023         3.98536         5.49366
     2016.06297         7.00639         5.49062
     2016.06570         4.21242         5.62154
     2016.06844        -0.12355         5.59515
     2016.07118        -3.72252         5.61038
     2016.07392         1.02251         5.63879
     2016.07666         9.47255         5.73318
     2016.07939         4.37358         6.49537
     2016.08213         6.42861         5.73318
     2016.08487         8.40264         5.62053
     2016.08761         0.32967         5.58298
     2016.09034         1.67070         5.64894
     2016.09308         6.62673         5.57384
     2016.09582        -4.72424         5.56471
     2016.09856        -1.10521         5.55151
     2016.10130        -3.31018         5.52817
     2016.10403        -4.06214         5.58196
     2016.10677        -3.98511         5.65808
     2016.10951        -1.77808         5.61748
     2016.11225        -0.10505         5.64691
     2016.11498        -1.47602         5.59414
     2016.11772         2.07101         5.63575
     2016.12046         4.31604         5.69461
     2016.12320         5.66007         5.67432
     2016.12594         2.33610         5.65909
     2016.12867         2.59214         5.60835
     2016.13141        14.83117         5.63169
     2016.13415        13.72420         5.62459
     2016.13689         4.59523         5.58602
     2016.13963         3.23326         5.56674
     2016.14236        -3.13671         5.56775
     2016.14510        -7.40268         5.57181
     2016.14784        -6.74765         5.56369
     2016.15058        -1.22762         5.56471
     2016.15331        -1.99358         5.73014
     2016.15605        -1.94955         5.59617
     2016.15879        -3.82252         5.69766
     2016.16153        -2.61049         5.70172
     2016.16427        -1.09546         5.70781
     2016.16700         0.85457         5.60226
     2016.16974        -0.25740         5.56166
     2016.17248        -1.78537         5.70679
     2016.17522         3.97266         5.60327
     2016.17796        11.21569         5.67432
     2016.18069         8.22273         5.76972
     2016.18343         3.91776         5.79407
     2016.18617        -0.70021         5.64894
     2016.18891         1.60082         5.54948
     2016.19164         4.18085         5.51904
     2016.19438         4.69088         5.55760
     2016.19712         5.51891         5.51904
     2016.19986        10.09394         5.62966
     2016.20260        -2.79003         5.70070
     2016.20533        -1.85399         5.78190
     2016.20807        -1.17096         5.79509
     2016.21081        -3.25393         5.64488
     2016.21355        -3.87290         5.65909
     2016.21629        -3.65287         5.52107
     2016.21902         3.79216         5.54948
     2016.22176         9.17519         5.59921
     2016.22450         0.85022         5.56369
     2016.22724         0.26225         5.53527
     2016.22997         3.01628         5.57892
     2016.23271        -3.21668         5.55963
     2016.23545         1.08935         5.59515
     2016.23819         6.72738         5.60835
     2016.24093        10.63741         5.63372
     2016.24366         3.36144         5.54948
     2016.24640         3.55147         5.57486
     2016.24914         4.54950         5.58703
     2016.25188         5.12553         5.62560
     2016.25462         5.08456         5.58298
     2016.25735         0.65760         5.65909
     2016.26009        -2.49037         5.69766
     2016.26283        -7.16734         5.58196
     2016.26557         2.29569         5.65097
     2016.26830         1.14072         5.61951
     2016.27104         2.11175         5.62459
     2016.27378        12.43378         5.72608
     2016.27652        -0.40919         5.64996
     2016.27926         6.33684         5.65605
     2016.28199         3.45287         5.63778
     2016.28473         3.47391         5.61342
     2016.28747         1.41194         5.62154
     2016.29021        -5.44803         5.60124
     2016.29295        -5.47800         5.57486
     2016.29568         1.32303         5.58805
     2016.29842         4.06906         5.66721
     2016.30116         2.92509         5.69258
     2016.30390        -8.91388         5.66315
     2016.30663         0.11115         5.65503
     2016.30937         0.99519         5.58703
     2016.31211         6.61422         5.64793
     2016.31485        10.36525         5.69360
     2016.31759         2.06428         5.62865
     2016.32032         0.53531         5.57080
     2016.32306         0.07134         5.61850
     2016.32580         0.26637         5.55760
     2016.32854         1.72440         5.61647
     2016.33128        -2.88857         5.57689
     2016.33401         1.67246         5.70375
     2016.33675        -1.88950         5.61444
     2016.33949        -3.28947         5.59718
     2016.34223         1.91356         5.70984
     2016.34496        -2.53741         5.77987
     2016.34770         7.27762         5.75551
     2016.35044         6.54965         5.74840
     2016.35318         4.02668         5.88846
     2016.35592        -1.17829         5.59109
     2016.35865        -9.81226         5.56572
     2016.36139        -4.88922         5.57689
     2016.36413        -0.70219         5.62560
     2016.36687         0.63984         5.62256
     2016.36961        12.53087         5.64488
     2016.37234         7.16090         5.60733
     2016.37508        -0.98807         5.57790
     2016.37782        -1.02904         5.58095
     2016.38056         5.97199         5.69969
     2016.38329        10.22402         5.64387
     2016.38603         4.22305         5.66518
     2016.38877         5.62109         5.56268
     2016.39151         0.56012         5.61545
     2016.39425        -1.98585         5.54035
     2016.39698        11.43118         5.71897
     2016.39972         0.69021         5.62357
     2016.40246        -1.06376         5.65605
     2016.40520         2.16627         5.52310
     2016.40794        -3.40470         5.52208
     2016.41067        -8.23567         5.64285
     2016.41341        -7.64063         5.54339
     2016.41615        -4.08860         5.61951
     2016.41889        -2.32957         5.59312
     2016.42162         2.32846         5.63474
     2016.42436        -4.41851         5.56572
     2016.42710        -5.19848         5.63271
     2016.42984        -1.82945         5.61545
     2016.43193        -0.48660         7.62800
     2016.47450        34.63662         9.30158
     2016.47638         2.59108         5.57790
     2016.47912         4.56611         5.74333
     2016.48186        -1.22486         5.56268
     2016.48459        -3.33083         5.54745
     2016.48733        -4.58280         5.60429
     2016.49007         0.03724         5.52817
     2016.49281         0.36627         5.65097
     2016.49555         2.65530         5.69563
     2016.49828        -2.58067         5.54745
     2016.50102         0.49736         5.61342
     2016.50376         2.91339         5.72202
     2016.50650        -2.85958         5.72811
     2016.50924        -1.78055         5.58196
     2016.51197        -3.51752         5.57993
     2016.51471        -3.15349         5.55151
     2016.51745        -3.01345         5.71390
     2016.52019        -8.30842         5.56978
     2016.52292         6.42961         5.63778
     2016.52566         1.90364         5.57993
     2016.52840        -4.67933         5.52817
     2016.53114        -1.33930         5.56065
     2016.53388        -2.12127         5.55050
     2016.53661        -3.02624         5.57486
     2016.53935         6.78679         5.59515
     2016.54209         0.47283         5.55557
     2016.54483         3.31886         5.62459
     2016.54757        -0.23211         5.64590
     2016.55030         1.07292         5.64387
     2016.55304         3.62495         5.52005
     2016.55578         8.71398         5.77276
     2016.55852         2.19401         5.51904
     2016.56125         2.43004         5.53426
     2016.56399        -0.20893         5.54238
     2016.56673         0.50610         5.64488
     2016.56947        -3.51786         5.67229
     2016.57221         6.60217         5.68345
     2016.57494         1.90820         5.70882
     2016.57768         6.92123         5.64488
     2016.58042        13.04926         5.73115
     2016.58316         3.85729         5.55354
     2016.58590         0.34632         5.71390
     2016.58863         5.72835         5.61038
     2016.59137        -5.83162         5.53324
     2016.59411         4.79742         5.53223
     2016.59685         4.54845         5.61850
     2016.59958         1.32248         5.85294
     2016.60232         3.48051         5.52919
     2016.60506         4.17754         5.54035
     2016.60780         5.56457         5.55456
     2016.61054         2.08560         5.57486
     2016.61327        -3.83637         5.56877
     2016.61601        -0.26934         5.56674
     2016.61875        -3.71331         5.57181
     2016.62149         4.89773         5.60835
     2016.62423         2.51076         5.63068
     2016.62696         2.54479         5.50787
     2016.62970        -3.93818         5.58399
     2016.63244        -7.07715         5.69969
     2016.63518         3.65188         5.56166
     2016.63791         7.62291         5.55253
     2016.64065        12.37794         5.57080
     2016.64339         4.00097         5.58906
     2016.64613         4.54001         5.55354
     2016.64887         1.60404         5.53730
     2016.65160         4.06007         5.64793
     2016.65434         1.13310         5.48453
     2016.65708         5.25313         5.51193
     2016.65982        -4.25684         5.63981
     2016.66256        -6.04581         5.53730
     2016.66529         1.48722         5.55253
     2016.66803         4.75825         5.60226
     2016.67077         5.87528         5.72608
     2016.67351         8.79132         5.52716
     2016.67624        10.00335         5.50787
     2016.67898         7.63738         5.59515
     2016.68172         5.10641         5.47743
     2016.68446         8.47344         5.73724
     2016.68720         2.42147         5.86613
     2016.68993         2.26550         5.58399
     2016.69267        -1.16047         5.49163
     2016.69541        -0.62944         5.53223
     2016.69815         7.68160         5.56978
     2016.70089        10.42863         5.55456
     2016.70362         7.29066         5.76058
     2016.70636        -0.37531         5.83264
     2016.70910        -0.51728         5.83467
     2016.71184         5.61875         5.55963
     2016.71457         9.01678         5.60023
     2016.71731         8.96981         5.57993
     2016.72005         9.15984         5.55050
     2016.72279        12.22588         5.49468
     2016.72553        10.66991         5.67432
     2016.72826         8.66394         5.74028
     2016.73100         5.82797         5.55760
     2016.73374         4.37900         5.48453
     2016.73648        -0.74697         5.48859
     2016.73921         2.25506         5.45408
     2016.74195        -1.73891         5.47641
     2016.74469         2.28312         5.50990
     2016.74743         8.70415         5.53933
     2016.75017        12.21319         5.67635
     2016.75290         6.33922         5.70781
     2016.75564         9.41425         5.54136
     2016.75838         8.99328         5.48250
     2016.76112         1.95131         5.49366
     2016.76386         2.82534         5.50787
     2016.76659        -2.38563         5.46829
     2016.76933         0.97740         5.49772
     2016.77207         0.28743         5.53020
     2016.77481         3.89047         5.48554
     2016.77754         2.93550         5.55151
     2016.78028        -0.64847         5.53933
     2016.78302        -2.37344         5.54847
     2016.78576         5.67059         5.58399
     2016.78850         8.03962         5.52817
     2016.79123         2.06765         5.55862
     2016.79397        12.66568         5.47946
     2016.79671         5.02371         5.48554
     2016.79945        -2.07326         5.52208
     2016.80219        -1.97422         5.48148
     2016.80492         0.99881         5.52310
     2016.80766         1.74684         5.52310
     2016.81040         0.68887         5.45916
     2016.81314        -4.62610         5.56471
     2016.81587        -5.02607         5.50584
     2016.81861        -4.53404         5.44799
     2016.82135        -4.05701         5.50584
     2016.82409         5.55302         5.54745
     2016.82683        -1.36294         5.51295
     2016.82956        -2.21691         5.51701
     2016.83230         5.20012         5.55050
     2016.83504        -2.72185         5.44393
     2016.83778        -3.79782         5.43987
     2016.84052        -7.43779         5.49874
     2016.84325        -8.02176         5.46017
     2016.84599        -0.39673         5.42770
     2016.84873        -4.63570         5.46626
     2016.85147        -2.67367         5.43886
     2016.85420        -7.33763         5.45408
     2016.85694        -6.12860         5.50889
     2016.85968        -0.76657         5.61647
     2016.86242        -2.57254         5.46829
     2016.86516         4.54849         5.45611
     2016.86789         3.99952         5.48453
     2016.87063        -0.79645         5.58805
     2016.87337         7.51458         5.57790
     2016.87611         6.29961         5.48757
     2016.87805         9.02318         8.56273
     2016.88158       -11.82732         5.45002
     2016.88432        -4.46929         5.53223
     2016.88706        -3.22626         5.50178
     2016.88980         4.24977         5.54339
     2016.89253         1.08380         5.46525
     2016.89527        -1.57017         5.51295
     2016.89801        -2.55914         5.48148
     2016.90075        -6.97911         5.45205
     2016.90349        -0.21808         5.57486
     2016.90622         4.70796         5.63879
     2016.90896         9.71099         5.45408
     2016.91170         1.85102         5.47641
     2016.91444        -1.56995         5.47540
     2016.91718        -0.92592         5.54441
     2016.91991        -8.58789         5.55963
     2016.92265        -1.57486         5.43784
     2016.92539        -3.08483         5.44799
     2016.92813        -4.17480         5.45611
     2016.93086        -8.77276         5.44596
     2016.93360        -5.35073         5.38913
     2016.93634        -5.52370         5.52716
     2016.93908       -11.42467         5.55760
     2016.94182        -2.94364         5.54745
     2016.94455        -4.57961         5.44799
     2016.94729         4.76042         5.49874
     2016.95003        -6.98655         5.52513
     2016.95277        -4.83752         5.52716
     2016.95551        -0.98849         5.49366
     2016.95824        -0.46445         5.48148
     2016.96098        -2.35742         5.44901
     2016.96372       -11.73339         5.42364
     2016.96646        -9.24836         5.43886
     2016.97741         1.35176         5.43987
     2016.98015         3.22979         5.40029
     2016.98288         3.93483         5.51904
     2016.98562         1.28886         5.41247
     2016.98836        -4.08511         5.43277
     2016.99110         3.37592         5.44901
     2016.99384        -2.69905         5.46017
     2016.99657         2.45998         5.45104
     2016.99931         2.64301         5.38811
     2017.00205         2.25904         5.40740
     2017.00479         0.14007         5.47235
     2017.00752        -9.06089         5.43378
     2017.01026        -5.27786         5.43784
     2017.01300        -3.93183         5.43378
     2017.01574        -5.48880         5.44698
     2017.01848        -0.90677         5.50280
     2017.02121         0.14126         5.46931
     2017.02395        -1.18671         5.54847
     2017.02669         1.47232         5.64793
     2017.02943         6.80335         5.57790
     2017.03216         1.78138         5.50178
     2017.03490        -3.31358         5.47946
     2017.03764        -6.85655         5.52411
     2017.04038        -6.36652         5.52208
     2017.04312        -7.65249         5.51599
     2017.04585        -3.44646         5.65402
     2017.04859         0.63257         5.65097
     2017.05133         7.55060         5.45814
     2017.05407         8.79063         5.46728
     2017.05681         8.11266         5.52310
     2017.05954        -4.41030         5.50889
     2017.06228         0.91673         5.46728
     2017.06502        -3.86924         5.42770
     2017.06776        -4.26521         5.42770
     2017.07032        -7.30750         5.78190
     2017.07700        -1.85123        11.07359
     2017.07871       -13.46009         5.40943
     2017.08145       -12.71506         5.46220
     2017.08418        -9.89203         5.45510
     2017.08692        -5.54699         5.47641
     2017.08966        -3.03896         5.53020
     2017.09240        -6.57693         5.53324
     2017.09514         0.28110         5.51904
     2017.09787        -5.05587         5.56369
     2017.10061         1.37116         5.61139
     2017.10335        -1.66481         5.71897
     2017.10609        -2.97878         5.60327
     2017.10882        -3.44775         5.51498
     2017.11156        -0.50571         5.50077
     2017.11430        -9.67068         5.49874
     2017.11704       -16.84465         5.49366
     2017.11978       -12.63062         5.49874
     2017.12251       -14.28259         5.47743
     2017.12525        -5.36556         5.49163
     2017.12799        -3.34253         5.53020
     2017.13073        -4.51850         5.53223
     2017.13347        -0.68747         5.48453
     2017.13620        -3.66044         5.47438
     2017.13894        -3.09940         5.46931
     2017.14168        -7.81737         5.49569
     2017.14442       -13.86034         5.44799
     2017.14715       -11.28531         5.48148
     2017.14989        -6.18528         5.45510
     2017.15263        -3.67025         5.50381
     2017.15537        -2.68822         5.44799
     2017.15811        -4.21219         5.63372
     2017.16084        -7.47016         5.49265
     2017.16358       -16.93012         5.50686
     2017.16632       -10.11009         5.47337
     2017.16906        -8.91106         5.46017
     2017.17180        -2.07603         5.42668
     2017.17453        -4.38100         5.43683
     2017.17727        -8.03797         5.69867
     2017.18001        -9.00894         5.46626
     2017.18275        -7.81591         5.41552
     2017.18548        -8.37588         5.39522
     2017.18822       -15.41085         5.43683
     2017.19096       -16.63481         5.50381
     2017.19370       -10.64278         5.49468
     2017.19644        -7.71675         5.54644
     2017.19917        -2.69372         5.47844
     2017.20191        -4.28769         5.44495
     2017.20465        -8.02466         5.62154
     2017.20739        -7.99463         5.47235
     2017.21013        -4.33660         5.53426
     2017.21286        -3.49057         5.53730
     2017.21560        -1.07553         5.46322
     2017.21834        -2.37450         5.47641
     2017.22108         2.23653         5.57486
     2017.22381        -4.12144         5.60124
     2017.22655        -5.05741         5.59008
     2017.22929        -4.03638         5.45002
     2017.23203        -0.09835         5.45510
     2017.23477        -0.37532         5.49569
     2017.23750       -11.97629         5.41349
     2017.24024        -9.51726         5.44799
     2017.24298        -5.80022         5.47946
     2017.24572        -1.51319         5.46017
     2017.24846        -3.36516         5.43175
     2017.25119        -3.69913         5.50889
     2017.25393        -3.76710         5.59617
     2017.25667        -7.01307         5.47641
     2017.25941       -12.67704         5.44698
     2017.26214        -7.21801         5.43886
     2017.26488         2.14702         5.53223
     2017.26762        -2.89294         5.46829
     2017.27036         0.65309         5.48453
     2017.27310        -7.10088         5.47337
     2017.27583        -6.70585         5.44596
     2017.27857       -11.76982         5.54035
     2017.28131        -8.54579         5.58906
     2017.28405       -10.77876         5.50178
     2017.28679        -6.96073         5.51701
     2017.28952       -10.67570         5.44596
     2017.29226        -4.92866         5.50483
     2017.29500       -12.13663         5.46423
     2017.29774        -7.93760         5.53223
     2017.30047        -9.31757         5.45408
     2017.30321       -11.94154         5.46626
     2017.30595       -11.70551         5.47844
     2017.30869       -10.97048         5.53730
     2017.31143        -7.03345         5.46829
     2017.31416        -9.68642         5.45814
     2017.31690        -5.00339         5.53629
     2017.31964        -3.36035         5.69664
     2017.32238        -9.75732         5.65199
     2017.32512       -15.10629         5.52513
     2017.32785       -11.35726         5.44292
     2017.33059       -11.95723         5.55963
     2017.33333        -8.13220         5.54644
     2017.33607        -7.96117         5.52817
     2017.33880       -11.72614         5.51092
     2017.34154        -9.49211         5.54542
     2017.34428        -8.13607         5.52310
     2017.34702        -6.51904         5.61951
     2017.34976        -5.87501         5.47844
     2017.35249       -10.19498         5.58805
     2017.35523       -12.44395         5.53223
     2017.35797       -12.33192         5.46931
     2017.36071        -8.40189         5.57790
     2017.36344        -7.87986         5.52310
     2017.36618       -13.35383         5.47540
     2017.36892        -7.21180         5.48351
     2017.37166        -7.32476         5.49062
     2017.37440        -5.11273         5.51802
     2017.37713       -12.41570         5.61342
     2017.37987       -15.93467         5.59109
     2017.38261       -14.36464         5.49366
     2017.38535       -14.47861         5.51802
     2017.38809       -12.33658         5.50990
     2017.39082       -11.05255         5.47134
     2017.39356        -5.20452         5.54847
     2017.39630        -3.53548         5.49671
     2017.39904        -8.97045         5.52919
     2017.40177       -13.61842         5.50584
     2017.40451       -10.01639         5.68852
     2017.40725       -15.22436         5.52817
     2017.40999       -11.71333         5.48859
     2017.41273       -10.08130         5.53122
     2017.41546        -8.36627         5.52716
     2017.41820        -6.68024         5.69563
     2017.42094       -10.58121         5.54136
     2017.42368        -6.16417         5.62154
     2017.42642        -1.82814         5.80118
     2017.42915        -6.47111         5.56572
     2017.43189        -7.19108         5.87933
     2017.43463        -6.11105         5.59109
     2017.43737        -5.88902         5.57283
     2017.44010        -5.58199         5.52005
     2017.44284        -1.40096         5.59211
     2017.44558        -0.33693         5.61241
     2017.44832       -10.88089         5.53020
     2017.45106         1.60414         5.64082
     2017.45379        -4.56883         5.73623
     2017.45653        -6.96680         5.64285
     2017.45927        -3.19777         5.53223
     2017.46201        -7.11774         5.53324
     2017.46475       -10.50371         5.53832
     2017.46748        -4.15668         5.60936
     2017.47022        -9.11365         5.82858
     2017.47296        -8.20062         5.68650
     2017.47570       -11.03558         5.56572
     2017.47843        -9.71155         5.48554
     2017.48117        -8.92452         5.50483
     2017.48391        -5.08549         5.59414
     2017.48665         2.09554         5.95544
     2017.48939        -0.13543         5.62053
     2017.49212       -11.96440         5.58703
     2017.49486        -9.73737         5.59008
     2017.49760       -11.20534         5.54238
     2017.50034        -1.21230         5.56065
     2017.50308        -7.26227         5.52614
     2017.50581        -2.86824         5.67330
     2017.50855        -8.95521         5.58095
     2017.51129        -5.54518         5.86613
     2017.51403        -2.44615         5.68751
     2017.51676        -8.12212         5.60835
     2017.51950        -8.87609         5.59312
     2017.52224         1.19194         5.59414
     2017.52498         1.56997         5.57689
     2017.52772        -6.08699         5.74130
     2017.53045        -2.32296         5.57993
     2017.53319        -4.60193         5.66214
     2017.53593        -6.96490         5.70273
     2017.53867        -5.63587         5.68852
     2017.54141         6.54416         5.65706
     2017.54414         1.35119         5.68548
     2017.54688         4.59722         5.79306
     2017.54962        -7.12375         5.96153
     2017.55236        -3.07371         5.53933
     2017.55509        -1.35768         5.60733
     2017.55783         2.58635         5.61038
     2017.56057        -1.76162         5.55557
     2017.56331        -2.02659         5.53933
     2017.56605        -6.38056         5.57283
     2017.56878       -11.78053         5.98995
     2017.57152        -3.28150         5.56877
     2017.57426        -3.30647         5.61545
     2017.57700        -3.54944         5.65605
     2017.57974        -6.16340         5.56471
     2017.58247        -3.80137         5.66315
     2017.58521        -5.34834         5.64996
     2017.58795        -0.95731         5.79204
     2017.59069        -0.97728         5.72100
     2017.59342        -6.14225         5.55659
     2017.59616        -4.09122         5.67736
     2017.59890        -1.56119         5.56369
     2017.60164         0.40284         5.57587
     2017.60438        -9.81312         5.64996
     2017.60711        -7.11209         5.63474
     2017.60985       -11.84406         5.66518
     2017.61259        -3.47403         5.62865
     2017.61533        -2.08700         5.63372
     2017.61807         8.07903         5.73826
     2017.62080        -1.11394         5.63575
     2017.62354        -4.81891         5.67127
     2017.62628        -3.58988         5.60530
     2017.62902        -4.80784         5.78190
     2017.63175        -4.48081         5.59211
     2017.63449         1.05822         5.53730
     2017.63723        -3.82875         5.59414
     2017.63997        -3.01972         5.58703
     2017.64271        -2.92269         5.56674
     2017.64544        -1.33566         5.59109
     2017.64818         8.98337         5.87527
     2017.65092         0.11840         5.57080
     2017.65366        -4.50757         5.54644
     2017.65639       -10.33153         5.55659
     2017.65913         1.53150         5.59617
     2017.66187        -1.05947         5.57181
     2017.66461         7.15156         5.77073
     2017.66735        -2.68741         5.67432
     2017.67008        -1.76138         5.54339
     2017.67282        -1.12535         5.69157
     2017.67556        -0.35532         5.53730
     2017.67830        -1.49929         5.54136
     2017.68104        -4.21225         5.51599
     2017.68377        -1.63022         5.71694
     2017.68651         3.76381         5.68650
     2017.68925         8.56584         5.53223
     2017.69199         2.25387         5.61038
     2017.69472         0.90090         5.50178
     2017.69746         4.19393         5.73318
     2017.70020         9.18896         5.72912
     2017.70294         6.56899         5.92906
     2017.70568         1.26602         5.70984
     2017.70841        -1.29594         5.49062
     2017.71115        -5.91591         5.55050
     2017.71389        -0.91288         5.51193
     2017.71663         5.29115         5.52411
     2017.71937         9.87318         5.55253
     2017.72210        -1.74779         5.50077
     2017.72484        -8.88676         5.48453
     2017.72758        -4.22973         5.48554
     2017.73032         5.02930         5.51092
     2017.73305         2.18634         5.53730
     2017.73579        -4.06563         5.53426
     2017.73853        -7.29960         5.48859
     2017.74127        -8.87157         5.46931
     2017.74401        -2.25154         5.55354
     2017.74674         2.60749         5.64387
     2017.74948         2.80852         5.59921
     2017.75222        -2.91545         5.52513
     2017.75496        -5.51442         5.45611
     2017.75770        -6.49039         5.70984
     2017.76043        -4.60135         5.51498
     2017.76317         0.32468         5.54745
     2017.76591         6.07871         5.56572
     2017.76865        -0.30626         5.49062
     2017.77138        -5.93723         5.48859
     2017.77412        -3.66520         5.54745
     2017.77686        -3.45117         5.50584
     2017.77960         5.49786         5.66823
     2017.78234        -5.94111         5.52614
     2017.78507        -8.11907         5.52107
     2017.78781        -7.43304         5.51802
     2017.79055        -9.36301         5.50381
     2017.79329         0.47602         5.52919
     2017.79603         3.79405         5.52614
     2017.79876         7.90708         5.59515
     2017.80150         5.06611         5.63676
     2017.80424        -2.18586         5.51904
     2017.80698        -3.94983         5.52614
     2017.80971        -3.25580         5.52411
     2017.81245        -5.52176         5.48554
     2017.81519        -5.60473         5.51701
     2017.81793        -7.06670         5.56471
     2017.82067        -8.28167         5.65503
     2017.82340        -5.77364         5.53122
     2017.82614        -3.39161         5.52716
     2017.82888        -5.22458         5.50990
     2017.83162         0.25245         5.53426
     2017.83436         0.01148         5.60835
     2017.83709        -0.24348         5.69766
     2017.83983        -1.64045         5.53933
     2017.84257        -4.33342         5.52919
     2017.84531        -2.38339         5.52513
     2017.84804        -4.97736         5.62256
     2017.85078        -2.41033         5.60327
     2017.85352        -8.97130         5.55760
     2017.85626         0.00773         5.69157
     2017.85900         1.24976         5.64488
     2017.86173        -1.27021         5.64691
     2017.86447        -4.09517         5.57486
     2017.86721        -2.38414         5.54948
     2017.86995        -0.22811         5.56978
     2017.87269        -3.92908         5.50787
     2017.87542         1.56195         5.49874
     2017.87816         0.42398         5.58399
     2017.88090        -4.15799         5.53730
     2017.88364        -4.95996         5.49062
     2017.88637         3.76207         5.55151
     2017.88911        -2.53389         5.47540
     2017.89185        -5.67686         5.50889
     2017.89459        -6.40283         5.53629
     2017.89733         4.60520         5.57080
     2017.90006        -2.66677         5.52716
     2017.90280        -0.42674         5.53020
     2017.90554         3.20829         5.53730
     2017.90828        -4.08468         5.49569
     2017.91102         1.09935         5.64082
     2017.91375        -5.65761         5.58602
     2017.91649         0.86042         5.49772
     2017.91923         1.67245         5.47743
     2017.92197         1.55948         5.52005
     2017.92470        -2.38949         5.56775
     2017.92744       -11.18846         5.48859
     2017.93018       -12.11943         5.54136
     2017.93292        -8.28440         5.50381
     2017.93566        -6.25037         5.54339
     2017.93839        -1.94634         5.53933
     2017.94113        -7.45930         5.51092
     2017.94387        -5.43827         5.50178
     2017.94661        -3.79224         5.52614
     2017.94935        -4.47421         5.53832
     2017.95208        -1.85618         5.65402
     2017.95482        -4.39915         5.49874
     2017.95756        -0.99212         5.47134
     2017.96030         3.87891         5.47235
     2017.96303         1.50194         5.59109
     2017.96577         1.73698         5.69258
     2017.96851         1.80601         5.56268
     2017.97125        -3.42896         5.49772
     2017.97399        -1.63593         5.47743
     2017.97672        -1.73390         5.45408
     2017.97946        -8.73487         5.48960
     2017.98220        -4.03684         5.50990
     2017.98494        -4.85781         5.53223
     2017.98767       -11.34878         5.55557
     2017.99041        -7.36975         5.56065
     2017.99315        -8.62271         5.50381
     2017.99589         0.74832         5.56471
     2017.99863        -4.81265         5.55862
     2018.00136        -9.84562         5.48757
     2018.00410       -12.59759         5.53426
     2018.00684        -8.01956         5.51295
     2018.00958        -7.32553         5.42871
     2018.01232        -5.21950         5.56674
     2018.01505        -2.58547         5.54339
     2018.01779         1.00557         5.62154
     2018.02053        -5.84140         5.48960
     2018.02327         1.05563         5.48960
     2018.02600        -1.06434         5.48554
     2018.02874        -3.12131         5.50178
     2018.03148        -4.80828         5.56166
     2018.03422        -7.78725         5.48656
     2018.03696       -14.00122         5.45104
     2018.03969       -11.59619         5.47844
     2018.04243       -12.94716         5.49975
     2018.04517       -13.01712         5.48656
     2018.04791       -10.72109         5.49163
     2018.05065        -1.13606         5.45002
     2018.05338        -3.30903         5.46119
     2018.05612        -7.65600         5.53324
     2018.05886        -6.57497         5.56166
     2018.06160        -5.36394         5.55963
     2018.06433        -4.94491         5.67432
     2018.06707        -2.73788         5.63068
     2018.06981        -6.92384         5.64691
     2018.07255        -8.14281         5.68041
     2018.07529       -15.20378         5.65909
     2018.07802       -14.55875         5.61038
     2018.08076       -10.76572         5.65199
     2018.08350        -7.87169         5.57689
     2018.08624        -9.71966         5.64387
     2018.08898        -8.31763         5.67533
     2018.09171        -2.34060         5.65706
     2018.09445        -7.90857         5.62865
     2018.09719        -2.95353         5.74028
     2018.09993        -5.46250         5.57689
     2018.10266       -13.98347         5.56775
     2018.10540        -7.03744         5.73014
     2018.10814        -7.68941         5.53832
     2018.11088        -8.63438         5.51193
     2018.11362        -2.89535         5.56369
     2018.11635        -5.14932         5.59008
     2018.11909        -8.42829         5.64793
     2018.12183        -5.77025         5.64996
     2018.12457        -7.80122         5.61545
     2018.12731        -3.72919         5.61038
     2018.13004         1.24184         5.59312
     2018.13278         1.89087         5.59820
     2018.13552        -1.96410         5.50584
     2018.13826        -9.81007         5.51701
     2018.14099        -8.39904         5.59109
     2018.14373        -2.77501         5.58703
     2018.14647        -1.46598         5.80524
     2018.14921        -2.01994         5.66924
     2018.15195         0.21709         5.51599
     2018.15468        -4.56688         5.55151
     2018.15742        -3.39285         5.61038
     2018.16016        -3.21982         5.60632
     2018.16290        -8.94379         5.66112
     2018.16564        -4.64476         5.66011
     2018.16837        -4.18273         5.58602
     2018.17111        -4.51070         5.52411
     2018.17385        -6.54366         5.65706
     2018.17659        -7.00963         5.65605
     2018.17932        -6.71560         5.62662
     2018.18206        -0.05857         5.69563
     2018.18480         4.69046         5.79204
     2018.18754         1.19549         5.59109
     2018.19028        -7.25048         5.58602
     2018.19301        -7.87645         5.54136
     2018.19575        -2.45742         5.53223
     2018.19849        -2.52138         5.59718
     2018.20123         6.09965         5.67635
     2018.20397         0.56768         5.54542
     2018.20670         2.10771         5.48859
     2018.20944        -0.45726         5.56065
     2018.21218        -3.25723         5.51599
     2018.21492       -13.33720         5.53020
     2018.21765        -4.43417         5.43581
     2018.22039        -1.83814         5.48757
     2018.22313        -4.13511         5.47438
     2018.22587        -4.51007         5.44292
     2018.22861        -3.61704         5.45814
     2018.23134        -5.49301         5.41450
     2018.23408        -3.68298         5.45713
     2018.23682        -5.62895         5.49163
     2018.23956        -5.06792         5.44799
     2018.24230         0.38411         5.43886
     2018.24503        -1.43386         5.43175
     2018.24777        -1.73583         5.45002
     2018.25051         1.52921         5.49366
     2018.25325        -8.53576         5.44901
     2018.25598        -3.55573         5.39826
     2018.25872        -1.56370         5.54542
     2018.26146        -5.64967         5.53629
     2018.26420        -1.78664         5.48960
     2018.26694        -2.97461         5.49163
     2018.26967       -12.37258         5.39928
     2018.27241        -7.60055         5.40841
     2018.27515         8.16348         5.51092
     2018.27789         6.74252         5.62459
     2018.28062        -4.33845         5.73420
     2018.28336       -10.43642         5.40638
     2018.28610        -7.53839         5.42161
     2018.28884         2.48064         5.41146
     2018.29158         4.31367         5.57790
     2018.29431        -5.10330         5.55456
     2018.29705        -6.32827         5.40334
     2018.29979        -4.90924         5.44190
     2018.30253        -2.15920         5.45104
     2018.30527        -1.89117         5.43175
     2018.30800        -4.86214         5.55862
     2018.31074        -7.36111         5.42770
     2018.31348        -7.58108         5.40537
     2018.31622        -7.95705         5.43581
     2018.31895        -1.53002         5.58196
     2018.32169         1.48201         5.41450
     2018.32443        -2.41596         5.45510
     2018.32717        -5.37393         5.43886
     2018.32991        -3.35789         5.56166
     2018.33264        -7.48686         5.42770
     2018.33538        -5.40683         5.56978
     2018.33812        -6.46680         5.57892
     2018.34086        -9.96577         5.46829
     2018.34360        -6.95274         5.49975
     2018.34633        -8.16271         5.48656
     2018.34907       -10.17168         5.45510
     2018.35181        -1.89265         5.50178
     2018.35455        -5.12561         5.51701
     2018.35728         1.91542         5.53527
     2018.36002        -0.30955         5.46829
     2018.36276        -7.04252         5.52208
     2018.36550        -3.64149         5.46017
     2018.36824        -7.43746         5.47134
     2018.37097        -4.39543         5.54238
     2018.37371        -4.00740         5.47844
     2018.37645        -5.91237         5.66823
     2018.37919        -3.40234         5.44292
     2018.38193        -4.84330         5.51193
     2018.38466         2.03173         5.51295
     2018.38740         0.73976         5.51295
     2018.39014        -6.14521         5.47946
     2018.39288       -10.91618         5.57892
     2018.39561        -1.38915         5.54441
     2018.39835         1.24488         5.48453
     2018.40109        -5.46409         5.56166
     2018.40383        -4.71606         5.44393
     2018.40657        -3.63302         5.58298
     2018.40930         1.33601         5.59921
     2018.41204         3.86904         5.59718
     2018.41478        -5.34293         5.58703
     2018.41752        -9.13190         5.43784
     2018.42026        -9.49187         5.45408
     2018.42299        -8.96484         5.47641
     2018.42573         4.21519         5.47235
     2018.42847         1.00822         5.47641
     2018.43121        -4.05775         5.49975
     2018.43394        -7.35271         5.42364
     2018.43668        -2.17968         5.43886
     2018.43942         2.96835         5.51701
     2018.44216        -1.09062         5.43074
     2018.44490        -7.15359         5.45713
     2018.44763        -3.42356         5.42059
     2018.45037         2.96147         5.47438
     2018.45311         1.41250         5.49163
     2018.45585         2.67053         5.47540
     2018.45859         4.25957         5.59414
     2018.46132        -9.08740         5.57587
     2018.46406       -13.11937         5.43784
     2018.46680        -9.19134         5.43277
     2018.46954        -1.73231         5.56572
     2018.47227         0.86672         5.59008
     2018.47501         4.63475         5.54441
     2018.47775        -6.70922         5.49163
     2018.48049        -4.37519         5.45408
     2018.48323        -3.73915         5.51701
     2018.48596        -8.60712         5.44901
     2018.48870         0.15591         5.40334
     2018.49144        -0.17906         5.56471
     2018.49418        -0.90903         5.66620
     2018.49692        -3.71700         5.64285
     2018.49965        -1.86597         5.48757
     2018.50239         0.27806         5.49468
     2018.50513        -5.60991         5.45002
     2018.50787        -1.38888         5.47235
     2018.51060        -7.97684         5.58500
     2018.51334        -2.19781         5.52919
     2018.51608         0.17122         5.46728
     2018.51882         2.48625         5.46626
     2018.52156        -5.62872         5.52513
     2018.52429        -0.08169         5.57790
     2018.52703        -0.93166         5.58095
     2018.52977        -2.93463         5.55354
     2018.53251         0.67440         5.45510
     2018.53525        -0.56156         5.44901
     2018.53798        -4.34353         5.68852
     2018.54072        -3.91650         5.68142
     2018.54346         0.52153         5.51599
     2018.54620         5.26356         5.43378
     2018.54893         2.71459         5.46119
     2018.55167         1.13262         5.58703
     2018.55441        -1.42135         5.53324
     2018.55715        -4.36032         5.56775
     2018.55989         0.51171         5.65909
     2018.56262         3.80475         5.51498
     2018.56536         0.57178         5.60023
     2018.56810         1.31181         5.58399
     2018.57084        -2.28616         5.52005
     2018.57357        -5.08713         5.60530
     2018.57631        -2.86810         5.75145
     2018.57905        -3.14707         5.79306
     2018.58179         2.08596         5.73623
     2018.58453         5.20399         5.77378
     2018.58726         1.75803         5.58602
     2018.59000         0.01906         5.48453
     2018.59274         6.31809         5.59718
     2018.59548         2.49212         5.45814
     2018.59822         0.89815         5.58399
     2018.60095         1.32918         5.49671
     2018.60369        -0.57479         5.49874
     2018.60643         2.45224         5.52513
     2018.60917         6.03927         5.54238
     2018.61190         2.42530         5.49975
     2018.61464         2.88834         5.51802
     2018.61738         2.66437         5.52411
     2018.62012         4.49040         5.50077
     2018.62286         9.09343         5.60023
     2018.62559         6.17746         5.56471
     2018.62833         4.09949         5.65808
     2018.63107         0.45552         5.55862
     2018.63381        -2.04145         5.66214
     2018.63655         0.19658         5.51904
     2018.63928         3.82962         5.83772
     2018.64202         4.98665         5.72912
     2018.64476         8.27668         5.55760
     2018.64750        -0.97229         5.52208
     2018.65023         6.67074         5.69360
     2018.65255         2.05300         6.46289
     2018.65651         2.89327         9.20617
     2018.65845        -0.44417         5.52716
     2018.66119         8.35886         5.50077
     2018.66392         4.31489         5.52005
     2018.66666         2.04093         5.47946
     2018.66940         3.07196         5.50990
     2018.67214         5.00899         5.46931
     2018.67488         3.80002         5.47844
     2018.67761         2.28605         5.45104
     2018.68035        -2.19292         5.54238
     2018.68309        -0.76689         5.63068
     2018.68583         6.07914         5.63068
     2018.68856         6.61517         5.50381
     2018.69130         6.12121         5.46829
     2018.69404         3.22624         5.60124
     2018.69678         4.94027         5.54238
     2018.69952         3.46830         5.54644
     2018.70225         6.24333         5.61647
     2018.70499         4.65236         5.52513
     2018.70773         0.60739         5.65909
     2018.71047        -2.21758         5.50990
     2018.71321         4.19345         5.51295
     2018.71594         4.98948         5.44393
     2018.71868         0.03552         5.51498
     2018.72142        -3.80345         5.51193
     2018.72416         0.44358         5.46423
     2018.72689         4.17261         5.70679
     2018.72963         1.97864         5.45916
     2018.73237        -3.70733         5.47134
     2018.73511        -3.10730         5.50178
     2018.73785        -0.56227         5.52919
     2018.74058        -0.69424         5.52411
     2018.74332         1.17180         5.49468
     2018.74606         5.28883         5.48554
     2018.74880         0.63586         5.49468
     2018.75154        -0.59311         5.53832
     2018.75427         0.43592         5.54035
     2018.75701         3.74495         5.63474
     2018.75975        -1.18902         5.47337
     2018.76249         2.30101         5.50178
     2018.76522        -4.25596         5.66315
     2018.76796        -2.50492         5.46525
     2018.77070         0.41711         5.46626
     2018.77344         2.14114         5.46119
     2018.77618         4.76717         5.48554
     2018.77891         2.43620         5.51396
     2018.78165         2.67523         5.68954
     2018.78439        -0.63274         5.49265
     2018.78713        -2.46271         5.50584
     2018.78987        -8.63668         5.62865
     2018.79260        -7.30165         5.54644
     2018.79534         1.84339         5.58298
     2018.79808        -5.80258         5.60429
     2018.80082        -0.59755         5.51295
     2018.80355         0.57848         5.51295
     2018.80629        -1.63149         5.76363
     2018.80903         4.48754         5.66721
     2018.81177         0.75457         5.82757
     2018.81451         1.10160         5.57689
     2018.81724         2.19763         5.46119
     2018.81998        -0.71133         5.51802
     2018.82272         3.41870         5.50787
     2018.82546         7.34673         5.55151
     2018.82820        -0.95424         5.50584
     2018.83093         0.09179         5.48351
     2018.83367         2.41382         5.48656
     2018.83641         4.52185         5.50483
     2018.83915         2.64088         5.50077
     2018.84188        -2.76609         5.51498
     2018.84462         3.41294         5.43987
     2018.84736         0.28098         5.45814
     2018.85010         2.10901         5.48554
     2018.85284        -4.80396         5.43074
     2018.85557        -8.72493         5.53122
     2018.85831        -2.30190         5.43683
     2018.86105        -1.53587         5.43581
     2018.86379        -3.32084         5.56978
     2018.86653         4.13419         5.42465
     2018.86926        -9.01978         5.45002
     2018.87200        -7.47074         5.48351
     2018.87474         0.39329         5.47337
     2018.87748        -5.30368         5.56775
     2018.88021        -0.61165         5.62763
     2018.88295         2.79238         5.59414
     2018.88569        -3.76659         5.60429
     2018.88843         0.85044         5.56471
     2018.89117         1.60647         5.63169
     2018.89390         4.32050         5.63981
     2018.89664         0.20253         5.73623
     2018.89938        -2.85343         5.61139
     2018.90212        -1.90040         5.61748
     2018.90485         1.96963         5.56978
     2018.90759         1.75866         5.64691
     2018.91033         0.75869         5.62763
     2018.91307         6.91372         5.74840
     2018.91581         2.13075         5.70781
     2018.91854         9.05678         5.65402
     2018.92128         1.23481         5.69055
     2018.92402         0.56485         5.61038
     2018.92676         3.18488         5.64894
     2018.92950         4.20391         5.64996
     2018.93223         1.38394         5.76058
     2018.93497        -0.55303         5.67127
     2018.93771        -2.70100         5.63372
     2018.94045         0.04303         5.65706
     2018.94318         4.39706         5.44393
     2018.94592         5.30109         5.47337
     2018.94866        -0.30188         5.47032
     2018.95140         0.82016         5.65199
     2018.95414        -0.67181         5.44799
     2018.95687         0.03522         5.47844
     2018.95961         3.86725         5.46423
     2018.96235         6.97528         5.57993
     2018.96509         5.23531         5.58602
     2018.96783         2.14534         5.58095
     2018.97056        13.38137         5.65199
     2018.97330         0.59540         5.54035
     2018.97604        -2.72656         5.62865
     2018.97878         1.67047         5.55557
     2018.98151        -3.50350         5.59414
     2018.98425         5.59453         5.66214
     2018.98699        -0.15144         5.59718
     2018.98973        -3.67941         5.56471
     2018.99247        -7.99038         5.62256
     2018.99520        -5.96335         5.55354
     2018.99794        -6.58432         5.56877
     2019.00068        -3.11429         5.64184
     2019.00342        -2.65525         5.55760
     2019.00616        -2.67422         5.43277
     2019.00889        -4.31519         5.49163
     2019.01163        -2.74516         5.52919
     2019.01437         2.32987         5.52716
     2019.01711         5.08990         5.52005
     2019.01984        -6.81507         5.44393
     2019.02258        -8.15804         6.03968
     2019.02532        -4.61401         5.64590
     2019.02806        -2.08897         5.61038
     2019.03080         0.11606         5.58196
     2019.03353        -8.63591         5.42364
     2019.03627       -12.95688         5.45814
     2019.03901        -8.94585         5.54441
     2019.04175        -6.30882         5.47438
     2019.04448        -6.44880         5.77073
     2019.04722        -0.13176         5.56166
     2019.04996        -7.03073         5.56572
     2019.05270        -9.12269         5.76160
     2019.05544        -0.46966         5.70882
     2019.05817         0.60037         5.84279
     2019.06091         0.67440         5.62154
     2019.06365         1.37843         5.63372
     2019.06639        -1.11954         5.65300
     2019.06913        -1.86251         5.61444
     2019.07186        -0.27848         5.60023
     2019.07460         1.55855         5.52310
     2019.07734         2.95858         5.43886
     2019.08008        -0.06638         5.46220
     2019.08282        -3.68035         5.68244
     2019.08555         0.11768         5.43987
     2019.08829        -1.77629         5.44698
     2019.09103         8.36474         5.49468
     2019.09377         0.74277         5.46728
     2019.09650        10.02580         5.53122
     2019.09919         5.20475         5.55456
     2019.10204        -2.04403         5.70882
     2019.10472        -0.85110         5.49772
     2019.10746        -3.88807         5.46626
     2019.11019        -1.20404         5.40029
     2019.11293         5.25899         5.66417
     2019.11567         3.44902         5.72811
     2019.11841        13.27305         5.50787
     2019.12115        14.15308         5.57689
     2019.12388         7.27211         5.58602
     2019.12662         7.43814         5.48859
     2019.12936         4.15117         5.43175
     2019.13210         1.74821         5.40435
     2019.13483        -0.64476         5.47844
     2019.13757         4.47827         5.45611
     2019.14031         6.90830         5.46322
     2019.14305         5.20733         5.48859
     2019.14579        -0.90264         5.41146
     2019.14852         6.34239         5.44799
     2019.15126        -2.22958         5.44190
     2019.15400        -3.23555         5.44292
     2019.15674         1.79849         5.37999
     2019.15948        -3.71448         5.42567
     2019.16221        -2.29545         5.56369
     2019.16495        -1.55142         5.42668
     2019.16769        -9.13539         5.41146
     2019.17043        -4.19636         5.51904
     2019.17316        -4.66633         5.37898
     2019.17590        -1.04130         5.41653
     2019.17864         0.66273         5.43683
     2019.18138         4.02176         5.46626
     2019.18412        -1.68420         5.44393
     2019.18685         1.69583         5.38811
     2019.18959        -0.99514         5.53426
     2019.19233        -0.78211         5.75449
     2019.19507        -1.68708         5.63879
     2019.19780        -4.44205         5.42871
     2019.20054        -8.97002         5.45916
     2019.20328       -11.90999         5.44393
     2019.20602        -7.67296         5.41856
     2019.20876        -4.73192         5.51701
     2019.21149        -9.59389         5.40232
     2019.21423        -2.25586         5.45814
     2019.21697        -4.16283         5.42465
     2019.21971        -3.06780         5.58196
     2019.22245        -2.70477         5.42871
     2019.22518        -5.09174         5.37594
     2019.22792        -3.75071         5.37898
     2019.23066        -1.03968         5.40638
     2019.23340        -4.60665         5.57486
     2019.23613        -4.71161         5.56268
     2019.23887        -5.39758         5.55456
     2019.24161       -12.63855         5.55760
     2019.24435        -4.47152         5.54745
     2019.24709        -2.55049         5.56268
     2019.24982        -0.16746         5.61748
     2019.25256        -7.72443         5.61342
     2019.25530        -7.40540         5.47134
     2019.25804        -5.59337         5.46322
     2019.26078         1.93467         5.49975
     2019.26351         2.47570         5.56166
     2019.26625        -2.39227         5.38913
     2019.26899         0.86976         5.61748
     2019.27173        -3.09321         5.62966
     2019.27446        -4.50918         5.40029
     2019.27720         0.88085         5.52614
     2019.27994         0.05688         5.45307
     2019.28268        -3.29309         5.37695
     2019.28542         0.76594         5.47134
     2019.28815         0.43098         5.45814
     2019.29089         0.36001         5.46220
     2019.29363        -2.91596         5.47235
     2019.29637        -3.22793         5.49468
     2019.29911        -0.26190         5.41247
     2019.30184        -0.63787         5.42364
     2019.30458       -14.06584         5.43581
     2019.30732        -7.21981         5.49468
     2019.31006        -3.33978         5.53933
     2019.31279        -7.11974         5.53020
     2019.31553        10.00829         5.59617
     2019.31827        -2.53168         5.42972
     2019.32101        -6.69265         5.42161
     2019.32375       -18.75862         5.41552
     2019.32648        -6.79259         5.39319
     2019.32922        -5.88656         5.44089
     2019.33196        -6.32353         5.61444
     2019.33470       -12.15050         5.54441
     2019.33744        -8.94246         5.45205
     2019.34017       -12.40143         5.41755
     2019.34291        -1.14840         5.45611
     2019.34565        -4.05837         5.70781
     2019.34839       -11.68734         5.55760
     2019.35112        -8.11531         5.46322
     2019.35386        -8.29828         5.39217
     2019.35660        -5.98925         5.48453
     2019.35934        -3.24422         5.42972
     2019.36208        -2.39919         5.48351
     2019.36481         0.40285         5.52513
     2019.36755        -0.85012         5.44698
     2019.37029        -3.44309         5.46931
     2019.37303        -6.23206         5.45611
     2019.37577        -3.61903         5.55151
     2019.37850        -5.54400         5.41755
     2019.38124        -5.45197         5.43987
     2019.38398        -4.00894         5.40638
     2019.38672        -2.72891         5.40029
     2019.38945        -5.93287         5.48351
     2019.39219        -7.21084         6.45072
     2019.39493        -7.62881         5.48757
     2019.39767        -1.51878         5.55354
     2019.40041        -4.25575         5.43074
     2019.40314        -2.65272         5.40537
     2019.40588        -3.62169         5.46728
     2019.40862         3.05934         5.51904
     2019.41136        -2.88963         5.44698
     2019.41410        -4.09260         5.45205
     2019.41683        -5.69056         5.46931
     2019.41957        -0.64653         5.75449
     2019.42231        -7.94350         5.47946
     2019.42505        -8.28247         5.43277
     2019.42778         2.32256         5.73014
     2019.43052         2.26059         5.71796
     2019.43326       -11.13938         5.53629
     2019.43600       -12.83335         5.50584
     2019.43874       -10.20332         5.78393
     2019.44147        -6.98628         5.60023
     2019.44421        -6.72025         5.56369
     2019.44695        -7.83922         5.71999
     2019.44969         2.12681         5.73521
     2019.45243         3.97584         5.57283
     2019.45516        -4.06813         5.57080
     2019.45790        -4.59110         5.65199
     2019.46064        -8.13107         5.68142
     2019.46338       -11.25204         5.92703
     2019.46611         8.70399         5.99705
     2019.46885        -2.45397         5.72709
     2019.47159        -4.55894         5.56978
     2019.47433        -1.58391         5.60226
     2019.47707        -1.23388         5.57080
     2019.47980         2.58115         5.67736
     2019.48254        -0.73882         5.61647
     2019.48528        -0.30979         5.64691
     2019.48802        -6.43976         5.83772
     2019.49076        -8.30373         5.51193
     2019.49349        -0.19969         5.54745
     2019.49623         3.52134         5.63879
     2019.49897        -2.54363         5.46220
     2019.50171         1.18740         5.49772
     2019.50444        -8.18657         5.54847
     2019.50718       -13.74954         5.57181
     2019.50992        -7.92351         5.47641
     2019.51266        -6.16848         5.45307
     2019.51540         1.31055         5.53223
     2019.51813        -5.41942         5.63474
     2019.52087        -1.26838         5.52005
     2019.52361        -6.11335         5.52208
     2019.52635        -0.66132         5.56674
     2019.52908        -2.35629         5.76972
     2019.53182       -11.02826         5.84380
     2019.53456        -3.64223         5.78900
     2019.53730         0.92880         5.69563
     2019.54004        -0.40917         5.63778
     2019.54277         5.55186         5.68244
     2019.54551        -1.80510         5.89861
     2019.54825        -1.67207         5.56268
     2019.55099        -6.25204         5.54035
     2019.55373        -0.79201         5.68345
     2019.55646        -0.44098         5.74231
     2019.55920       -13.63395         5.69360
     2019.56194        -3.69192         5.47032
     2019.56468        -7.03189         5.64184
     2019.56741        -1.01286         5.51701
     2019.57015        -5.24083         5.55760
     2019.57289        -8.29279         5.71390
     2019.57563        -3.67676         5.53122
     2019.57837        -8.22173         5.79204
     2019.58110        -4.35470         5.68142
     2019.58384        -5.44267         5.70375
     2019.58658        -4.85964         5.53122
     2019.58932        -1.07261         5.62662
     2019.59206         0.72142         5.65300
     2019.59479         3.61645         5.60327
     2019.59753         3.15649         5.92500
     2019.60027        -2.55948         5.69766
     2019.60301        -6.91445         5.47946
     2019.60574        -7.88542         5.98285
     2019.60848        -1.13739         5.81539
     2019.61122        -5.05036         5.57080
     2019.61361        -6.56197         6.35735
     2019.61787         7.53087        16.61191
     2019.61943        -0.64427         5.55050
     2019.62211         3.52066         5.77987
     2019.62491         7.57580         5.53324
     2019.62765         3.80583         5.54238
     2019.63039         1.44986         5.48656
     2019.63312        -3.93611         5.48453
     2019.63586         3.58092         5.51092
     2019.63860        -0.70605         5.56369
     2019.64134        -1.60102         5.71694
     2019.64407         1.25901         5.53730
     2019.64681        -2.15696         5.54644
     2019.64955        -0.73692         5.53730
     2019.65229         2.05011         5.52716
     2019.65503        -2.10386         5.63981
     2019.65776        -0.47783         5.60733
     2019.66050         2.85020         5.75246
     2019.66324         2.31723         5.56471
     2019.66598        -5.39574         5.55354
     2019.66872         1.54929         5.57181
     2019.67145        -3.75568         5.55151
     2019.67419         1.81936         5.57486
     2019.67693         3.94839         5.68751
     2019.67967        -8.14158         5.65503
     2019.68240        -6.95355         5.57080
     2019.68514        -0.70052         5.68852
     2019.68788         4.40851         5.71288
     2019.69062         3.89954         5.68041
     2019.69336        -0.60743         5.62154
     2019.69609        -3.90140         5.50584
     2019.69883       -10.89437         5.54339
     2019.70157        -0.90933         5.57080
     2019.70431         2.08270         5.55963
     2019.70705         7.88573         5.82757
     2019.70978         0.68976         5.60429
     2019.71252        -9.86321         5.50178
     2019.71526         3.90882         5.50280
     2019.71800        -0.94315         5.89962
     2019.72073        -1.00212         5.78291
     2019.72347         3.33191         5.55354
     2019.72621        -5.74505         5.52919
     2019.72895        -2.05602         5.56572
     2019.73169         1.33601         5.54441
     2019.73442         6.42804         5.52107
     2019.73716        -0.00993         5.60530
     2019.73990         3.59410         5.92906
     2019.74264        -2.75987         5.69664
     2019.74538        -2.08984         5.52411
     2019.74811        -0.52081         5.69157
     2019.75085        -3.15478         5.94530
     2019.75359        -2.83774         5.77682
     2019.75633        -2.35171         5.75449
     2019.75906        -4.77768         5.65503
     2019.76180        -5.10665         5.57283
     2019.76454        -4.17062         5.64996
     2019.76728        -1.65759         5.79712
     2019.77002         2.63344         5.77682
     2019.77275        -4.75853         5.82960
     2019.77549        -2.08350         5.66112
     2019.77823        -4.13246         5.64082
     2019.78097         0.15157         5.63372
     2019.78371        -1.44340         5.70476
     2019.78644        -4.37437         5.63981
     2019.78918        -2.47434         5.70984
     2019.79192         4.09369         5.65402
     2019.79466         6.11972         5.70375
     2019.79739         0.49275         5.66112
     2019.80013         2.43078         5.67736
     2019.80287         0.07781         5.67330
     2019.80561        -4.70115         5.66112
     2019.80835        -4.70612         5.65605
     2019.81108        -5.68909         5.66518
     2019.81382        -3.86906         5.67127
     2019.81656        -0.52003         5.67026
     2019.81930        -3.02200         5.64488
     2019.82203        -3.09397         5.59921
     2019.82477        -2.44394         5.59820
     2019.82751       -10.75091         5.66315
     2019.83025       -11.15887         6.36343
     2019.83299        -4.98284         5.68954
     2019.83572        -1.75281         5.63474
     2019.83846         0.39022         5.62966
     2019.84120        -1.26175         5.64590
     2019.84394        -5.79172         5.86816
     2019.84668       -12.54969         5.65909
     2019.84941        -3.32566         5.65097
     2019.85215        -1.23963         5.64387
     2019.85489        -0.97960         5.60124
     2019.85763         0.70044         5.63169
     2019.86036        -8.29253         5.86816
     2019.86310        -4.08550         5.67635
     2019.86584         4.72553         5.75449
     2019.86858        -1.15044         5.64387
     2019.87132         3.82859         5.70476
     2019.87405         0.93562         5.64488
     2019.87679        -1.45835         5.80321
     2019.87953         6.28068         5.68954
     2019.88227        12.51272         5.70476
     2019.88501         7.15375         5.64691
     2019.88774         6.68378         5.83264
     2019.89048        11.23281         5.62053
     2019.89322         6.06784         5.66011
     2019.89596         4.86287         5.73521
     2019.89869        11.76490         5.63474
     2019.90143         6.17693         5.67026
     2019.90417         7.89796         5.68345
     2019.90691         2.65599         5.64387
     2019.90965         4.33503         5.61139
     2019.91238         6.17906         5.64894
     2019.91512         5.20109         5.69360
     2019.91786         8.11812         5.72405
     2019.92060        -0.69185         5.63676
     2019.92334         5.27218         5.62459
     2019.92607         7.95021         5.70375
     2019.92881         2.62324         5.82046
     2019.93155         6.61027         5.74130
     2019.93429        -0.75869         5.67330
     2019.93702         4.10334         5.68852
     2019.93976         4.38037         5.66518
     2019.94250        -1.59860         5.62966
     2019.94524        -2.07757         5.74434
     2019.94798        -7.42954         5.69664
     2019.95071        -1.14051         6.02243
     2019.95345         7.15152         5.71187
     2019.95619         3.67155         5.67635
     2019.95893        -2.06741         5.72100
     2019.96167        -1.47738         5.73318
     2019.96440         0.83765         5.83975
     2019.96714        -2.72232         5.82757
     2019.96988        -0.35129         5.77378
     2019.97262         6.83974         5.64793
     2019.97535         5.84277         5.65503
     2019.97809        -7.46720         5.64590
     2019.98083         3.45083         5.69461
     2019.98337         0.97050         6.12798
     2019.98644         4.83315         6.07317
     2019.98904         4.20293         5.66214
     2019.99178         3.44996         5.67127
     2019.99452        -2.24901         5.71999
     2019.99726         1.15602         5.69664
     2020.00000        11.45405         5.63981
     2020.00273         4.81708         5.59008
     2020.00547        -1.09089         5.72709
     2020.00821         1.64414         5.73927
     2020.01095        -0.93082         5.83975
     2020.01368        -5.85979         6.13102
     2020.01642         0.89324         5.93718
     2020.01916        -0.80173         5.61951
     2020.02190        -1.95770         5.79103
     2020.02464        -4.83567         5.73217
     2020.02737        -6.23964         5.55151
     2020.03011        -6.98061         5.73014
     2020.03285        -8.03658         5.56674
     2020.03559        -0.10755         5.51498
     2020.03833        -2.94551         5.63372
     2020.04106        -7.87948         5.71390
     2020.04380        -0.76845         5.69461
     2020.04654        -1.33142         5.52716
     2020.04928        -4.86939         5.55963
     2020.05201        -4.09136         5.52817
     2020.05475        -1.51533         5.56775
     2020.05749        -4.44130         5.60733
     2020.06023         0.12373         5.55253
     2020.06297         0.76377         5.59820
     2020.06563         4.68367         5.81640
     2020.08295         7.38348         8.07456
     2020.08487         0.40301         5.48859
     2020.08761         0.69104         5.59617
     2020.09034         3.01308         5.63271
     2020.09308         1.27211         5.57587
     2020.09582         4.78714         5.51396
     2020.09856         5.65017         5.47134
     2020.10130         0.34720         5.51701
     2020.10403         3.81623         5.56369
     2020.10677        -2.45574         5.45713
     2020.10951        -2.53071         5.67432
     2020.11225        -2.65168         5.45510
     2020.11498         1.92336         5.45814
     2020.11772         0.43939         5.52513
     2020.12046        -2.45458         5.56471
     2020.12320        -4.81455         5.48453
     2020.12594        -1.43052         5.45916
     2020.12867        -2.80049         5.44190
     2020.13141        -1.74346         5.48757
     2020.13415        -9.48543         5.66011
     2020.13689        -4.60340         5.58500
     2020.13963        -0.69437         5.59820
     2020.14236        -5.05833         5.46017
     2020.14510         6.58470         5.57283
     2020.14784        -1.71627         5.49569
     2020.15058        -8.16324         5.48148
     2020.15331        -8.22921         5.45510
     2020.15605        -9.90418         5.54847
     2020.15879        -5.31315         5.53020
     2020.16153         2.86188         5.51599
     2020.16427         0.61591         5.55456
     2020.16700         4.20895         5.59820
     2020.16974         1.37698         5.48960
     2020.17248        -1.57599         5.51701
     2020.17522        -1.73296         5.50178
     2020.17796         3.28107         5.51599
     2020.18069         1.63810         5.49874
     2020.18343        -4.06887         5.42972
     2020.18617        -1.16184         5.40131
     2020.18891        -2.41181         5.49569
     2020.19164         0.42622         5.53832
     2020.19438         1.82126         5.56978
     2020.19712        -2.11671         5.51396
     2020.19986        -4.98968         5.58095
     2020.20260        -7.42465         5.48351
     2020.20533        -0.36962         5.53933
     2020.20807         2.11441         5.58298
     2020.21081        -6.10856         5.56674
     2020.21355        -1.88653         6.00619
     2020.21629        -2.64550         5.73420
     2020.21902        -7.67046         5.61342
     2020.22176        -6.19643         5.54745
     2020.22450         0.82260         5.59617
     2020.22724        -4.50437         5.53527
     2020.22997         6.98166         5.50889
     2020.23271        -1.59631         5.48656
     2020.23545         1.53472         5.50483
     2020.23819        -3.08125         5.47743
     2020.24093        -3.94422         5.51904
     2020.24366        -1.07518         5.49265
     2020.24640         0.09385         5.48757
     2020.24914        -7.67912         5.46626
     2020.25188        -6.65109         5.49062
     2020.25462        -9.31406         5.53832
     2020.25735        -6.82603         5.53832
     2020.26009         2.85100         5.56978
     2020.26283        -4.28897         5.56877
     2020.26557        -2.04494         5.53020
     2020.26830        -3.68391         5.51599
     2020.27104        -6.78187         5.52005
     2020.27378        -1.95684         5.60936
     2020.27652        -0.19381         5.60124
     2020.27926        -0.65578         5.93515
     2020.28199        -5.57975         5.58399
     2020.28473       -13.73572         5.52716
     2020.28747       -10.13769         5.53020
     2020.29021       -10.03866         5.49569
     2020.29295       -10.08463         5.48453
     2020.29568        -0.72159         5.48351
     2020.29842         1.54044         5.50077
     2020.30116        -1.12653         5.52411
     2020.30390        -4.90750         5.50787
     2020.30663        -3.40347         5.46626
     2020.30937        -4.26444         5.65909
     2020.31211        -5.40641         5.69867
     2020.31485        -9.11938         5.55253
     2020.31759         2.46965         5.56877
     2020.32032        -4.26232         5.41450
     2020.32306        -5.20028         5.41146
     2020.32580        -6.44525         5.38710
     2020.32854        -1.85722         5.52310
     2020.33128        -3.24519         5.49265
     2020.33401        -4.48216         5.41755
     2020.33675         4.43487         5.57181
     2020.33949        -1.99710         5.51802
     2020.34223        -8.11107         5.51701
     2020.34496        -4.99404         5.55050
     2020.34770       -11.99100         5.41247
     2020.35044        -5.02097         5.55862
     2020.35318        -8.60794         5.60835
     2020.35592        -8.42891         5.48250
     2020.35865        -1.68888         5.45002
     2020.36139         0.91815         5.45205
     2020.36413         1.63918         5.48960
     2020.36687         0.48321         5.52107
     2020.36961        -1.58276         5.51904
     2020.37234        -6.17873         5.42871
     2020.37508        -6.89469         5.46017
     2020.37782         4.73134         5.48554
     2020.38056        -3.30963         5.49772
     2020.38329         1.24040         5.49366
     2020.38603        -6.55957         5.46322
     2020.38877        -0.61254         5.65097
     2020.39151        -9.77951         5.49265
     2020.39425        -5.97648         5.45104
     2020.39698        -4.93945         5.51092
     2020.39972        -2.96341         5.57993
     2020.40246        -4.41038         5.66112
     2020.40520        -9.51135         5.66315
     2020.40794        -4.32732         5.54644
     2020.41067        -3.33329         5.59921
     2020.41341        -2.11926         5.54136
     2020.41615        -4.67223         5.61850
     2020.41889        -1.68320         5.46119
     2020.42162        -0.85017         5.48148
     2020.42436        -1.00814         5.73826
     2020.42710        -6.90910         5.86918
     2020.42984        -0.52107         5.63372
     2020.43258        -5.04904         5.61241
     2020.43531        -6.86001         5.53324
     2020.43805        -6.03498         5.54339
     2020.44079        -7.59695         5.56369
     2020.44353        -6.73892         5.51904
     2020.44626        -4.29889         5.46322
     2020.44900        -0.88386         5.54238
     2020.45174         1.64318         5.48960
     2020.45448        -3.08479         5.49975
     2020.45722        -4.49876         5.43378
     2020.45995        -5.00573         5.44089
     2020.46269        -4.76870         5.44495
     2020.46543        -5.86267         5.44799
     2020.46817        -4.84764         5.46322
     2020.47091         1.01239         5.52107
     2020.47364        -5.75858         5.44292
     2020.47638        -1.71955         5.40943
     2020.47912        -8.33051         5.49975
     2020.48186        -2.70648         5.56978
     2020.48459        -5.13245         5.64691
     2020.48733        -1.21942         5.71593
     2020.49007         1.23961         5.60530
     2020.49281        -0.15536         5.94530
     2020.49555        -4.80733         5.61545
     2020.49828         0.86670         5.55862
     2020.50102        -4.42927         5.61038
     2020.50376       -11.10323         5.54339
     2020.50650       -12.10520         5.47844
     2020.50924        -5.37217         5.44190
     2020.51197        -7.07114         5.59921
     2020.51471         1.47689         5.57993
     2020.51745         0.06692         5.42770
     2020.52019        -2.37605         5.57892
     2020.52292         0.76398         5.61139
     2020.52566        -7.80399         5.60023
     2020.52840         3.22505         5.60429
     2020.53114        -0.96592         5.67330
     2020.53388         1.34511         5.57181
     2020.53661        -2.55386         5.58500
     2020.53935        -3.58883         5.58500
     2020.54209         0.06120         5.60124
     2020.54483         1.88323         5.76870
     2020.54757        -4.77174         5.52005
     2020.55030        -4.73971         5.58399
     2020.55304        -3.48668         5.62357
     2020.55578        -1.68364         5.64184
     2020.55852         4.72339         5.70781
     2020.56125        -1.80458         5.63778
     2020.56399         4.55545         5.71999
     2020.56673        -4.37952         5.79002
     2020.56947        -1.08649         5.57384
     2020.57221        -0.67246         5.83772
     2020.57494        -3.55643         5.63474
     2020.57768         2.88460         5.69766
     2020.58042        -4.08936         5.55456
     2020.58316        -2.11833         5.61647
     2020.58590        -3.66730         5.60936
     2020.58863        -3.44327         5.64996
     2020.59137         0.05276         5.60530
     2020.59411         3.78179         5.59820
     2020.59685         5.18382         5.77479
     2020.59958        -2.21115         5.71999
     2020.60232        -1.68112         5.62357
     2020.60506         1.87591         5.61850
     2020.60780         0.60595         5.54136
     2020.61054         5.12498         5.76870
     2020.61327        -2.10199         5.61038
     2020.61601         3.89004         5.69258
     2020.61875        -3.67993         5.64285
     2020.62149        -2.56790         5.57790
     2020.62423        -1.95087         5.63879
     2020.62696        -6.84984         5.61647
     2020.62970         0.67919         5.64793
     2020.63244         6.95423         5.75246
     2020.63518         3.06926         5.72608
     2020.63791        -2.61471         5.89049
     2020.64065        -2.98268         5.68650
     2020.64339         1.60335         5.61139
     2020.64613         1.82638         5.64184
     2020.64887         4.63941         5.79407
     2020.65160         7.35044         5.74231
     2020.65411         1.62905         6.43245
     2020.66621        12.44928        10.03636
     2020.66803         2.41063         5.64285
     2020.67077         2.29766         5.60936
     2020.67351        -1.56631         5.64488
     2020.67624        -5.08828         5.65605
     2020.67898        -5.16925         5.67026
     2020.68172         6.85578         5.72100
     2020.68446         4.44482         5.64793
     2020.68721        -5.99114         6.21424
     2020.68993        -0.68312         5.68244
     2020.69267        -4.58609         5.79306
     2020.69541        -0.90706         5.91485
     2020.69815        -1.48503         5.81437
     2020.70089         0.41200         5.66417
     2020.70362        -6.29297         5.66721
     2020.70636        -5.51694         5.99401
     2020.70910        -3.68791         5.93616
     2020.71184         0.09413         5.82858
     2020.71457         0.62616         5.83975
     2020.71731         4.97519         5.89252
     2020.72005        -0.98278         5.90774
     2020.72279        -2.54875         5.68345
     2020.72553        -2.08772         5.98995
     2020.72826        -0.91169         5.83264
     2020.73100         2.70634         5.82148
     2020.73374         4.59937         5.77784
     2020.73648         5.48641         5.75145
     2020.73921         0.91444         5.64996
     2020.74195         4.55947         5.72100
     2020.74469        -1.26050         5.71491
     2020.74743        -7.11547         5.62459
     2020.75017        -4.64544         5.72100
     2020.75290        -0.21441         5.72100
     2020.75564        -1.91438         5.73318
     2020.75838         0.49165         5.57486
     2020.76123         0.70689         5.80828
     2020.76386         0.77472         5.59921
     2020.76659         1.14275         5.60936
     2020.76933         8.58678         5.72608
     2020.77207        10.48081         5.53324
     2020.77481         6.06384         5.59211
     2020.77754         6.00887         5.63778
     2020.78028         7.03390         5.52614
     2020.78302         3.95893         5.49468
     2020.78576         5.75496         5.51599
     2020.78850        -3.40500         5.46829
     2020.79061        -3.89213         7.64627
     2020.83082        12.97778        23.51325
     2020.83230         1.90049         5.54238
     2020.83504        -0.80948         5.57486
     2020.83778         2.98755         5.47032
     2020.84052         5.53259         5.45307
     2020.84325         1.25362         5.62763
     2020.84599        -1.16535         5.56572
     2020.84873         9.30568         5.55557
     2020.85147         7.89771         5.56268
     2020.85420        14.54474         5.50686
     2020.85694        14.45377         5.67229
     2020.85968         8.00780         5.50889
     2020.86242         9.40483         5.60124
     2020.86516        10.22887         5.81031
     2020.86789        13.78690         5.83467
     2020.87063        10.91593         5.75246
     2020.87337        16.69796         5.73318
     2020.87611         9.05899         5.81133
     2020.87885         3.34002         5.77479
     2020.88158         3.81005         5.83061
     2020.88432        12.47008         5.74942
     2020.88706        -1.71389         5.83670
     2020.88980         0.61914         5.74536
     2020.90349        10.16330         5.73318
     2020.90622         7.33033         5.66924
     2020.90896         7.25636         5.78393
     2020.91170         7.81039         5.88948
     2020.91444         6.04642         5.75043
     2020.91718         5.61746         5.67838
     2020.91991         0.04449         5.72912
     2020.92265        -3.02648         5.68751
     2020.92539        -0.89545         5.62459
     2020.92813        -2.98342         5.66924
     2020.93086         0.00661         5.64894
     2020.93360        -1.44736         5.68852
     2020.93634        -4.05033         5.71897
     2020.93908         1.21770         5.69664
     2020.94182         2.87073         5.70984
     2020.94455        -3.22723         5.59921
     2020.94729        -2.53520         5.68041
     2020.95003        -6.67117         5.72811
     2020.95277        -5.81214         5.74231
     2020.95551        -2.45811         5.72811
     2020.95824        -3.43708         5.66417
     2020.96098         0.88795         5.66315
     2020.96372         3.92298         5.65909
     2020.96646         6.69001         5.76972
     2021.27583         1.78152         5.63778
     2021.27857        -0.77845         5.65909
     2021.28131        -1.97241         5.66518
     2021.28405        -0.68638         5.65605
     2021.28679        -0.77335         5.74434
     2021.28952         3.91468         5.71288
     2021.29226        -5.73329         5.68142
     2021.29500         1.60374         5.63879
     2021.29774         3.71577         5.80321
     2021.30047        -1.10720         5.66011
     2021.30321         5.86883         5.63778
     2021.30595         8.48687         5.95849
     2021.30869        19.09690         5.97777
     2021.31143         5.23193         5.55760
     2021.31416        11.72896         5.59414
     2021.31690         9.45499         5.57790
     2021.31964         5.57102         5.67432
     2021.32238        -1.86695         5.71694
     2021.32512        -7.85192         5.58095
     2021.32785        -7.88489         5.62662
     2021.33059         6.03014         5.56877
     2021.33333         5.46618         5.65605
     2021.33607         2.22521         5.62154
     2021.33880        -0.29076         5.58602
     2021.34154        -5.03273         5.60327
     2021.34428        -5.87670         5.68548
     2021.34702        -4.10567         5.60327
     2021.34976         5.95836         5.71694
     2021.35249        -3.50261         5.63169
     2021.35523         0.36042         5.62154
     2021.35797        -5.66654         5.61850
     2021.36071        -7.72251         5.60733
     2021.36344        -4.64648         5.64590
     2021.36618        -4.80845         5.69969
     2021.36892        -1.97842         5.66721
     2021.37166         3.94261         5.68041
     2021.37440         0.07364         5.66924
     2021.37713         1.13667         5.70679
     2021.37987         3.71870         5.83772
     2021.38261         2.73874         6.08028
     2021.38535         3.07377         5.94428
     2021.38809         1.64280         5.79813
     2021.39082        -1.65017         5.66112
     2021.39356        -1.06014         5.73115
     2021.39630         0.31089         5.73623
     2021.39904         0.31792         5.76870
     2021.40177        -2.20805         5.64488
     2021.40451         5.46798         5.77378
     2021.40725        -3.41399         5.68345
     2021.40999         2.54905         5.68548
     2021.41273        -2.77892         5.70679
     2021.41820        -0.27386         5.66112
     2021.42094         6.31117         5.68954
     2021.42642         8.27523         5.90368
     2021.42915        10.40726         5.78393
     2021.43189         3.70829         5.67127
     2021.43463         7.36533         5.72100
     2021.43737         0.62136         5.69055
     2021.44010        -4.71161         5.92500
     2021.44284       -10.87758         5.82960
     2021.44558        -2.27355         5.95138
     2021.44832         3.64448         5.83467
     2021.45106         4.41051         5.87831
     2021.45379        -1.01946         5.85294
     2021.45927         3.22860         5.70578
     2021.46201         8.16464         5.65706
     2021.46475         4.51567         5.69461
     2021.46748         1.27970         5.70679
     2021.47022        -2.29327         5.80219
     2021.47296         8.24976         5.85395
     2021.47570         2.62779         5.83467
     2021.47843        -0.01418         5.72506
     2021.48117        -2.48315         5.81742
     2021.48391        -1.45812         5.70172
     2021.48665        -3.54908         5.73217
     2021.48939        -6.14905         5.74637
     2021.49212        -7.49802         5.74130
     2021.49486         0.33401         5.77073
     2021.50034        -7.16293         5.97473
     2021.50308        -0.39790         5.81539
     2021.50581        10.61813         6.10260
     2021.50855         0.04016         5.86309
     2021.51129         0.99419         5.77175
     2021.51676        -0.83274         5.79204
     2021.51950         0.26929         5.87019
     2021.52224        -3.63468         5.77581
     2021.52498         3.51935         5.76464
     2021.52772         9.12338         5.74130
     2021.53045         1.28541         5.82757
     2021.53319         6.63144         5.64996
     2021.53593         4.82447         5.86613
     2021.54141         6.26954         5.80118
     2021.54414         5.82657         5.77987
     2021.54688        -2.35540         5.58298
     2021.54962        -0.41837         5.72912
     2021.55236        -0.15134         5.67533
     2021.55509        11.58469         6.00314
     2021.55783        -1.06928         5.76972
     2021.56057         7.81675         5.63575
     2021.56331         1.72978         5.65706
     2021.56605         1.80982         5.68142
     2021.56878         4.88385         5.68650
     2021.57152        -1.92012         5.80219
     2021.57426        -4.11809         5.70984
     2021.57700         2.12494         5.81843
     2021.57974         3.98697         5.74536
     2021.58247        -3.79600         5.71390
     2021.58795        -5.13794         5.76261
     2021.59069        -1.58490         5.70882
     2021.59342         1.03013         5.76870
     2021.59616         2.50716         5.86613
     2021.59890         2.18519         5.65097
     2021.60164         2.91122         5.66011
     2021.60432         0.94215         6.21627
     2021.60763        -1.39477         9.56443
     2021.61048         3.73747         8.61449
     2021.61341         0.65985         9.27620
     2021.61533        -0.48763         5.80625
     2021.61807         0.07141         5.68954
     2021.62080         6.31944         5.67229
     2021.62354         5.01347         5.63981
     2021.62628         5.49750         5.69157
     2021.62902         7.46153         5.71491
     2021.63175         3.41456         5.73115
     2021.63449        -1.21541         5.64387
     2021.63723         3.76562         5.95037
     2021.63997         4.01465         5.88136
     2021.64271         0.58969         5.73724
     2021.64544         0.09972         5.59109
     2021.64818        -3.30325         5.69766
     2021.65092         5.02778         5.65097
     2021.65366         2.85781         5.73014
     2021.65639         5.41884         5.62662
     2021.65913         0.44787         5.64387
     2021.66187        -1.34210         5.66011
     2021.66461         7.46393         5.76261
     2021.66735         5.79897         5.74130
     2021.67008         2.42100         5.81031
     2021.67282         4.26203         5.91586
     2021.67556         0.91706         5.99807
     2021.67830        -0.64391         5.84989
     2021.68104         8.70112         5.73826
     2021.68377         4.99815         5.70172
     2021.68651         3.67518         5.66011
     2021.69199         3.78324         5.73927
     2021.69472         2.87328         5.90267
     2021.69746         0.74631         5.77175
     2021.70020         0.33734         5.75449
     2021.70294         5.71737         5.68041
     2021.70568         7.52440         5.62154
     2021.70841         8.15743         5.69055
     2021.71115        -1.15654         5.70476
     2021.71389         5.44649         5.73927
     2021.71663         3.27152         5.77987
     2021.71937         0.34656         5.64793
     2021.72484        -5.09838         5.72405
     2021.73032        -0.96332         5.99300
     2021.73305         5.10471         5.61444
     2021.73579        11.47874         5.62357
     2021.73853         9.68977         5.66620
     2021.74127         9.19780         5.73217
     2021.74401         4.52683         5.66214
     2021.74674         2.84287         5.65300
     2021.74948         0.36790         5.60226
     2021.75222         3.81493         5.65199
     2021.75496         4.39096         5.70781
     2021.75770         2.32899         5.65097
     2021.76043         4.48402         5.63676
     2021.76317         4.51705         5.62357
     2021.76591         4.81708         5.63474
     2021.76865         1.68311         5.63575
     2021.77138         5.89915         5.64387
     2021.77412         5.91418         5.63778
     2021.77686         1.77821         5.63068
     2021.77960         9.71924         5.71288
     2021.78234         9.86527         5.79915
     2021.78507         9.50930         5.69360
     2021.78781         7.96533         5.65402
     2021.79055         2.86936         5.62865
     2021.79329        -1.46561         5.61444
     2021.79603         8.86542         5.66011
     2021.79876         5.49546         5.64184
     2021.80150        -0.28151         5.82858
     2021.80424         3.60952         5.76769
     2021.80698         3.90955         5.65605
     2021.80971         3.80058         5.77175
     2021.81245        16.20361         5.79610
     2021.81519        12.48664         5.62357
     2021.81793        10.11667         5.61241
     2021.82067         5.52170         5.73724
     2021.82340         3.75874         5.72912
     2021.82614         4.79577         5.78393
     2021.82888         8.78180         5.76160
     2021.83162         5.17383         5.69969
     2021.83436         5.84886         5.80321
     2021.83709         5.28889         5.74637
     2021.83983        -5.40408         5.75754
     2021.84257         3.31295         5.74840
     2021.84531         6.49898         5.86918
     2021.84804         4.08601         5.72405
     2021.85078         2.76105         5.77479
     2021.85352         2.57308         5.80118
     2021.85626         0.84311         5.63575
     2021.85900         3.98814         5.64184
     2021.86173         3.01417         5.63879
     2021.86447        -1.16880         5.77885
     2021.86721        -1.56577         5.95544
     2021.86995         5.14826         5.90267
     2021.87269         9.84229         5.72506
     2021.87542         5.94733         5.75855
     2021.87816         2.18336         5.60835
     2021.88090        -1.24161         5.72709
     2021.88364        -3.48958         5.68548
     2021.88637        -4.35055         5.67736
     2021.88911        -5.81952         5.69461
     2021.89185        -5.07649         5.67127
     2021.89459        -0.45746         5.67939
     2021.89733        -0.82943         5.69867
     2021.90006        -3.33640         5.69766
     2021.90280         0.41364         5.74942
     2021.90554        -1.20233         5.76058
     2021.90828         4.33270         5.68548
     2021.91102         1.16273         5.70882
     2021.91375        -2.77524         5.64387
     2021.91649         0.72279         5.71593
     2021.91923        -0.07218         5.69461
     2021.92197        -6.73815         5.83772
     2021.92470        -7.22812         5.71288
     2021.92744         3.02692         5.68954
     2021.93018        -1.49905         5.71593
     2021.93292         5.61198         5.85497
     2021.93566         5.82401         5.81437
     2021.93839        13.03604         5.78190
     2021.94113        11.91507         6.02141
     2021.94387         8.86110         5.72608
     2021.94661         2.46913         5.74028
     2021.94935         1.43816         5.72405
     2021.95208         7.98719         5.71694
     2021.95482        14.17723         5.89962
     2021.95756        10.80526         5.86918
     2021.96030        -0.10271         5.84989
     2021.96303         2.51832         5.89151
     2021.96577         5.85535         5.90470
     2021.96851         1.82938         5.87425
     2021.97125        11.70641         5.95544
     2021.97399         4.92244         5.84989
     2021.97672         9.66647         5.98995
     2021.97946        17.99051         5.89962
     2021.98220        14.91254         5.88948
     2021.98494        16.58757         5.98183
     2021.99041        11.91363         5.75957
     2021.99315         9.59166         5.74231
     2021.99589        16.67269         5.71187
     2021.99863        12.37072         5.75449
     2022.00136         5.35975         5.73318
     2022.00410        -3.23921         5.83670
     2022.00684       -10.08718         5.78393
     2022.00958         9.55885         5.78697
     2022.01232         2.92688         5.71999
     2022.01505         5.28891         5.68751
     2022.01779         4.19794         5.85395
     2022.02053         9.28197         5.76667
     2022.02327         0.93200         6.07317
     2022.02600         0.38703         5.77581
     2022.02874        -0.48194         5.75348
     2022.03148        -1.62790         5.76769
     2022.03422        -5.70187         5.78697
     2022.03696        -5.11684         5.80016
     2022.03969        -7.00781         5.72405
     2022.04243         6.16622         5.75551
     2022.04517        -5.23175         5.74739
     2022.04791        -1.22372         5.80727
     2022.05065         1.65931         5.81945
     2022.05338        -0.56866         5.73623
     2022.05612        -8.09762         5.81843
     2022.06160        -7.48156         5.79813
     2022.06433        -1.07953         5.87222
     2022.06707        -6.73050         5.76261
     2022.06981         0.43353         5.80524
     2022.07255        -7.61244         5.74130
     2022.07529        -5.06841         5.69664
     2022.07802        -5.19638         5.65909
     2022.08076         2.60265         5.70679
     2022.08350         2.35169         5.70070
     2022.08624        -1.29828         5.71390
     2022.08898         1.61975         5.66620
     2022.09171        -3.14922         5.66924
     2022.09445        -5.59919         5.66011
     2022.09719        -1.73316         5.66924
     2022.09993        -9.84913         5.76769
     2022.10266        -9.60410         5.80524
     2022.10540        -0.27707         5.77784
     2022.10814         1.52297         5.75754
     2022.11088         1.71200         5.67330
     2022.11362         0.05503         5.63372
     2022.11635        -1.48594         5.61951
     2022.11909        -5.21991         5.57689
     2022.12183         0.41812         5.58399
     2022.12457        10.38715         5.77784
     2022.12731         2.91518         5.62763
     2022.13004        -8.13279         5.59921
     2022.13278        -0.63676         5.65199
     2022.13552        -6.22172         5.59718
     2022.13826         6.62731         5.65503
     2022.14099         0.50134         5.63271
     2022.14373        -1.60263         5.60936
     2022.14647        -1.16160         5.64488
     2022.14921        -3.58257         5.83163
     2022.15195        -3.89954         5.81843
     2022.15468        -0.84051         5.62966
     2022.15742         0.50352         5.61647
     2022.16016        -2.63444         5.65808
     2022.16290        -4.85441         5.64590
     2022.16564        -5.94938         5.54136
     2022.16837         0.37665         5.66518
     2022.17111         0.72168         5.58298
     2022.17385        -1.15629         5.66315
     2022.17659        -1.82626         5.65199
     2022.17932        -5.76223         5.68852
     2022.18206        -8.73920         5.54542
     2022.18480        -4.62817         5.62154
     2022.18754        -1.87813         5.81640
     2022.19028        -4.76510         5.77987
     2022.19301        -1.57707         5.65503
     2022.19575         5.42796         5.53730
     2022.19849        -5.09201         5.64793
     2022.20123        -5.06498         5.65199
     2022.20397         5.26305         5.70984
     2022.20670        -0.52892         5.75754
     2022.20944         6.36011         5.79813
     2022.21218         1.51515         5.62154
     2022.21492        -3.05082         5.64691
     2022.21765        -3.21179         5.68852
     2022.22039        -6.31576         5.67838
     2022.22313        -2.87073         5.67127
     2022.22587       -10.42870         5.76667
     2022.22861        -4.66467         5.74028
     2022.23134         3.15136         5.66315
     2022.23408        -3.31061         5.67432
     2022.23682         6.30842         5.89962
     2022.23956         5.45646         5.63879
     2022.24230         4.63349         5.64184
     2022.24777         6.39955         5.65199
     2022.25051        -0.50642         5.70273
     2022.25325         2.50761         5.62053
     2022.25598         6.85964         5.59312
     2022.25872         9.74967         5.68548
     2022.26146        -4.61630         5.55659
     2022.26420        -4.45426         5.62763
     2022.26694         1.47977         5.78393
     2022.26967         7.86780         5.60124
     2022.27241        10.63083         5.56166
     2022.27515         6.13586         5.66924
     2022.27789        -0.64311         5.56369
     2022.28062        -0.02108         5.54441
     2022.28336        -1.36305         5.66214
     2022.28610         1.89498         5.66417
     2022.28884         3.52402         5.78596
     2022.29158        -1.09995         5.60936
     2022.29431        -8.39092         5.61139
     2022.29705        -2.72789         5.54542
     2022.29979         3.09414         5.58805
     2022.30253         7.81817         5.71897
     2022.30527         4.02420         5.70578
     2022.30800         0.73723         5.62256
     2022.31074        -3.14674         5.56268
     2022.31348        -1.86771         5.54339
     2022.31622        -1.79867         5.52411
     2022.31895       -13.12364         5.80625
     2022.32169         5.01739         5.92297
     2022.32443         2.66842         5.62256
     2022.32717        -6.69255         5.55760
     2022.32991         1.71748         5.58703
     2022.33264        -0.83249         5.73115
     2022.33538         0.75954         5.93210
     2022.34086         0.57061         5.63575
     2022.34360         7.47564         5.66924
     2022.34633         2.85567         5.66823
     2022.34907         8.45470         5.62865
     2022.35181         9.96973         5.66620
     2022.35455         3.42876         5.60226
     2022.35728        -2.95021         5.58298
     2022.36002         3.57882         5.59211
     2022.36276         5.83185         5.60124
     2022.36550         2.96988         5.59921
     2022.36824         2.60692         5.60429
     2022.37097         0.05195         5.69563
     2022.37371        -0.91302         5.60632
     2022.37645         0.05401         5.55151
     2022.37919         8.14604         5.73318
     2022.38193         1.09107         5.71897
     2022.38466        -0.24190         5.64894
     2022.38740       -12.59387         5.56065
     2022.39014        -8.62584         5.57080
     2022.39288         3.44020         5.58500
     2022.39561         0.81123         5.61545
     2022.39835         4.68526         5.64488
     2022.40109         5.06529         5.75043
     2022.40383         3.90732         5.51904
     2022.40657         2.49135         5.57892
     2022.40930        -6.31162         5.60936
     2022.41204         1.19641         5.60327
     2022.41478        -7.15856         5.57486
     2022.41752        -5.60353         5.93007
     2022.42026         6.84451         5.71187
     2022.42299         3.00754         5.55456
     2022.42573        -4.09843         5.52919
     2022.42847        -1.20740         5.69258
     2022.43121        -7.32237         5.66011
     2022.43394         5.52564         5.71288
     2022.43668        -1.33031         5.67330
     2022.43942         1.33872         5.62662
     2022.44216         1.68675         5.56775
     2022.44490         3.75879         5.73724
     2022.44763         0.79782         5.57689
     2022.45037         0.38985         5.55050
     2022.45311        -3.67312         5.51092
     2022.45585        -6.85309         5.49772
     2022.45859        -1.48706         5.68954
     2022.46132         2.44197         5.59921
     2022.46406         0.85200         5.55862
     2022.46680         1.35903         5.54339
     2022.46954        -5.92094         5.62560
     2022.47227        -8.95390         5.50889
     2022.47501         6.65913         5.54847
     2022.47775         0.75816         5.66417
     2022.48049        -7.80581         5.50889
     2022.48323        -0.42378         5.55862
     2022.48596        -0.15275         5.52716
     2022.48870        -1.40172         5.52716
     2022.49144         2.05331         5.63575
     2022.49418        -1.65166         5.63169
     2022.49692        -1.95462         5.61139
     2022.49965         0.85041         5.59617
     2022.50239        -9.31356         5.56369
     2022.50513         1.26047         5.84583
     2022.50787         6.39550         5.80118
     2022.51060         0.26553         5.61342
     2022.51334        -3.50244         5.56471
     2022.51608        -0.74941         5.62459
     2022.51882         3.49862         5.59820
     2022.52156         3.94465         5.52005
     2022.52429         1.12669         5.50077
     2022.52703         7.80572         5.54644
     2022.52977        12.42175         5.57689
     2022.53251         4.15778         5.93819
     2022.53525         0.54781         5.66620
     2022.53798         3.45884         5.66620
     2022.54072         8.25887         5.49468
     2022.54346         3.72890         5.57283
     2022.54620        10.12393         5.55862
     2022.54893         6.08097         5.57181
     2022.55167         6.98900         5.54339
     2022.55441         5.16103         5.56877
     2022.55715         5.94906         5.55456
     2022.55989        11.79009         5.55050
     2022.56262         8.75912         5.53324
     2022.56536         1.65315         5.57892
     2022.56810        -0.11182         5.50990
     2022.57084         1.93621         5.55659
     2022.57357         6.55325         5.68244
     2022.57631         5.95928         5.58298
     2022.57905        10.03231         5.55456
     2022.58179         8.24734         5.48757
     2022.58453         9.04637         5.80930
     2022.58726         8.20940         5.69157
     2022.59000         6.34243         5.66417
     2022.59274         5.19446         5.60023
     2022.59548         2.64049         5.58602
     2022.59822       -10.72848         5.64590
     2022.60095        -5.88844         5.53832
     2022.60369         6.59759         5.46829
     2022.60643         8.01162         5.49671
     2022.60917         1.20065         5.60835
     2022.61190        13.68568         5.68548
     2022.61464        10.16471         5.74333
     2022.61738        11.07974         5.54441
     2022.62012         1.68477         5.67127
     2022.62286         0.95680         5.50889
     2022.62559         4.43184         5.50787
     2022.62833         7.09287         5.53933
     2022.63107         6.27190         5.50381
     2022.63381         9.27993         5.58602
     2022.63655        10.20496         5.53122
     2022.63928         5.49599         5.57790
     2022.64202         5.72502         6.00213
     2022.64476         6.02405         5.89658
     2022.64750         4.57008         5.66518
     2022.65023        11.09711         5.63879
     2022.65297        12.27715         5.75145
     2022.65571        18.10418         5.70172
     2022.65845        18.65421         5.59820
     2022.66119         9.28224         5.46119
     2022.66392         3.13927         5.51802
     2022.66666         6.97830         5.48960
     2022.66940        11.67933         5.50077
     2022.67214        12.47236         5.43683
     2022.67488         9.62739         5.48554
     2022.67761        10.72643         5.46728
     2022.68035         8.43246         5.45002
     2022.68309        13.24049         5.51396
     2022.68583        18.13352         5.80625
     2022.68856        19.73355         5.54847
     2022.69130         8.76358         5.56877
     2022.69404        12.79961         5.54238
     2022.69678        13.06964         5.53933
     2022.69952         3.14567         5.59515
     2022.70225        17.01670         5.72303
     2022.70499        15.85074         5.75754
     2022.70773         8.52777         5.69461
     2022.71047         7.44480         5.50381
     2022.71321         8.85783         5.48757
     2022.71594        16.21186         5.48453
     2022.71868        15.76389         5.46423
     2022.72142        17.44092         5.56775
     2022.72416        16.59895         5.75043
     2022.72689        13.77298         5.56268
     2022.72963        13.21302         5.45814
     2022.73237         7.60405         5.44393
     2022.73511        11.55508         5.46525
     2022.73785         6.03511         5.46119
     2022.74058        11.52314         5.60429
     2022.74332        14.88417         5.72912
     2022.74606        13.87320         5.60327
     2022.74880        11.17723         5.47235
