# ================= DQRFIT RESULTS ================
# INPUT FILE: series/IDDR.rad
# OUTPUT: LDETRENDED
# FILTER FUNCTION: f(t)
# f(t)=+line(t)+annual(t)
# line(t)=+P 1+P 2*t
# annual(t)=+P 3*sin(2*pi*t+P 4)
# heav(t)=(t<0?0:1)
# TOTAL OBSERVATIONS MTOT= 2475
# INITIAL TIME INTERVAL= 2022.7488 - 2015.0034 =  7.7454
# TOTAL OBSERVATIONS AFTER PREFILTER M= 2473
# TIME-SPAN= 2022.7488 - 2015.0034 =  7.7454
# OBSERVATIONS: USED M=  2473 REJECTED MTOT-M=     2 %USED=   99.9192
# N=  4 PARAMETERS
# MAXSIG= 175.00000
# MAXRES=  22.38422
# SCALE FACTOR FOR LENGTHS: SCL=  10.00000
# SCALE FACTOR FOR SIGMAS: SCLSIG=   1.00000
# CHI^2=   2505.018 DOF=  2469 CHI^2/DOF=   1.01459
# RMS=      5.849 SDEV=      5.850 MEAN=   -0.06357
#  P #       PARAMETER +-    SIGMA %error PARAMETER NAME
# P 1 =      3119.41861 +-   99.837   3.20 YZERO                              
# P 2 =        -1.54861 +-    0.049   3.19 SLOPE                              
# P 3 =         6.92233 +-    0.158   2.28 ANNUAL AMPLITUDE                   
# P 4 =         3.05431 +-    0.032   1.05 ANNUAL PHASE                       
#       T            LDETRENDED       SIG_OBS
     2015.00342        -8.39786         5.44529
     2015.00616       -14.54362         5.41608
     2015.00889       -12.67038         5.52184
     2015.01163        -4.30514         5.44529
     2015.01437       -10.92090         5.52889
     2015.01711       -11.17166         5.60847
     2015.01984        -4.24542         5.49364
     2015.02258        -3.56218         5.62257
     2015.02532         2.49106         5.49364
     2015.02806        -3.66270         5.47249
     2015.03080        -1.37846         5.49364
     2015.03353        -7.06522         5.47349
     2015.03627        -4.44398         5.50170
     2015.03901        -3.79374         5.46040
     2015.04175         3.16250         5.49968
     2015.04449        -1.77926         5.49162
     2015.04722         2.36198         5.47047
     2015.04996        -1.28578         5.52184
     2015.05270        -5.62354         5.49263
     2015.05544        -6.53830         5.49968
     2015.05817         0.68694         5.49162
     2015.06091        -4.63782         5.51479
     2015.06365        -0.35558         5.59436
     2015.06639        -5.62534         5.46644
     2015.06913        -7.10110         5.52386
     2015.07186       -10.60986         5.50170
     2015.07460        -3.60462         5.57523
     2015.07734       -14.56438         5.53494
     2015.08008       -15.72814         5.51177
     2015.08282        -4.65890         5.50572
     2015.08555        -7.12466         5.54501
     2015.08829        -3.64542         5.54400
     2015.09103         3.20482         5.59034
     2015.09377       -16.09194         5.65077
     2015.09650        -1.24770         5.56818
     2015.09924         3.64154         5.65178
     2015.10198         9.51878         5.67495
     2015.10472         2.36702         5.51177
     2015.10746         0.27626         5.56112
     2015.11019        -8.14950         5.62458
     2015.11293       -10.06726         5.69711
     2015.11567       -10.75802         5.53997
     2015.11841       -11.43378         5.49162
     2015.12115        -4.41054         5.53997
     2015.12388        -9.30930         5.56314
     2015.12662       -10.69606         5.52486
     2015.12936        -5.12482         5.57321
     2015.13210        -8.05058         5.56918
     2015.13483        -7.90234         5.63868
     2015.13757        -0.35810         5.64976
     2015.14031        -9.28486         5.59638
     2015.14305        -9.12362         5.53494
     2015.14579       -11.21238         5.55105
     2015.14852        -9.71514         5.56112
     2015.15126        -6.95990         5.55307
     2015.15400       -10.29666         5.50371
     2015.15674        -4.85242         5.48356
     2015.15948        -0.96918         5.52486
     2015.16221        -5.79994         5.56918
     2015.16495       -10.15770         5.59739
     2015.16769        -4.04046         5.47148
     2015.17043        -5.67022         5.40903
     2015.17316       -10.41798         5.60041
     2015.17590       -13.99874         5.75754
     2015.17864       -10.32851         5.55307
     2015.18138        -8.13527         5.54501
     2015.18412        -4.99103         5.54602
     2015.18685        -9.69279         5.50069
     2015.18959        -9.05255         5.50371
     2015.19233       -10.03831         5.72229
     2015.19507       -12.77007         5.51479
     2015.19780        -7.68683         5.55911
     2015.20054        -3.28759         5.54803
     2015.20328        -6.42935         5.49968
     2015.20602       -11.15911         5.64372
     2015.20876        -8.15087         5.61350
     2015.21149       -13.60063         5.53695
     2015.21423       -14.14739         5.62962
     2015.21697        -6.66015         5.57422
     2015.21971        -9.06991         5.64473
     2015.22245        -7.17667         5.52688
     2015.22518        -1.81743         5.61652
     2015.22747        -6.10089         6.75675
     2015.28365         9.28311        10.39802
     2015.28542        -3.16115         5.71221
     2015.28815        -6.17491         5.63466
     2015.29089        -2.53967         5.54904
     2015.29363        -6.20043         5.54702
     2015.29637        -6.96519         5.52587
     2015.29911        -1.12395         5.51076
     2015.30184         0.48229         5.48860
     2015.30458        -4.17147         5.46946
     2015.30732        -7.16723        10.13009
     2015.31006        -1.33399         5.41306
     2015.31279        -5.61775         5.42011
     2015.31553        -7.14251         5.45536
     2015.31827        -7.87427         5.44730
     2015.32101        -8.67603         5.45033
     2015.32375        -6.80879         5.53494
     2015.32648        -4.96355         5.83510
     2015.32922        -9.69031         5.60746
     2015.33196        -2.76907         5.50472
     2015.33470         2.66117         5.44025
     2015.33744        -1.65959         5.55206
     2015.34017        -8.11235         5.46745
     2015.34291        16.29889         5.90158
     2015.34565        -1.76587         5.46946
     2015.34839        -0.14263         5.54400
     2015.35112        -8.56839         5.48356
     2015.35386        -4.95315         5.49162
     2015.35660        -6.30891         5.48457
     2015.35934        -5.81967         5.62156
     2015.36208         1.53157         5.62358
     2015.36481        -0.79619         5.50270
     2015.36755        -3.20595         5.48659
     2015.37029        -1.96671         5.48860
     2015.37303        -6.91548         5.50472
     2015.37577        -7.54024         5.47551
     2015.37850        -7.98300         5.66890
     2015.38124        -9.55776         5.54501
     2015.38398        -7.45152         5.51278
     2015.38672        -7.02028         5.50270
     2015.38945        -6.20304         5.46846
     2015.39219        -5.04080         5.47450
     2015.39493        -5.41556         5.49464
     2015.39767        -8.07532         5.50572
     2015.40041       -11.29708         5.55206
     2015.40314       -11.30284         5.72934
     2015.40588       -12.57860         5.52184
     2015.40862        -9.97736         5.57321
     2015.41136       -14.17212         5.56012
     2015.41410        -0.22688         5.59336
     2015.41683        -0.88864         5.62660
     2015.41957        -9.58540         5.45536
     2015.42231        -3.44616         5.59436
     2015.42505        -5.06092         5.66890
     2015.42778        -3.34168         5.42514
     2015.43052        -3.05444         5.42716
     2015.43326        -7.30220         5.41104
     2015.43600        -4.07796         5.47551
     2015.43874         6.74028         5.69005
     2015.44147        -6.63748         5.64775
     2015.44421        -1.99024         5.52889
     2015.44695        -1.62300         5.44327
     2015.44969         0.00624         5.45335
     2015.45243        -2.12052         5.61753
     2015.45516         1.49772         5.58933
     2015.45716        -9.13019         8.07124
     2015.46338         4.27044         5.56515
     2015.46611         6.52668         5.46745
     2015.46885        -0.04508         5.46342
     2015.47159         2.28016         5.41910
     2015.47433        -1.81860         5.52486
     2015.47707         6.26364         5.61955
     2015.47980        -1.28312         5.60947
     2015.48254        -5.67688         5.47047
     2015.48528        -7.86864         5.42514
     2015.48802        -4.84840         5.45536
     2015.49076        -1.57416         5.44831
     2015.49349        -0.74792         5.61048
     2015.49623        -3.03868         5.66487
     2015.49897        -0.01344         5.63566
     2015.50171         0.19180         5.37982
     2015.50444         2.36004         5.40500
     2015.50718        -0.75772         5.50270
     2015.50992        -5.25048         5.49364
     2015.51266         4.31276         5.46644
     2015.51540        -1.86400         5.42917
     2015.51813         0.95824         5.35967
     2015.52087         5.81848         5.46846
     2015.52361        -0.65928         5.61753
     2015.52635         3.50396         5.45133
     2015.52908         4.24820         5.48860
     2015.53182         0.08644         5.42313
     2015.53456         3.81268         5.45133
     2015.53730         1.74992         5.60746
     2015.54004        14.97216         5.66387
     2015.54277        -1.15060         5.57825
     2015.54551         7.05664         5.63667
     2015.54825         4.09888         5.52285
     2015.55099         6.05212         5.60544
     2015.55373         2.23236         5.57220
     2015.55646        10.85560         5.65480
     2015.55920        11.18684         5.64876
     2015.56194         5.90808         5.60242
     2015.56468         7.53431         5.57019
     2015.56741         5.83455         5.71423
     2015.57015         1.25079         5.72833
     2015.57289         0.02303         5.70919
     2015.57563         0.78427         5.55810
     2015.57837        -5.06049         5.64372
     2015.58110         8.76675         5.60343
     2015.58384         1.95099         5.61250
     2015.58658         9.23023         5.58429
     2015.58932        -1.00953         5.68703
     2015.59206         9.14471         5.80690
     2015.59479         4.44895         5.60847
     2015.59753        16.34819         5.65077
     2015.60027         3.58043         5.77164
     2015.60301         1.24067         5.77668
     2015.60574         4.48791         5.65178
     2015.60848         7.24015         5.56415
     2015.61122         6.23839         5.63163
     2015.61396         3.65963         5.67293
     2015.61670         4.97587         5.74243
     2015.61943        15.63711         5.85525
     2015.62217        11.33535         5.58631
     2015.62491        17.51259         5.53695
     2015.62765         5.62083         5.50875
     2015.63039         3.76907         5.44831
     2015.63312         6.45931         5.51278
     2015.63586        11.53555         5.53997
     2015.63860        10.73779         5.52184
     2015.64134         3.49403         5.42212
     2015.64407         9.53827         5.56616
     2015.64681        11.62451         5.59436
     2015.64955         1.97075         5.49666
     2015.65229         7.13999         5.50472
     2015.65503        11.14223         5.52990
     2015.65776         9.89647         5.50774
     2015.66050        19.75771         5.63365
     2015.66324        16.27195         5.52990
     2015.66598        10.16919         5.64574
     2015.66872        15.63043         5.68603
     2015.67145        14.08867         5.60041
     2015.67419        15.55391         5.63667
     2015.67693        15.98415         5.69610
     2015.67967        10.28139         5.49767
     2015.68240         9.26663         5.47752
     2015.68514         5.94087         5.56717
     2015.68788         8.61311         5.46040
     2015.69062         7.54135         5.49565
     2015.69336         4.76159         5.65681
     2015.69609         7.97083         5.55105
     2015.69883        13.24707         5.54702
     2015.70157        13.08331         5.52889
     2015.70431        16.65455         5.57523
     2015.70705        12.33179         5.53292
     2015.70978        13.43103         5.49062
     2015.71252         5.13227         5.56012
     2015.71526         8.71251         5.49666
     2015.71800        10.63175         5.50371
     2015.72073         9.69799         5.49767
     2015.72347         8.31623         5.51882
     2015.72621        -0.00153         5.47450
     2015.72895         1.66371         5.53594
     2015.73169         3.81895         5.50472
     2015.73442        10.24019         5.50572
     2015.73716        16.60143         5.54702
     2015.73990        17.51667         5.69005
     2015.74264         2.19791         5.62760
     2015.74538        10.18015         5.78071
     2015.74811        12.65439         5.74948
     2015.75085         5.51763         5.53695
     2015.75359         8.78287         5.50774
     2015.75633         6.25911         5.48356
     2015.75906         3.94834         5.52688
     2015.76180         0.95658         5.50572
     2015.76454         2.30482         5.46543
     2015.76728         4.17606         5.50371
     2015.77002        -1.83470         5.50774
     2015.77275         8.01654         5.50774
     2015.77549        15.92378         5.58933
     2015.77823        13.49002         5.50270
     2015.78097         9.39426         5.46141
     2015.78371         8.92550         5.49767
     2015.78644         8.13374         5.43421
     2015.78918         0.82398         5.43824
     2015.79192         5.34122         5.49162
     2015.79466         8.58546         5.48659
     2015.79739         7.41070         5.48356
     2015.80013         6.61994         5.64171
     2015.80287        -0.64582         5.41306
     2015.80561         4.99342         5.46241
     2015.80835         2.59666         5.49968
     2015.81108         1.30690         5.45637
     2015.81382         3.53514         5.48860
     2015.81656        -1.44162         5.47551
     2015.81930         8.65262         5.51378
     2015.82203         4.70086         5.57120
     2015.82477        12.27210         5.57523
     2015.82751        10.60634         5.59940
     2015.83025        15.46058         5.62257
     2015.83299         9.84182         5.47450
     2015.83572        10.29906         5.64976
     2015.83846         5.13830         5.78172
     2015.84120        11.13254         5.75956
     2015.84394         6.49178         5.69207
     2015.84668         2.80302         5.56012
     2015.84941         6.76226         5.61149
     2015.85215         7.32450         5.66387
     2015.85489        13.52774         5.76359
     2015.85763         4.12398         5.71927
     2015.86036         5.61122         5.64976
     2015.86310         6.25846         5.56213
     2015.86584         7.22570         5.63466
     2015.86858         3.11294         5.63969
     2015.87132         6.24718         5.70617
     2015.87405         8.75742         5.66387
     2015.87679         3.33366         5.50673
     2015.87953        12.36790         5.61250
     2015.88227         6.22314         5.62055
     2015.88501        -3.71462         5.53796
     2015.88774        -4.13438         5.56012
     2015.89048         6.30586         5.58228
     2015.89322         7.72210         5.51378
     2015.89596         9.09934         5.64372
     2015.89869        11.11858         5.68804
     2015.90143         5.26182         5.67696
     2015.90417         1.36706         5.62660
     2015.90691         3.99430         5.52285
     2015.90965         4.62754         5.51781
     2015.91238         2.68978         5.61149
     2015.91512         1.60302         5.62760
     2015.91786         1.95326         5.59940
     2015.92060         5.32550         5.60746
     2015.92334         3.19274         5.52083
     2015.92607        -2.38502         5.60847
     2015.92881        -1.21178         5.61350
     2015.93155         1.78446         5.74042
     2015.93429         3.56570         5.81193
     2015.93702        10.22394         5.74344
     2015.93976        12.29318         5.85928
     2015.94250         8.71142         5.83812
     2015.94524         6.69766         5.76963
     2015.94798        13.57790         5.69509
     2015.95071        13.07713         5.52386
     2015.95345         8.61837         5.40097
     2015.95619         8.46161         5.52889
     2015.95893         9.00585         5.67696
     2015.96167         7.63309         5.66890
     2015.96440        14.95433         5.47853
     2015.96714         9.90357         5.51781
     2015.96988        10.44681         5.48457
     2015.97262        15.45705         5.51580
     2015.97535         8.89129         5.51378
     2015.97809         3.47053         5.49968
     2015.98083         2.49877         5.49968
     2015.98357        -4.91699         5.48054
     2015.98631        -6.57575         5.44730
     2015.98864         1.13387         6.74567
     2016.01728         4.09322         8.87201
     2016.01916         2.58513         5.89050
     2016.02190         1.00637         5.58631
     2016.02464        -1.49039         5.50673
     2016.02737        -4.94615         5.48961
     2016.03011         0.26909         5.46946
     2016.03285         3.20233         5.45435
     2016.03559         3.78857         5.44126
     2016.03833         0.58181         5.53796
     2016.04106        -1.10195         5.46241
     2016.04380        -2.86971         5.46141
     2016.04654         6.81953         5.44126
     2016.04928         1.79277         5.44630
     2016.05201        -2.17899         5.41507
     2016.05475        -1.95575         5.39291
     2016.05749        -2.91251         5.47651
     2016.06023        -0.99727         5.42514
     2016.06297         1.60897         5.41205
     2016.06570        -0.64979         5.51882
     2016.06844        -2.94255         5.49867
     2016.07118        -6.83831         5.53494
     2016.07392        -2.76307         5.54199
     2016.07666         3.67317         5.58631
     2016.07939         8.85341         5.62458
     2016.08213        -0.17435         5.65077
     2016.08487         2.17189         5.47954
     2016.08761        -4.14687         5.50472
     2016.09034        -4.97063         5.53091
     2016.09308         2.09061         5.53997
     2016.09582        -4.40815         5.47853
     2016.09856        -4.74891         5.52688
     2016.10130        -9.03167         5.49162
     2016.10403       -10.79143         5.47954
     2016.10677       -11.07719         5.47551
     2016.10951        -5.12695         5.55004
     2016.11225        -6.15271         5.55105
     2016.11498        -5.80947         5.54501
     2016.11772        -5.74723         5.56918
     2016.12046         4.16001         5.51479
     2016.12320         2.53825         5.56818
     2016.12594         0.02549         5.63969
     2016.12867         1.99773         5.55105
     2016.13141        11.35997         5.54299
     2016.13415        14.08121         5.55407
     2016.13689         3.87245         5.53494
     2016.13963        -4.31831         5.45435
     2016.14236        -8.52007         5.48860
     2016.14510        -6.94784         5.48155
     2016.14784        -8.56460         5.52386
     2016.15058        -5.64536         5.49364
     2016.15331        -5.06612         5.63667
     2016.15605         1.31312         5.57019
     2016.15879        -7.20264         5.62559
     2016.16153         1.60960         5.62962
     2016.16427        -3.62416         5.66387
     2016.16700        -4.70792         5.55710
     2016.16974        -4.83968         5.54501
     2016.17248        -1.55144         5.72128
     2016.17522        -3.95520         5.56213
     2016.17796         4.71304         5.52688
     2016.18069         1.14128         5.58429
     2016.18343        -2.21448         5.79783
     2016.18617        -7.85324         5.53594
     2016.18891         0.07300         5.47551
     2016.19164         2.80224         5.43320
     2016.19438         4.87448         5.39895
     2016.19712        -0.81228         5.42414
     2016.19986         9.79896         5.67192
     2016.20260        -4.02380         5.59134
     2016.20533        -7.96656         5.66689
     2016.20807        -0.03732         5.72934
     2016.21081        -8.26408         5.57623
     2016.21355        -8.14684         5.61350
     2016.21629       -10.46960         5.42313
     2016.21902        -1.17736         5.47853
     2016.22176        -0.58012         5.49968
     2016.22450        -3.64688         5.45838
     2016.22724        -2.81664         5.47752
     2016.22997        -4.85040         5.60847
     2016.23271        -4.17216         5.50875
     2016.23545        -7.45292         5.49666
     2016.23819        -2.44668         5.47752
     2016.24093         6.52456         5.56717
     2016.24366        -0.58320         5.53494
     2016.24640        -0.00596         5.52386
     2016.24914        -7.07372         5.46543
     2016.25188        -0.78148         5.54904
     2016.25462         0.51976         5.51983
     2016.25735        -6.48000         5.59235
     2016.26009        -5.21176         5.66689
     2016.26283       -11.60252         5.56717
     2016.26557        -5.67928         5.59436
     2016.26830        -4.88004         5.58530
     2016.27104         1.43120         5.55710
     2016.27378         3.75544         5.64976
     2016.27652        -2.93332         5.66890
     2016.27926        -0.14208         5.60746
     2016.28199        -2.32884         5.66185
     2016.28473        -6.08860         5.60444
     2016.28747        -3.24936         5.48860
     2016.29021       -10.16712         5.53191
     2016.29568        -9.02164         5.56616
     2016.29842        -0.99540         5.61955
     2016.30116       -10.11316         5.61552
     2016.30390       -11.62292         5.53091
     2016.30663        -2.73268         5.60343
     2016.30937         0.06456         5.59235
     2016.31211        -6.26620         5.55609
     2016.31485        -0.05996         5.59940
     2016.31759        -2.07172         5.55206
     2016.32032        -8.23248         5.52688
     2016.32306       -10.41524         5.54400
     2016.32580        -6.54400         5.55206
     2016.32854        -7.00976         5.57523
     2016.33128        -6.25552         5.60142
     2016.33401        -3.55128         5.62559
     2016.33675        -7.41005         5.55508
     2016.33949        -7.81981         5.58228
     2016.34223        -4.10557         5.66487
     2016.34496        -4.38633         5.73538
     2016.34770         3.79391         5.70617
     2016.35044         0.11115         5.68804
     2016.35318        -3.63261         5.56314
     2016.35592        -7.80337         5.49263
     2016.35865       -12.32613         5.52386
     2016.36139        -7.02889         5.56213
     2016.36413         1.93235         5.59839
     2016.36687        -4.05841         5.50270
     2016.36961         0.15783         5.54803
     2016.37234         2.93107         5.53796
     2016.37508        -0.83669         5.52688
     2016.37782        -6.56145         5.55609
     2016.38056        -1.46921         5.59739
     2016.38329        -4.09897         5.62156
     2016.38603        -9.64873         5.59134
     2016.38877         5.08351         5.55710
     2016.39151        -0.98025         5.48860
     2016.39425        -6.41801         5.58631
     2016.39698        -6.42277         5.57422
     2016.39972        -3.61253         5.61552
     2016.40246        -2.44529         5.62962
     2016.40520        -5.62605         5.53292
     2016.40794        -9.80481         5.56012
     2016.41067        -9.97357         5.59638
     2016.41341       -11.45533         5.48759
     2016.41615       -11.67509         5.47047
     2016.41889        -4.20285         5.52285
     2016.42162         1.90439         5.56112
     2016.42436        -9.98637         5.56616
     2016.42710        -8.40013         5.49263
     2016.42984        -6.15889         5.49968
     2016.43258        -5.43765         5.55206
     2016.43531         1.79259         5.55710
     2016.43805        -3.97217         5.59537
     2016.44079        -5.36393         5.54904
     2016.44353        -3.02069         5.47651
     2016.44626        -9.75045         5.48759
     2016.44900        -6.29621         5.62055
     2016.45174         1.95203         5.55307
     2016.45448         0.15227         5.53292
     2016.45722         2.20651         5.60343
     2016.45961        -2.63478         6.32967
     2016.46600       -12.13389         7.22916
     2016.46771        -4.17924         6.70236
     2016.47193        20.56630        11.46371
     2016.47364         1.55395         5.45435
     2016.47638         5.03819         5.50572
     2016.47912        12.31743         5.69912
     2016.48186         2.62767         5.44025
     2016.48459        -4.55009         5.43824
     2016.48733        -7.31085         5.44227
     2016.49007        -2.22561         5.50270
     2016.49281        -1.07837         5.47148
     2016.49520         4.62934         6.40924
     2016.50764         9.85759        14.94584
     2016.50924         7.58607         5.48759
     2016.51197        11.11931         5.50170
     2016.51471         4.62055         5.49464
     2016.51745        -0.19021         5.53091
     2016.52019         3.72903         5.44831
     2016.52292         8.75827         5.56918
     2016.52566         5.58551         5.47148
     2016.52840         0.99575         5.48054
     2016.53114        -2.15402         5.44227
     2016.53388         0.96422         5.44932
     2016.53661         6.13246         5.52386
     2016.53935         9.38670         5.47651
     2016.54209         3.88194         5.52285
     2016.54483         6.99418         5.56515
     2016.54757         4.13742         5.57724
     2016.55030         7.85366         5.65279
     2016.55304         2.98190         5.47853
     2016.55578         9.27114         5.58026
     2016.55852        11.25038         5.49062
     2016.56125         6.47962         5.41306
     2016.56399         4.63786         5.43522
     2016.56673         3.52210         5.56918
     2016.56947         0.10134         5.69207
     2016.57221         4.71058         5.59336
     2016.57494         7.49182         5.65279
     2016.57768        10.27306         5.55609
     2016.58042        10.84330         5.69912
     2016.58316         7.35254         5.54199
     2016.58590         1.79978         5.52688
     2016.58863        17.20102         5.58731
     2016.59137         2.09426         5.49062
     2016.59411         6.21050         5.52386
     2016.59685         2.87774         5.63063
     2016.59958         3.36098         5.63768
     2016.60232         7.31322         5.56515
     2016.60506         9.51246         5.54199
     2016.60780        16.72270         5.54501
     2016.61054         7.85294         5.54299
     2016.61327        -0.66082         5.47349
     2016.61601         4.26042         5.49062
     2016.61875         8.10166         5.59436
     2016.62149         7.86590         5.55609
     2016.62423        13.95014         5.90662
     2016.62696        14.24838         5.59940
     2016.62970         0.14262         5.52990
     2016.63244        -0.52114         5.76359
     2016.63518         6.55610         5.48256
     2016.63791         9.75034         5.51378
     2016.64065        16.40258         5.50774
     2016.64339        14.04082         5.51983
     2016.64613        11.34006         5.48659
     2016.64887         6.60530         5.44730
     2016.65160        10.60654         5.63466
     2016.65434         4.64978         5.50472
     2016.65708         4.89302         5.51882
     2016.65982         0.48026         5.46443
     2016.66256         3.09450         5.51781
     2016.66529         7.82574         5.46040
     2016.66803        12.77198         5.58933
     2016.67077        13.20922         5.72329
     2016.67351        12.68646         5.55407
     2016.67624        14.70870         5.46644
     2016.67898         7.52494         5.47148
     2016.68172        14.29018         5.48457
     2016.68446        13.04742         5.73740
     2016.68720         4.45366         5.88345
     2016.68993        11.34390         5.61955
     2016.69267         3.14014         5.43421
     2016.69541         9.58638         5.47954
     2016.69815        16.58962         5.46946
     2016.70089        10.52586         5.53695
     2016.70362         9.65310         5.70013
     2016.70636         4.85634         5.77567
     2016.70910         4.98258         5.74545
     2016.71184         7.52182         5.52587
     2016.71457        25.52506         5.65077
     2016.71731        19.06130         5.57523
     2016.72005        23.17954         5.53494
     2016.72279        21.47377         5.56012
     2016.72553        16.32401         5.68905
     2016.72826        11.74525         5.76661
     2016.73100         6.58249         5.46846
     2016.73374         5.50973         5.45033
     2016.73648         6.44797         5.39493
     2016.73921         7.76121         5.44126
     2016.74195         6.12745         5.48759
     2016.74469         2.35869         5.50472
     2016.74743         5.61793         5.52788
     2016.75017         5.69517         5.49162
     2016.75290        13.34041         5.54199
     2016.75564        16.59765         5.56213
     2016.75838         9.08789         5.43824
     2016.76112         7.43313         5.43824
     2016.76386         6.46637         5.43723
     2016.76659         3.78761         5.45133
     2016.76933         0.77285         6.15340
     2016.77235         0.22953         8.25859
     2016.77504        14.11969         6.20477
     2016.77754        17.34257         5.48659
     2016.78028         2.87881         5.41910
     2016.78302         2.71005         5.49464
     2016.78576        19.53529         5.49364
     2016.78850        16.30853         5.48155
     2016.79123         8.89177         5.55609
     2016.79397        22.49401         5.61955
     2016.79671         9.43625         5.49565
     2016.79945        -0.69951         5.47349
     2016.80219         2.99173         5.48155
     2016.80492         6.78697         5.44529
     2016.80766        10.90621         5.44428
     2016.81040         5.09045         5.45939
     2016.81314         1.48269         5.52990
     2016.81587         0.30693         5.54602
     2016.81861        -0.04983         5.44428
     2016.82135         7.95041         5.48155
     2016.82409        10.18365         5.43522
     2016.82683         2.77789         5.53494
     2016.82956         1.98413         5.52688
     2016.83230        18.95537         5.58530
     2016.83504         1.61361         5.44428
     2016.83778        -0.85015         5.45234
     2016.84052        -0.28991         5.43925
     2016.84325        -0.57767         5.46745
     2016.84599         3.03657         5.48054
     2016.84873         8.22381         5.43824
     2016.85147         3.59705         5.44327
     2016.85420         1.34029         5.44730
     2016.85694         2.25053         5.42615
     2016.85968         0.67777         5.67897
     2016.86242        -2.95699         5.48256
     2016.86516         4.49225         5.45234
     2016.86789         7.36249         5.48457
     2016.87063        10.76473         5.47853
     2016.87337        17.66097         5.53796
     2016.87611        13.98121         5.57523
     2016.87885         3.91145         5.48860
     2016.88158        -6.27731         5.45133
     2016.88432         5.75093         5.48457
     2016.88706        11.82117         5.53494
     2016.88980         6.46841         5.51580
     2016.89253         0.61765         5.50472
     2016.89527         4.99789         5.47752
     2016.89801         1.64013         5.52083
     2016.90075         5.08437         5.49666
     2016.90349        10.56861         5.72430
     2016.90622        18.84685         5.68703
     2016.90896        10.12509         5.50170
     2016.91170         7.35633         5.46946
     2016.91444         4.34757         5.40701
     2016.91718         3.11080         5.52889
     2016.91991        -1.83296         5.54803
     2016.92265         0.65628         5.45133
     2016.92539         2.72652         5.48155
     2016.92813         4.18276         5.40399
     2016.93086        -3.23900         5.39291
     2016.93360        -1.95776         5.38082
     2016.93634        -4.93652         5.35766
     2016.93908        -6.14128         5.45738
     2016.94182         1.54396         5.41003
     2016.94455        -0.11480         5.36974
     2016.94729        11.59244         5.47752
     2016.95003         2.40568         5.52184
     2016.95277         2.47492         5.48961
     2016.95551        -1.41284         5.42615
     2016.95824         5.27240         5.41406
     2016.96098         2.15664         5.33953
     2016.96372        -5.91812         5.39996
     2016.96646        -6.84488         5.45536
     2016.96919        -6.57264         5.39493
     2016.97193        -8.06140         5.39593
     2016.97467        -2.17116         5.35463
     2016.97741         1.46808         5.42011
     2016.98015         2.19432         5.38989
     2016.98288         0.25956         5.35061
     2016.98562        -2.38720         5.37176
     2016.98836        -1.94596         5.34859
     2016.99110         4.52428         5.36068
     2016.99384        -4.57248         5.41709
     2016.99657         3.21476         5.35161
     2016.99931        -1.32100         5.34053
     2017.00205         1.37424         5.35262
     2017.00479        -1.94052         5.34456
     2017.00752        -7.02728         5.34557
     2017.01026        -2.54604         5.36571
     2017.01300        -4.32480         5.33953
     2017.01574        -6.02956         5.36068
     2017.01848        -8.28532         5.32240
     2017.02121        -3.36908         5.36773
     2017.02395         0.97516         5.43522
     2017.02669        -0.53260         5.48457
     2017.02943         6.97564         5.35766
     2017.03216        -1.87812         5.34658
     2017.03490        -4.67288         5.35564
     2017.03764        -9.46264         5.41104
     2017.04038        -7.54240         5.36974
     2017.04312        -5.10216         5.35766
     2017.04585        -4.12792         5.48659
     2017.04859         0.96332         5.49867
     2017.05133         6.13656         5.42514
     2017.05407        10.49880         5.39694
     2017.05681         7.67404         5.37982
     2017.05954        -3.49972         5.35564
     2017.06228        -1.10948         5.38082
     2017.06502        -2.93524         5.35061
     2017.06776        -4.01700         5.40601
     2017.07049        -5.83876         5.41306
     2017.07323        -8.10452         5.35967
     2017.07597       -14.98128         5.43522
     2017.07871       -12.85504         5.35766
     2017.08145       -11.72180         5.77769
     2017.08418        -6.27856         9.87827
     2017.08675         2.93541        11.88677
     2017.09006       -18.45547        94.59049
     2017.09325        -5.16352         8.75316
     2017.09514        -2.67460         5.43925
     2017.09787         6.03664         5.45033
     2017.10061         8.94488         5.63969
     2017.10341        -4.02880        10.65991
     2017.10609        -7.74864        19.33148
     2017.10888         6.80668         6.75776
     2017.11156        -6.91917         8.32507
     2017.11436        -4.82884         5.51177
     2017.11704       -14.92569         5.87741
     2017.11978       -13.79145         5.38989
     2017.12251       -14.26621         9.39378
     2017.12497       -14.12641        17.08427
     2017.12799        -3.39473         7.29564
     2017.13078        -5.96040        11.58761
     2017.13290        -6.24113        12.46494
     2017.13620         1.16699        13.83482
     2017.13866         0.81179        33.99528
     2017.14168       -13.98853         7.35608
     2017.14442        -9.38329         6.15441
     2017.14721        -9.02896        11.40126
     2017.14909       -13.51504        17.92332
     2017.15240       -21.05792        35.60993
     2017.15554        -4.63406         5.75956
     2017.15811        -2.86709         5.57019
     2017.16084        -7.03485         5.75754
     2017.16358       -15.87161         5.36571
     2017.16632       -13.93037         5.41507
     2017.16906       -10.16713         5.46644
     2017.17180        -1.14189         5.44327
     2017.17453        -5.86565         5.44428
     2017.17727        -3.48041         5.49364
     2017.18001        -3.80717         5.44327
     2017.18275        -4.06193         5.47551
     2017.18548        -6.27669         5.52486
     2017.18822       -16.12945         5.44831
     2017.19096       -14.27421         5.46241
     2017.19370        -6.56297         5.48054
     2017.19644        -9.56473         5.44831
     2017.19917       -10.49549         5.46543
     2017.20191        -6.01225         5.51580
     2017.20465        -8.76901         5.60544
     2017.20739       -11.63577         5.50371
     2017.21013        -2.33253         5.43522
     2017.21286        -5.47129         5.51378
     2017.21560       -11.78305         5.75452
     2017.21834        -8.18581         5.54602
     2017.22108         1.46243         5.53191
     2017.22381        -6.81833         5.54299
     2017.22655        -5.82409         5.59336
     2017.22929        -6.58385         5.51177
     2017.23203        -5.00161         5.47450
     2017.23477        -3.78537         5.47954
     2017.23750       -11.99013         5.47853
     2017.24024        -8.58589         5.47954
     2017.24298        -8.24665         5.50572
     2017.24572        -4.46141         5.47551
     2017.24846        -8.17817         5.43421
     2017.25119        -8.29893         5.51580
     2017.25393        -2.19169         5.50170
     2017.25667        -5.78445         5.45536
     2017.25941       -15.38821         5.47853
     2017.26214       -11.69097         5.50270
     2017.26488         2.75327         5.51882
     2017.26762        -3.02049         5.52184
     2017.27036        -5.00925         5.50875
     2017.27310       -13.63601         5.49867
     2017.27583       -10.73177         5.51278
     2017.27857       -14.78753         5.53594
     2017.28131        -8.25629         5.58530
     2017.28405        -9.70005         5.51983
     2017.28679       -12.63781         5.48659
     2017.28952       -11.97857         5.49968
     2017.29226        -4.97433         5.55004
     2017.29500       -12.46109         5.51076
     2017.29774       -11.47785         5.47651
     2017.30047       -14.55161         5.47551
     2017.30321       -14.87738         5.51076
     2017.30595       -15.51314         5.47651
     2017.30869        -9.17290         5.50371
     2017.31143        -5.41366         5.48860
     2017.31416       -22.00242         5.53292
     2017.31690       -11.20818         5.55508
     2017.31964       -14.84894         5.57523
     2017.32238       -10.34270         5.62358
     2017.32512       -10.31146         5.46443
     2017.32785       -10.31622         5.50673
     2017.33059       -10.59598         5.48155
     2017.33333       -13.31074         5.49062
     2017.33607       -14.79950         5.51378
     2017.33880       -10.97826         5.50069
     2017.34154        -9.09502         5.58631
     2017.34428        -8.76878         5.50069
     2017.34702        -6.23754         5.52083
     2017.34976       -10.68130         5.48356
     2017.35249       -13.21406         5.47249
     2017.35523       -12.52482         5.47249
     2017.35797       -14.71258         5.42111
     2017.36071        -4.40034         5.46241
     2017.36344       -11.59410         5.44025
     2017.36618       -11.83886         5.45335
     2017.36892        -5.67662         5.49767
     2017.37166        -6.18438         5.46342
     2017.37440        -6.67314         5.41608
     2017.37713        -8.01690         5.52688
     2017.37987       -13.48266         5.50270
     2017.38261       -11.82142         5.42514
     2017.38535       -16.10918         5.43723
     2017.38809       -12.64494         5.43824
     2017.39082       -13.03170         5.44327
     2017.39356         1.03554         5.57724
     2017.39630        -4.17322         5.44730
     2017.39904        -8.59898         5.46846
     2017.40177       -12.54174         5.42716
     2017.40451        -9.13750         5.63466
     2017.40725       -14.38526         5.49767
     2017.40999        -9.43302         5.46241
     2017.41273        -9.05778         5.47551
     2017.41546       -14.63554         5.45234
     2017.41820        -4.43430         5.60645
     2017.42094        -9.94906         5.44025
     2017.42368        -3.56082         5.46543
     2017.42642        -5.33158         5.47752
     2017.42915        -7.32434         5.45838
     2017.43189        -2.60110         5.58631
     2017.43463       -11.35286         5.43421
     2017.43737        -2.04662         5.40601
     2017.44010         4.55462         5.43421
     2017.44284        -1.92714         5.45738
     2017.44558        -3.07590         5.81496
     2017.44832        -2.94266         5.43219
     2017.45106        -4.47242         5.39593
     2017.45379         5.05182         5.55911
     2017.45653         6.18106         5.56213
     2017.45927        -2.20970         5.50673
     2017.46201        -7.69846         5.38183
     2017.46475       -12.39522         5.41205
     2017.46748        -2.83998         5.43320
     2017.47022       -12.37274         5.60645
     2017.47296       -10.85150         5.45838
     2017.47570       -10.13226         5.44831
     2017.47843       -16.48502         5.37377
     2017.48117        -5.86978         5.35061
     2017.48391        -4.48554         5.39996
     2017.48665         0.41670         5.61652
     2017.48939         0.73794         5.48054
     2017.49212        -7.40082         5.48558
     2017.49486        -9.34159         5.45234
     2017.49760        -4.79435         5.47249
     2017.50034         0.50589         5.48356
     2017.50308         0.49513         5.47148
     2017.50581        -0.28763         5.53292
     2017.50855        -5.22039         5.51278
     2017.51129         1.11085         5.60444
     2017.51403        -6.16991         5.50371
     2017.51676        -1.41967         5.45133
     2017.51950        -5.02143         5.52486
     2017.52224         4.41881         5.63969
     2017.52498         4.71705         5.46946
     2017.52772        -6.96771         5.61854
     2017.53045        -0.89347         5.51278
     2017.53319        -4.98723         5.57422
     2017.53593        -1.52799         5.55307
     2017.53867         3.76525         5.54702
     2017.54141        10.57349         5.56616
     2017.54414         6.18873         5.62559
     2017.54688        11.19697         5.64574
     2017.54962        13.19821         5.65279
     2017.55236         7.56245         5.47954
     2017.55509        -0.00631         5.41306
     2017.55783        -3.79407         5.42011
     2017.56057        -7.87983         5.51177
     2017.56331         0.49941         5.46040
     2017.56605        -2.97535         5.48860
     2017.56878        -4.35311         5.59134
     2017.57152        -1.08487         5.54803
     2017.57426        -8.21563         5.62760
     2017.57700        -2.63039         5.56415
     2017.57974        -7.46915         5.55105
     2017.58247         0.03709         5.59940
     2017.58521        -4.74067         5.53292
     2017.58795        -6.75043         5.61552
     2017.59069        -0.72019         5.74344
     2017.59342         2.51605         5.53091
     2017.59616         3.92429         5.50673
     2017.59890        -2.69647         5.43421
     2017.60164         6.92477         5.49666
     2017.60438        -8.40199         5.53594
     2017.60711         0.39125         5.54904
     2017.60985        -3.85051         5.58429
     2017.61259        -0.56427         5.46846
     2017.61533         4.15397         5.55609
     2017.61807        14.73321         5.66185
     2017.62080         3.27945         5.53594
     2017.62354         0.80269         5.49968
     2017.62628         0.72193         5.57422
     2017.62902         7.08817         5.67092
     2017.63175         2.65641         5.51580
     2017.63449         3.31065         5.53997
     2017.63723         1.08789         5.51479
     2017.63997         2.94813         5.48759
     2017.64271         6.59337         5.46846
     2017.64544         1.00361         5.46342
     2017.64818         5.81285         5.70718
     2017.65092         1.84809         5.46040
     2017.65366         4.67533         5.43925
     2017.65639        -1.88943         5.46040
     2017.65913         6.31781         5.49263
     2017.66187         2.65305         5.54803
     2017.66461         1.52429         5.55810
     2017.66735         7.21653         5.58731
     2017.67008         3.90477         5.46644
     2017.67282         5.46101         5.66689
     2017.67556        -1.20375         5.45637
     2017.67830         2.86249         5.45738
     2017.68104         2.49773         5.43925
     2017.68377         6.94897         5.56918
     2017.68651        10.52021         5.71322
     2017.68925        16.69944         5.52184
     2017.69199         8.86768         5.52083
     2017.69472         9.59492         5.41809
     2017.69746        11.68316         5.58832
     2017.69980        13.52279         6.93604
     2017.70642        10.94103         8.12160
     2017.70841         2.27012         5.41104
     2017.71115         3.72536         5.45536
     2017.71389         9.03160         5.41809
     2017.71663        16.93384         5.50472
     2017.71937        13.30908         5.41608
     2017.72210         7.28532         5.47148
     2017.72484         2.55256         5.39996
     2017.72758         4.16780         5.43119
     2017.73032         5.38804         5.40198
     2017.73305         5.58528         5.39392
     2017.73579         3.92452         5.41003
     2017.73853        -1.08624         5.42716
     2017.74127         2.52200         5.48356
     2017.74401         2.20924         5.45738
     2017.74674         4.27448         5.46141
     2017.74948         8.63672         5.46745
     2017.75222        -0.35904         5.43522
     2017.75496         5.04720         5.46644
     2017.75770        -1.00056         5.60947
     2017.76043         0.30968         5.46543
     2017.76317         5.72992         5.42313
     2017.76500         0.95675         9.81079
     2017.77156         4.03391         5.92475
     2017.77412         1.35888         5.45939
     2017.77686         2.24812         5.46141
     2017.77960        12.49136         5.57220
     2017.78234         4.19160         5.44529
     2017.78507         2.74884         5.43421
     2017.78781        -3.56792         5.46342
     2017.79055        -2.73768         5.49062
     2017.79329         3.39956         5.44126
     2017.79603         9.51080         5.44428
     2017.79876         7.02004         5.55105
     2017.80150        13.77228         5.56213
     2017.80424         4.73452         5.38989
     2017.80698         0.65176         5.45939
     2017.80971         2.56700         5.50572
     2017.81245        -0.86376         5.44227
     2017.81519         3.65148         5.47047
     2017.81793        -1.11428         5.47148
     2017.82067         0.66196         5.59537
     2017.82340         1.41920         5.61652
     2017.82614         1.45844         5.64070
     2017.82888         0.91668         5.48558
     2017.83162         6.80292         5.51479
     2017.83436         4.68716         5.56818
     2017.83709        -7.52260         5.58026
     2017.83983        10.11164         5.52788
     2017.84257         2.01188         5.49666
     2017.84531         8.13012         5.50371
     2017.84804         2.12636         5.57220
     2017.85078         2.86260         5.48256
     2017.85352         0.05984         5.47752
     2017.85626         3.92508         5.60746
     2017.85900         7.21932         5.59839
     2017.86173         6.57756         5.67595
     2017.86447        -0.94820         5.71020
     2017.86603         7.63921        17.11650
     2017.90925         3.06214         9.62142
     2017.91102         2.25087         5.59436
     2017.91375         0.58611         5.54501
     2017.91649        -0.13165         5.45335
     2017.91923         4.92559         5.46946
     2017.92197         9.07783         5.44630
     2017.92470        -1.14793         5.45234
     2017.92744        -4.50469         5.45335
     2017.93018        -4.91745         5.50673
     2017.93292        -7.13721         5.49867
     2017.93566        -4.88197         5.43320
     2017.93839        -3.04873         5.41809
     2017.94113        -1.00649         5.46543
     2017.94387         0.44075         5.42615
     2017.94661         2.99799         5.49162
     2017.94935         0.41623         5.46141
     2017.95208        -4.20553         5.58933
     2017.95482        -0.40129         5.42313
     2017.95756         2.40495         5.36571
     2017.96030         2.67519         5.36874
     2017.96303         1.16743         5.59638
     2017.96577         3.07367         5.55609
     2017.96851         6.49791         5.42111
     2017.97125        -2.79985         5.37982
     2017.97399        -3.70461         5.37277
     2017.97672         0.18463         5.37176
     2017.97946        -3.82613         5.37679
     2017.98220        -7.01189         5.38888
     2017.98494        -7.26565         5.38284
     2017.98767        -5.41941         5.40500
     2017.99041        -5.57817         5.38284
     2017.99315         4.72207         5.43320
     2017.99589         0.31531         5.44025
     2017.99863        -5.48545         5.40298
     2018.00136       -10.19621         5.47853
     2018.00410       -11.86697         5.39493
     2018.00684        -9.49073         5.40298
     2018.00958        -5.98449         5.41507
     2018.01232        -3.39625         5.48759
     2018.01505        -2.11001         5.48860
     2018.01779         1.31423         5.42414
     2018.02053        -5.05653         5.39895
     2018.02327         4.21171         5.42011
     2018.02600         9.32595         5.51680
     2018.02874        -1.62981         5.46443
     2018.03148        -3.74657         5.38989
     2018.03422        -7.41133         5.36672
     2018.03696       -13.84309         5.37579
     2018.03969       -12.87185         5.41205
     2018.04243       -11.18661         5.42111
     2018.04517       -11.81437         5.45133
     2018.04791        -6.18113         5.39392
     2018.05065         1.45111         5.48860
     2018.05338         1.19135         5.44831
     2018.05612        -6.11841         5.44932
     2018.05886        -8.15917         5.46745
     2018.06160        -8.26593         5.37277
     2018.06433        -4.64369         5.51882
     2018.06707         7.45055         5.52587
     2018.06981        -4.60521         5.52990
     2018.07255       -11.63598         5.54098
     2018.07529       -16.77274         5.52688
     2018.07802       -15.18450         5.50069
     2018.08076        -4.74926         5.57724
     2018.08350        -4.28902         5.61048
     2018.08624       -12.64078         5.71423
     2018.08898       -12.86054         5.54602
     2018.09171        -4.01030         5.59739
     2018.09445         1.86494         5.61350
     2018.09719         3.83218         5.76258
     2018.09993        -8.23158         5.61552
     2018.10266       -14.52234         5.59940
     2018.10540        -8.61110         5.73437
     2018.10814         2.42814         5.55810
     2018.11088        -4.92662         5.62358
     2018.11362        -4.74938         5.61854
     2018.11635        -6.48114         5.58026
     2018.11909        -6.43290         5.72531
     2018.12183        -3.68366         5.64574
     2018.12457        -2.43342         5.55508
     2018.12731        -8.19818         5.49767
     2018.13004         1.36206         5.50472
     2018.13278         5.73730         5.57926
     2018.13552         2.30954         5.52083
     2018.13826        -1.29422         5.48860
     2018.14099        -5.13498         5.48558
     2018.14373        -2.55974         5.49666
     2018.14647        -2.22750         5.78474
     2018.14921        -4.48226         5.62760
     2018.15195        -0.20602         5.47752
     2018.15468         2.88922         5.50371
     2018.15742        -0.42354         5.48457
     2018.16016        -1.60130         5.57120
     2018.16290        -7.19106         5.65279
     2018.16564        -4.12882         5.72027
     2018.16837        -7.17158         5.50371
     2018.17111        -1.89834         5.52990
     2018.17385        -5.91310         5.49263
     2018.17659        -8.35286         5.57120
     2018.17932        -8.14062         5.59638
     2018.18206        -1.79438         5.66084
     2018.18480        12.28086         5.65178
     2018.18754        -1.52690         5.51882
     2018.19028        -7.96466         5.55810
     2018.19301        -7.98242         5.57321
     2018.19575         0.19982         5.59235
     2018.19849         0.41906         5.62962
     2018.20123         2.70130         5.68502
     2018.20397         6.46654         5.52990
     2018.20670         1.07478         5.57220
     2018.20944        -1.75398         5.55710
     2018.21218        -3.74774         5.54098
     2018.21492       -14.37550         5.54299
     2018.21765        -2.69626         5.42313
     2018.22039        -1.54402         5.47047
     2018.22313        -4.16278         5.70819
     2018.22587        -4.81554         5.49968
     2018.22861        -5.36330         5.53594
     2018.23134         0.10094         5.48457
     2018.23408        -5.48582         5.50270
     2018.23682        -7.27058         5.46443
     2018.23956       -11.25634         5.48860
     2018.24230        -5.79710         5.54400
     2018.24503        -4.71886         5.49464
     2018.24777        -7.10462         5.53695
     2018.25051         5.76462         5.49263
     2018.25325       -11.04214         5.38989
     2018.25598        -9.81890         5.45536
     2018.25872       -13.47366         5.58530
     2018.26146       -10.53642         5.58228
     2018.26420        -2.62218         5.48558
     2018.26694       -12.16295         5.45939
     2018.26967       -13.85271         5.33247
     2018.27241       -11.47047         5.38183
     2018.27515        10.34477         5.56818
     2018.27789        -1.20199         5.69207
     2018.28062        -4.28675         5.65379
     2018.28336        -5.39951         5.38485
     2018.28610        -8.17927         5.45939
     2018.28884        -2.34003         5.52990
     2018.29158         0.41521         5.69005
     2018.29431        -1.89455         5.61250
     2018.29705        -7.40131         5.45838
     2018.29979        -8.88807         5.39493
     2018.30253        -7.67583         5.46141
     2018.30527        -3.95659         5.52788
     2018.30800       -13.30135         5.61552
     2018.31074       -11.62111         5.45033
     2018.31348        -8.47687         5.36773
     2018.31622       -13.44763         5.44025
     2018.31895        -6.66039         5.58631
     2018.32169        -4.33115         5.55307
     2018.32443        -3.34491         5.45133
     2018.32717        -8.43567         5.52486
     2018.32991       -10.43043         5.52486
     2018.33264        -6.07819         5.48860
     2018.33538        -8.61895         5.58127
     2018.33812        -8.94871         5.64271
     2018.34086       -10.16847         5.47349
     2018.34360       -11.47123         5.54199
     2018.34633        -9.23399         5.55004
     2018.34907        -9.92275         5.44529
     2018.35181        -8.50251         5.55105
     2018.35455        -0.81127         5.56616
     2018.35728        -7.68503         5.52184
     2018.36002        -1.99079         5.46141
     2018.36276        -4.41255         5.59034
     2018.36550       -11.90231         5.58127
     2018.36824       -11.23407         5.61451
     2018.37097        -9.74883         5.52788
     2018.37371        -4.43059         5.47954
     2018.37645       -10.22735         7.16872
     2018.37919        -5.01711         5.43925
     2018.38193       -12.93187         5.48961
     2018.38466        -5.69363         5.51076
     2018.38740        -7.93739         5.49062
     2018.39014        -3.25715         5.41507
     2018.39288       -12.01191         5.49464
     2018.39561        -8.72267         5.48155
     2018.39835         1.28057         5.50371
     2018.40109        -5.71819         5.55609
     2018.40383        -8.43795         5.45033
     2018.40657        -3.34171         5.44630
     2018.40930        -8.90647         5.67293
     2018.41204        -6.49123         5.61048
     2018.41478        -9.51399         5.54299
     2018.41752       -12.05575         5.48558
     2018.42026       -10.51551         5.49062
     2018.42299        -2.14827         5.52386
     2018.42573         9.30697         5.58933
     2018.42847        -5.03979         5.46543
     2018.43121        -4.73255         5.56616
     2018.43394        -7.47031         5.44630
     2018.43668         0.94793         5.48457
     2018.43942         0.11917         5.51177
     2018.44216         2.91441         5.44327
     2018.44490        -5.75435         5.42514
     2018.44763        -5.32911         5.41003
     2018.45037        12.24413         5.47450
     2018.45311         4.86837         5.52889
     2018.45585        -4.58839         5.47954
     2018.45859         0.06084         5.57220
     2018.46132        -9.90092         5.50170
     2018.46406        -7.73068         5.36471
     2018.46680       -10.56744         5.39996
     2018.46954        -4.18120         5.57019
     2018.47227        -0.78296         5.59839
     2018.47501         5.62428         5.52386
     2018.47775        -2.94648         5.43119
     2018.48049        -2.95824         5.38989
     2018.48323        -1.21000         5.56918
     2018.48596         2.25224         5.59436
     2018.48870         6.47148         5.49162
     2018.49144         5.28072         5.58328
     2018.49418        -2.94004         5.52788
     2018.49692         0.68120         5.50371
     2018.49965         8.32044         5.40298
     2018.50239         3.04868         5.89151
     2018.50513        -6.18508         5.44227
     2018.50787        -3.42684         5.47551
     2018.51060        -1.56260         5.44529
     2018.51334         1.38664         5.34658
     2018.51608         3.16088         5.37377
     2018.51882         0.89812         5.53896
     2018.52156         0.42336         5.52083
     2018.52429         3.07360         5.66487
     2018.52703         1.20084         5.49767
     2018.52977        -0.24292         5.41003
     2018.53251        -0.17768         5.49767
     2018.53525         4.19056         5.52285
     2018.53798         1.99080         5.53292
     2018.54072         3.49104         5.64171
     2018.54346         1.01628         5.50673
     2018.54625        12.14961         5.57623
     2018.54893         1.09676         5.56616
     2018.55167         3.44300         5.65379
     2018.55441         7.11824         5.49767
     2018.55715         5.19648         5.50875
     2018.55989        -1.68728         5.58631
     2018.56262         1.23996         5.48961
     2018.56536         7.15320         5.55911
     2018.56810         5.80444         5.62760
     2018.57084         1.74568         5.48759
     2018.57357         0.10492         5.55407
     2018.57631         1.71416         5.70617
     2018.57905         0.69840         5.78474
     2018.58179         2.69664         5.57019
     2018.58453        10.41188         5.69811
     2018.58726        16.15112         5.70819
     2018.59000         8.90736         5.49263
     2018.59274         8.20060         5.50069
     2018.59548         4.37384         5.43018
     2018.59822         5.42208         5.43018
     2018.60095         1.39932         5.48558
     2018.60369         3.77456         5.62358
     2018.60643        -0.93220         5.40500
     2018.60917         5.66704         5.50975
     2018.61190         6.47828         5.38183
     2018.61464         3.73752         5.46443
     2018.61738        13.97776         5.54501
     2018.62012         5.52000         5.43219
     2018.62286         6.75824         5.50270
     2018.62559         8.97148         5.53292
     2018.62833         5.80472         5.63063
     2018.63107         6.02596         5.52083
     2018.63381        -0.35580         5.84719
     2018.63655        10.15744         5.50069
     2018.63928        13.77768         5.66890
     2018.64202         7.00992         5.72229
     2018.64476        12.24716         5.45133
     2018.64750        11.55940         5.50170
     2018.65023        21.49664         5.66588
     2018.65297        22.26787         5.50170
     2018.65571         4.60811         5.40903
     2018.65845         5.24635         5.49767
     2018.66119        10.82159         5.49263
     2018.66392        14.59783         5.46040
     2018.66666        12.12907         5.45133
     2018.66940         9.02431         5.39190
     2018.67214         3.98355         5.63969
     2018.67488         8.60379         5.53896
     2018.67761         9.14603         5.43522
     2018.68035         5.76127         5.50673
     2018.68309        -1.19349         5.51177
     2018.68583        10.80975         5.55206
     2018.68856        10.36999         5.44630
     2018.69130        10.53823         5.44126
     2018.69404        13.88947         5.57825
     2018.69678        16.71071         5.45435
     2018.69952         9.97195         5.39996
     2018.70225         6.67619         5.58530
     2018.70499         9.35643         5.47249
     2018.70773         6.17967         5.71927
     2018.71047         9.69691         5.43320
     2018.71321         9.41415         5.42111
     2018.71594         6.77239         5.45637
     2018.71868        -0.55737         5.57926
     2018.72142        -1.28513         5.64976
     2018.72416         6.65411         5.51278
     2018.72689         9.09135         5.40298
     2018.72963        10.38459         5.42817
     2018.73237         1.84783         5.42716
     2018.73509        -0.87595         5.56415
     2018.73785         7.49531         5.53695
     2018.74058         7.57755         5.45939
     2018.74332        15.00979         5.37982
     2018.74606         9.37803         5.51479
     2018.74880         1.43227         5.44932
     2018.75154         7.36351         5.44327
     2018.75427        24.84075         5.48054
     2018.75701         7.94799         5.50270
     2018.75975         6.87723         5.40802
     2018.76249         3.90747         5.47551
     2018.76522        -0.24129         5.66890
     2018.76796         4.79895         5.41003
     2018.77070         8.38719         5.42212
     2018.77344         6.15643         5.44932
     2018.77618         4.84167         5.43925
     2018.77891         7.03891         5.43824
     2018.78165         3.92915         5.60645
     2018.78439         4.34339         5.47752
     2018.78713         5.94863         5.47954
     2018.78987        -3.06213         5.60947
     2018.79149        -0.21461        13.63437
     2018.80743        13.44907        13.51048
     2018.80903         9.03255         5.56717
     2018.81177         6.14979         5.70315
     2018.81456         6.06911         5.55407
     2018.81724         3.11927         5.46040
     2018.81998         7.32551         5.47148
     2018.82272        10.88775         5.46946
     2018.82546        14.76099         6.21383
     2018.82820         2.10923         5.37679
     2018.83093         3.17747         5.44932
     2018.83367        -0.65429         5.44831
     2018.83641         9.44395         5.47349
     2018.83915         8.96819         5.48457
     2018.84188         5.98443         5.44831
     2018.84462         7.59766         5.40198
     2018.84736         4.63490         5.45435
     2018.85010         1.19914         5.39593
     2018.85284        -2.97062         5.34658
     2018.85557        -2.64938         5.32643
     2018.85831         0.79986         5.38183
     2018.86105         1.34810         5.35463
     2018.86379        -1.33766         5.44529
     2018.86653         4.21158         5.36471
     2018.86926        -5.03518         5.36773
     2018.87200        -2.12094         5.50875
     2018.87474         2.00230         5.54199
     2018.87748        -1.64446         5.46644
     2018.88021         0.77978         5.44327
     2018.88295         0.87802         5.47752
     2018.88569         1.89126         5.76359
     2018.88843         4.39350         5.70214
     2018.89117         6.31374         5.52587
     2018.89390        11.42198         5.49062
     2018.89664         5.17122         5.55710
     2018.89938        -1.62554         5.43119
     2018.90212        -0.22230         5.45335
     2018.90485         3.67294         5.46946
     2018.90759         4.96018         5.61854
     2018.91033         5.78842         5.43219
     2018.91307         9.39566         5.55004
     2018.91581         4.06490         5.40701
     2018.91854        11.39014         5.43723
     2018.92128         3.76638         5.43018
     2018.92402         0.87062         5.46644
     2018.92676         3.30386         5.47853
     2018.92950         3.13810         5.56213
     2018.93223         3.51034         5.63969
     2018.93497         1.76658         5.49062
     2018.93771        -0.67218         5.47450
     2018.94045         3.18406         5.45738
     2018.94318         4.24430         5.44529
     2018.94592        10.02354         5.35363
     2018.94866         1.74078         5.35061
     2018.95140         4.63202         5.49464
     2018.95414        12.45526         5.58832
     2018.95687         2.86350         5.55105
     2018.95961         5.34674         5.34859
     2018.96235        12.05698         5.44025
     2018.96509        12.03722         5.45133
     2018.96783         0.09446         5.38687
     2018.97056        16.85870         5.53896
     2018.97330         2.66294         5.42716
     2018.97604         0.80618         5.47148
     2018.97878         9.50342         5.45939
     2018.98151        -0.52934         5.39593
     2018.98425        -0.67410         5.54702
     2018.98699        -0.04086         5.54803
     2018.98973        -0.88862         5.80488
     2018.99247         1.36862         5.48457
     2018.99520         3.95486         5.50673
     2018.99794        -0.53190         5.73941
     2019.00342        -6.47642         5.46543
     2019.00616        -2.37018         5.39493
     2019.00889         1.93006         5.65681
     2019.01163        -4.14470         5.41003
     2019.01437         7.73754         5.38082
     2019.01711         9.30978         5.49464
     2019.01979        -7.54507         5.81395
     2019.02258        -2.74474         5.52083
     2019.02532        -4.58350         5.73639
     2019.02806        -8.00926         5.48457
     2019.03080        -3.78502         5.47349
     2019.03353        -9.88378         6.16549
     2019.03627       -14.64754         5.34355
     2019.03901        -5.00331         5.35564
     2019.04175        -5.91507         5.35967
     2019.04449        -1.77883         5.46342
     2019.04722        -2.35559         5.43824
     2019.04996        -8.11035         5.42917
     2019.05270        -7.21611         6.13728
     2019.05544        -1.21787         5.57523
     2019.05812        -2.65971         5.77869
     2019.06097        -1.82230         5.76963
     2019.06365        -5.24615         5.46443
     2019.06639        -2.49391         5.44630
     2019.06913        -3.71467         5.69207
     2019.07186        -3.66943         5.42817
     2019.07460        -5.25219         5.36773
     2019.07734        -3.69295         5.46141
     2019.08008         1.29129         5.34355
     2019.08282        -2.49847         5.47651
     2019.08555        -1.79023         5.32643
     2019.08829        -1.28099         5.34758
     2019.09103         9.61225         5.55810
     2019.09377         1.53649         5.34960
     2019.09650         5.62273         5.36269
     2019.09924         3.27097         5.38989
     2019.10198        -4.38479         5.31737
     2019.10472        -5.12855         5.34557
     2019.10746        -3.39831         5.35564
     2019.11019         1.15193         5.38586
     2019.11293         1.72717         5.44428
     2019.11567        -2.28559         5.54098
     2019.12115        15.24889         5.44932
     2019.12388         1.30013         5.55508
     2019.12662         3.63537         5.40601
     2019.12936         0.12361         5.34960
     2019.13210        -0.76815         5.38082
     2019.13483        -2.50191         5.42111
     2019.13757         3.85233         5.39795
     2019.14031         5.35757         5.40903
     2019.14305         0.42681         5.39996
     2019.14579        -2.17695         5.38385
     2019.14852         4.17729         5.37881
     2019.15126        11.01553         5.35967
     2019.15400         0.18877         5.36874
     2019.15674         2.46101         5.41003
     2019.15948        -0.70075         5.42716
     2019.16221        -0.78751         5.50371
     2019.16495        -3.53227         5.35262
     2019.16769        -9.98903         5.36672
     2019.17043        -9.35379         5.35363
     2019.17316        -6.32655         5.36068
     2019.17590        -0.16431         5.68401
     2019.17864        -3.26307         5.41104
     2019.18138        -1.99383         5.38183
     2019.18412       -14.69259         5.36571
     2019.18685        -5.40835         5.34859
     2019.18959        -6.24711         5.31737
     2019.19233        -1.75587         5.57220
     2019.19507         0.54737         5.36068
     2019.19780        -8.10739         5.33852
     2019.20054       -13.14715         5.47450
     2019.20328       -15.09991         5.35061
     2019.20602       -12.79267         5.35061
     2019.20876       -12.56743         5.38284
     2019.21149       -11.56319         5.36370
     2019.21423        -6.84295         5.40198
     2019.21697        -8.68371         5.37377
     2019.21971        -7.84147         5.53292
     2019.22245        -5.10723         5.40298
     2019.22518        -9.13199         5.41104
     2019.22792        -7.85875         5.39694
     2019.23066        -8.53452         5.39593
     2019.23340        -4.19828         5.37881
     2019.23608        -5.55812         5.80488
     2019.23893        -8.49671         5.54702
     2019.24161       -12.37156         5.61149
     2019.24435        -7.32832         5.56818
     2019.24709        -9.36208         5.54803
     2019.24982        -9.41884         5.46846
     2019.25256       -11.95360         5.54904
     2019.25530       -10.10436         5.46946
     2019.25804        -5.83912         5.47249
     2019.26078        -2.52788         5.37277
     2019.26351        -5.27964         5.51882
     2019.26625         2.81860         5.43119
     2019.26899         0.52684         5.56415
     2019.27173        -4.83592         5.60947
     2019.27446        -7.42168         5.48558
     2019.27720        -5.83044         5.44327
     2019.27994        -2.49920         5.37780
     2019.28268        -4.95696         5.42615
     2019.28542        -0.32372         5.45637
     2019.28815        -7.62248         5.44126
     2019.29089       -14.97724         5.29218
     2019.29363        -8.99800         5.40903
     2019.29637        -7.99576         5.67192
     2019.29911        -4.59652         5.45939
     2019.30184        -7.12628         5.47752
     2019.30458       -13.88304         5.37881
     2019.30732       -13.24080         5.32341
     2019.31006         0.98444         5.59839
     2019.31279       -10.67132         5.54803
     2019.31553         1.32892         5.72229
     2019.31827        -6.53484         5.43522
     2019.32101        -9.71660         5.36571
     2019.32375       -17.89936         5.41406
     2019.32648        -8.13412         5.43018
     2019.32922       -12.09288         5.41205
     2019.33196       -11.92164         5.58530
     2019.33470        -9.63940         5.56717
     2019.33744       -10.65116         5.41306
     2019.34017       -11.83192         5.52083
     2019.34291        -5.28968         5.55307
     2019.34565       -11.45544         5.58832
     2019.34839       -13.65320         5.56213
     2019.35112       -10.67696         5.49867
     2019.35386        -9.02172         5.41406
     2019.35660        -6.70448         5.52486
     2019.35934        -5.97124         5.41406
     2019.36208        -3.71400         5.44730
     2019.36481        -7.35076         5.52184
     2019.36755        -7.86652         5.39291
     2019.36944         1.36641         9.94475
     2019.37348        -1.83334         6.54523
     2019.37516         0.73226         7.38932
     2019.38117       -32.17643       129.18711
     2019.38523        -8.46014        21.38631
     2019.38625        -1.14857         7.34399
     2019.39051       -18.84696        18.62639
     2019.39179        -7.64799         8.66552
     2019.40702       -20.22340        16.09211
     2019.40859        -9.77097         6.77790
     2019.41133       -17.01073        28.29415
     2019.41407       -33.24448        29.40819
     2019.41686       -12.97116        33.05349
     2019.41954       -13.04901         8.94151
     2019.42211       -30.23403        37.46330
     2019.42525        -9.82918        57.11610
     2019.45060        -9.50191        10.45745
     2019.45243        -1.19409         5.58026
     2019.45516        -4.78985         5.55307
     2019.45722        -6.71766         7.67437
     2019.47380        13.41602       104.11420
     2019.51026       -15.95752         6.51702
     2019.51266        -3.53781         5.46241
     2019.51480        -5.41750         7.07102
     2019.51827        -9.13812         8.20822
     2019.52096        -2.57395        70.68702
     2019.54273        12.02976         6.50997
     2019.54603         7.06986         7.68646
     2019.54825         2.65931         5.47752
     2019.55099        -5.20545         5.43723
     2019.55352        -2.81553         7.35608
     2019.55654       -26.90785        45.06314
     2019.55917        -5.90278        42.98918
     2019.56205        -6.70432        11.02152
     2019.56468        -3.40925         5.72128
     2019.56741        -3.62701         5.42212
     2019.57015         0.57723         5.54803
     2019.57286        -2.30058         7.36514
     2019.57560        -2.36834        31.62417
     2019.57839         4.23298         7.54041
     2019.58107       -17.73686        35.36114
     2019.58378         9.69334        19.25291
     2019.58658         3.36967         5.45738
     2019.58932         9.98291         5.54702
     2019.59202         7.83809         7.18383
     2019.59476        -7.02867        35.31984
     2019.59750         6.51257        35.21005
     2019.60027        24.69687        17.37335
     2019.60301        -4.25489         5.54602
     2019.60574        -1.84165         5.76157
     2019.60848         3.05659         5.78172
     2019.61119         7.71878         7.11635
     2019.61393       -23.02498        28.69101
     2019.61667        -6.68974        28.76353
     2019.61946        -2.23141        32.63446
     2019.62220         3.87183        30.88685
     2019.62491         4.73902         6.06879
     2019.62765         9.27626         5.42414
     2019.63039         8.31450         5.42111
     2019.63312         1.28274         5.42817
     2019.63586         4.37298         5.42615
     2019.63792         2.88917         7.37320
     2019.77663         4.30298        13.69985
     2019.77823         4.72946         5.58933
     2019.78097        10.82570         5.64574
     2019.78371         1.96894         5.66689
     2019.78644        -0.28582         5.70919
     2019.78880         0.63283         6.71646
     2019.79300        19.60233        12.32593
     2019.79466         9.01390         5.67998
     2019.79739        12.39014         5.64171
     2019.80013         2.86938         5.51882
     2019.80287        -1.28238         5.54501
     2019.80561         2.85186         5.62055
     2019.80835         1.27810         5.60142
     2019.81108         0.81933         5.63163
     2019.81382         5.51857         5.65279
     2019.81656         3.26481         5.61250
     2019.81930        -1.45095         5.56213
     2019.82203        -1.85571         5.58429
     2019.82477         0.67453         5.56012
     2019.82751         0.12377         5.61854
     2019.83025         1.87901         5.76862
     2019.83299        -2.13675         5.64271
     2019.83459        -2.65227        14.49055
     2020.09702         6.20614        15.50890
     2020.09856         0.85752         5.37377
     2020.10130        -4.18924         5.29823
     2020.10403         3.01200         5.33147
     2020.10677        -4.94076         5.30629
     2020.10951        -5.84152         5.52285
     2020.11225        -2.62328         5.39593
     2020.11498        -2.13604         5.35866
     2020.11772        -3.79280         5.40097
     2020.12046        -3.27356         5.46141
     2020.12320        -6.82932         5.34557
     2020.12594        -3.49308         5.30326
     2020.12867        -4.50784         5.35161
     2020.13141        -9.17660         5.37881
     2020.13415       -11.19536         5.48256
     2020.13689        -5.22612         5.45133
     2020.13963        -2.43588         5.44025
     2020.14236        -4.06664         5.31837
     2020.14510        -3.77840         5.35665
     2020.14784        -9.63516         5.33650
     2020.15058        -9.10992         5.35665
     2020.15331       -12.44068         5.33449
     2020.15605       -10.62444         5.34658
     2020.15879        -9.87120         5.35766
     2020.16153         2.09204         5.36471
     2020.16427         4.94628         5.36269
     2020.16700         2.73352         5.35665
     2020.16974         0.78176         5.39795
     2020.17248        -4.33400         5.44932
     2020.17522        -5.60676         5.49565
     2020.17796         4.19448         5.48155
     2020.18069        -5.10528         5.30629
     2020.18343        -1.42104         5.36269
     2020.18617        -3.48980         5.33348
     2020.18891        -5.68656         6.00936
     2020.19164        -2.41232         5.45335
     2020.19438        -6.60708         5.41910
     2020.19712        -8.77985         5.38787
     2020.19986        -4.83561         5.45335
     2020.20260       -15.68737         5.47954
     2020.20533        -7.54413         5.43824
     2020.20807        -6.05289         5.44932
     2020.21081       -12.32865         5.42817
     2020.21355        -2.68541         5.85726
     2020.21629        -8.09917         5.66185
     2020.21902       -10.81493         5.52788
     2020.22176       -10.07969         5.43622
     2020.22450        -4.63045         5.46543
     2020.22724         3.77379         5.48457
     2020.22997         0.56903         5.41809
     2020.23271        -0.35273         5.51479
     2020.23545        -5.07749         5.40298
     2020.23819        -8.35725         5.37881
     2020.24093        -9.04301         5.38787
     2020.24366       -10.97777         5.39392
     2020.24640        -6.51453         5.46543
     2020.24914       -11.19429         5.56415
     2020.25188       -11.02505         5.43018
     2020.25462       -11.11781         5.41507
     2020.25735        -8.73157         5.46241
     2020.26009        -3.81133         5.40500
     2020.26283        -9.45709         5.49464
     2020.26557       -12.13685         5.49968
     2020.26830       -13.67561         5.46241
     2020.27104       -10.15637         5.46342
     2020.27378       -11.75113         5.44529
     2020.27652        -5.20889         5.56012
     2020.27926        -4.69765         5.94086
     2020.28199       -13.04441         5.50774
     2020.28473       -15.50817         5.50270
     2020.28747       -16.01293         5.48256
     2020.29021       -12.56169         5.47249
     2020.29295        -8.35245         5.42615
     2020.29568        -2.68221         5.44630
     2020.29842        -7.81997         5.48155
     2020.30116        -4.60073         5.49767
     2020.30390        -5.44749         5.49162
     2020.30663        -5.75425         5.45234
     2020.30937        -7.05701         5.57623
     2020.31211       -15.12977         5.58530
     2020.31485       -14.23053         5.51278
     2020.31759        -9.60029         5.40903
     2020.32032        -5.70205         5.42615
     2020.32306        -9.24181         5.55407
     2020.32580       -11.52157         5.42111
     2020.32854        -6.38533         5.37982
     2020.33128       -10.27309         5.46644
     2020.33401        -9.60185         5.37780
     2020.33675        -5.19761         5.38485
     2020.33949        -9.96337         5.42111
     2020.34223       -14.92013         5.52486
     2020.34496       -11.19589         5.41306
     2020.34770       -12.44565         5.40500
     2020.35044       -12.08941         5.43723
     2020.35318       -13.22317         5.48356
     2020.35592       -12.53093         5.51781
     2020.35865       -11.63269         5.37982
     2020.36139        -3.78945         5.40802
     2020.36413        -6.15621         5.31837
     2020.36687        -9.91997         5.43320
     2020.36961        -8.12073         5.46141
     2020.37234        -9.80449         5.35766
     2020.37508        -6.47125         5.43824
     2020.37782        -1.71701         5.40298
     2020.38056        -7.40177         5.38586
     2020.38329        -5.06453         5.34557
     2020.38603        -8.14029         5.43824
     2020.38877         1.39694         5.46342
     2020.39151       -12.58682         5.37579
     2020.39425       -14.09358         5.34053
     2020.39698       -10.44234         5.37679
     2020.39972       -10.56810         5.37881
     2020.40246        -3.99586         5.38787
     2020.40520       -15.31962         5.54199
     2020.40794       -11.71738         5.51882
     2020.41067        -8.62614         5.40298
     2020.41341        -8.85490         5.42212
     2020.41615        -3.65066         5.39190
     2020.41889        -9.99842         5.34557
     2020.42162        -5.28718         5.57321
     2020.42436         6.80506         5.66084
     2020.42710        -1.70670         5.67595
     2020.42984        -3.59346         5.54702
     2020.43258        -3.73222         5.52788
     2020.43531        -7.97798         5.44831
     2020.43805        -9.05274         5.70617
     2020.44079        -9.66150         5.44730
     2020.44353        -7.04726         5.44730
     2020.44621       -10.40010         5.49867
     2020.44900        -1.58778         5.42817
     2020.45174        -1.15954         5.36672
     2020.45448        -1.89230         5.33247
     2020.45722        -5.68606         5.35262
     2020.45995        -7.91782         5.40601
     2020.46269       -10.70558         5.44831
     2020.46543        -7.87834         5.35564
     2020.46817        -3.68910         5.37075
     2020.47091        -0.94986         5.35564
     2020.47364        -5.13162         5.38687
     2020.47638        -3.76138         5.37982
     2020.47912        -7.21014         5.46241
     2020.48186        -4.68290         5.54199
     2020.48459        -6.84166         5.48054
     2020.48733         0.72758         5.49464
     2020.49007         4.35182         5.55911
     2020.49281        -3.39394         5.76862
     2020.49555        -3.78270         5.58631
     2020.49828         0.35954         5.58328
     2020.50102        -3.47622         5.53997
     2020.50376        -7.29498         5.47954
     2020.50650        -4.77374         5.35766
     2020.50924        -5.63750         5.50975
     2020.51197        -7.21026         5.36169
     2020.51471         5.68398         5.43824
     2020.51745        -1.04478         5.43723
     2020.52019         1.27746         5.50069
     2020.52292        -6.25430         5.59336
     2020.52566        -7.49106         5.53796
     2020.52840         0.58618         5.56616
     2020.53114         6.85942         5.45738
     2020.53388         3.88066         5.47954
     2020.53661        -6.11410         5.44227
     2020.53935        -5.10486         5.46846
     2020.54209        -3.93862         5.53393
     2020.54483         0.06662         5.54501
     2020.54757        -2.14314         5.47450
     2020.55030        -2.56290         5.48558
     2020.55304         0.17034         5.55710
     2020.55578        -2.15442         5.62760
     2020.55852         0.80882         5.54602
     2020.56125         3.76906         5.57623
     2020.56399        -6.64470         5.55810
     2020.56673        -4.54646         5.69005
     2020.56947         0.88278         5.56415
     2020.57221         2.35502         5.67696
     2020.57494        -0.99574         5.49364
     2020.57768        -1.99150         5.61048
     2020.58042        -6.05326         5.53494
     2020.58316         1.09797         5.59739
     2020.58590        -3.02779         5.53494
     2020.58863        -1.17555         5.66588
     2020.59137         2.70669         5.55810
     2020.59409         6.66490         5.65581
     2020.59685        11.17717         5.81193
     2020.59958        -2.34659         5.64171
     2020.60232         1.93765         5.50371
     2020.60506         1.60489         5.48457
     2020.60780         4.60313         5.57825
     2020.61054         3.25837         5.62962
     2020.61327         6.05161         5.51479
     2020.61601        11.48185         5.55004
     2020.61875         1.20409         5.57623
     2020.62149        -5.22367         5.52285
     2020.62423        -0.14343         5.50975
     2020.62696         0.89381         5.55307
     2020.62970        -4.19695         5.70617
     2020.63244         5.20529         5.70113
     2020.63518        15.40153         5.61350
     2020.63791         3.10577         5.73337
     2020.64065         3.99001         5.50572
     2020.64339         2.31725         5.55609
     2020.64613         2.63649         5.62861
     2020.64887         1.74173         5.63163
     2020.65160         0.50597         5.75553
     2020.65434        -0.18379         5.64473
     2020.65708         5.77345         5.56112
     2020.65982         5.77869         5.61854
     2020.66256        13.59493         5.56314
     2020.66529         6.17417         5.53896
     2020.66803         5.26941         5.65681
     2020.67077         5.89765         5.56818
     2020.67351         5.38989         5.60041
     2020.67624        -0.24587         5.62962
     2020.67898        -3.84963         5.55307
     2020.68172         0.88661         5.50875
     2020.68446         5.07085         5.58328
     2020.68718         0.92607         5.57120
     2020.68993         2.07833         5.57120
     2020.69267        -1.68143         5.78172
     2020.69541        -0.50219         5.80488
     2020.69815         0.76805         5.71524
     2020.70089         2.09729         5.58933
     2020.70362        -1.82247         5.57523
     2020.70636        -2.06523         5.88949
     2020.70910        -2.04699         5.87036
     2020.71184         2.67625         6.17657
     2020.71457         1.07749         5.78373
     2020.71731         3.23173         5.73639
     2020.72005        -2.03303         5.75351
     2020.72279        -1.36579         5.58530
     2020.72553         5.75945         5.73941
     2020.72826         4.24969         5.77164
     2020.73100        13.67293         5.76459
     2020.73374        11.15317         5.67897
     2020.73648         6.89541         5.59940
     2020.73921         0.16365         5.60343
     2020.74195         2.48789         5.74143
     2020.74469         4.49713         5.72531
     2020.74743         0.55337         5.81899
     2020.75017         1.17061         5.60142
     2020.75290         3.75385         5.68502
     2020.75564        -1.07291         5.48659
     2020.75838         3.59333         5.49666
     2020.76123         5.19774         5.70919
     2020.76386         7.53981         5.50069
     2020.76659         3.32405         5.50069
     2020.76933         5.60529         5.61250
     2020.77207        14.30953         5.48054
     2020.77481        13.42876         5.52083
     2020.77754         7.03300         5.47148
     2020.78028        15.99224         5.39996
     2020.78302        10.25648         5.44327
     2020.78576         5.33272         5.52788
     2020.78850         2.25396         5.46342
     2020.79123         4.76320         5.49767
     2020.79397         6.87244         5.57120
     2020.79671         3.64768         5.44630
     2020.79945         4.94592         5.43119
     2020.80219        13.77116         5.59436
     2020.80492         9.18540         5.50270
     2020.80766         6.80064         5.61350
     2020.81040        -2.83112         5.50270
     2020.81314        11.67112         5.49968
     2020.81587        -3.70864         5.37679
     2020.81861         0.57460         5.42111
     2020.82135        -0.01816         5.47853
     2020.82409         3.55808         5.56515
     2020.82683         1.29632         5.49364
     2020.82956         1.42356         5.69005
     2020.83230         8.13280         5.54199
     2020.83504         3.13104         5.64070
     2020.83778         7.04528         5.49666
     2020.84052         7.02152         5.75754
     2020.84325         6.66176         5.65581
     2020.84599         7.44500         5.57825
     2020.84873        14.26724         5.55105
     2020.85147        10.18148         5.52285
     2020.85420        14.51172         5.45335
     2020.85694        15.91996         5.60544
     2020.85968        14.37420         5.51479
     2020.86242        11.40444         5.65883
     2020.86516         4.06468         5.66789
     2020.86789        17.19692         5.67595
     2020.87063        19.60616         5.54299
     2020.87337        15.63140         5.60041
     2020.87611         9.36464         5.69509
     2020.87885         8.87488         5.76761
     2020.88158        14.57512         5.89252
     2020.88432        19.95336         5.75049
     2020.88706         0.94560         5.80589
     2020.88980         1.50784         5.62559
     2020.90349         6.62704         5.61753
     2020.90622         5.30428         5.56818
     2020.90896         5.24652         5.71020
     2020.91170         3.41176         5.80287
     2020.91444         8.98200         5.67696
     2020.91718         6.40424         5.59134
     2020.91991        -0.32852         5.56314
     2020.92265        -1.38028         5.55307
     2020.92539        -1.70104         5.52184
     2020.92813        -5.27580         5.51680
     2020.93086        -2.38456         5.56616
     2020.93360         1.51268         5.63868
     2020.93634         2.89792         5.56515
     2020.93908         2.52016         5.74445
     2020.94182        -1.32360         5.53393
     2020.94455        -0.08636         5.56616
     2020.94729        -0.03012         5.56112
     2020.95003        -5.50588         5.60947
     2020.95277        -8.36564         5.51680
     2020.95551        -7.19940         5.51278
     2020.95824        -5.34716         5.53594
     2020.96098         1.77008         5.53292
     2020.96372         1.76332         5.56012
     2020.96646         1.04856         5.58933
     2021.27583        -6.29534         5.49767
     2021.27857        -2.90210         5.62358
     2021.28131        -8.02286         5.62358
     2021.28405        -4.61062         5.64473
     2021.28679        -3.31338         5.65782
     2021.28952        -1.44314         5.61350
     2021.29226       -12.37890         5.60242
     2021.29500        -4.02566         5.60343
     2021.29774        -0.47942         5.78575
     2021.30047        -5.94618         5.66286
     2021.30321         2.14306         5.63768
     2021.30595         0.95930         5.75452
     2021.30869         3.31954         5.76761
     2021.31143        -2.45322         5.50170
     2021.31416         8.03302         5.58127
     2021.31690         3.77626         5.53494
     2021.31964        -6.95750         5.61652
     2021.32238        -8.07426         5.65379
     2021.32512       -13.20602         5.50572
     2021.32785        -2.60778         5.61955
     2021.33059         7.68046         5.57825
     2021.33333         2.85370         5.53695
     2021.33607        -8.37806         5.52889
     2021.33880        -8.69882         5.52083
     2021.34154        -9.05358         5.52285
     2021.34428       -12.24234         5.70416
     2021.34702        -0.78910         5.61250
     2021.34976        -8.94386         5.55609
     2021.35249       -10.67862         5.51882
     2021.35523        -8.17239         5.56213
     2021.35797       -10.76915         5.55508
     2021.36071        -9.07791         5.49767
     2021.36344        -9.11967         5.62861
     2021.36618        -9.84943         5.53997
     2021.36892       -11.34419         5.58026
     2021.37166        -8.78395         5.55407
     2021.37440        -4.48171         5.58026
     2021.37713         1.51453         5.62358
     2021.37987         2.83177         5.75653
     2021.38261        -4.19099         5.97511
     2021.38535        -6.65475         5.78675
     2021.38809        -9.12451         5.75049
     2021.39082        -2.32827         5.69308
     2021.39356        -3.28203         5.60444
     2021.39630        -4.85179         5.62156
     2021.39904        -9.95755         5.65782
     2021.40177       -10.10331         5.61552
     2021.40451         5.42493         5.72430
     2021.40725        -5.76083         5.56213
     2021.40999        -8.72059         5.57926
     2021.41273       -10.99335         5.56616
     2021.41546        -8.67311         5.57019
     2021.41820        -8.95187         5.60544
     2021.42094         1.61037         5.56314
     2021.42368        -0.31439         5.59235
     2021.42642         7.24485         5.72027
     2021.42915         7.38209         5.70819
     2021.43189         3.19533         5.59235
     2021.43463        -1.59543         5.66286
     2021.43737        -2.56319         5.58832
     2021.44010        -0.36595         5.69811
     2021.44284       -11.95971         5.76862
     2021.44558        -5.49247         5.68200
     2021.44832        -6.19823         5.70919
     2021.45106        -1.28999         5.70617
     2021.45379         1.47725         5.72732
     2021.45653         1.50649         5.79078
     2021.45927         3.06173         5.56818
     2021.46201        -2.11303         5.58631
     2021.46475        -1.92779         5.56717
     2021.46748         3.89245         5.56918
     2021.47022        -1.56431         5.74243
     2021.47296         4.93393         5.70315
     2021.47570        -5.35383         5.77064
     2021.47843        -0.33659         5.62156
     2021.48117        -7.20635         5.68401
     2021.48391        -6.29411         5.60847
     2021.48665        -4.02787         5.63768
     2021.48939        -7.73463         5.62257
     2021.49212        -9.89139         5.66286
     2021.49760         2.86009         5.79783
     2021.50308        -8.35843         5.79380
     2021.50581         3.49281         5.76862
     2021.50855        -0.53395         5.79985
     2021.51403         1.96453         5.64775
     2021.51676        10.71777         5.70013
     2021.51950         3.42401         5.76560
     2021.52224        -3.91975         5.58328
     2021.52498        -1.44151         5.62156
     2021.52772        -5.93527         5.65279
     2021.53045         6.59697         5.68300
     2021.53319        -3.12079         5.64574
     2021.53593         4.15245         5.81697
     2021.53867        -0.15631         6.04562
     2021.54414        -4.60983         5.68099
     2021.54688         0.64740         5.65379
     2021.54962         3.54664         5.67495
     2021.55236         6.74788         5.68905
     2021.55509        12.77912         5.78172
     2021.55783        -0.94764         5.63264
     2021.56057         5.03560         5.60142
     2021.56331         2.55684         5.61854
     2021.56605         5.21808         5.65581
     2021.56878         5.67632         5.67293
     2021.57152        -0.95844         5.64070
     2021.57426        -4.21920         5.57120
     2021.57700        10.32804         5.82100
     2021.57974        -0.50872         5.62962
     2021.58247        -7.73648         5.61854
     2021.58521        -0.71224         5.73337
     2021.58795        -1.72000         5.63566
     2021.59069        -1.83676         5.58832
     2021.59342        -4.20252         5.66689
     2021.59616         0.59472         5.92777
     2021.59890         4.06796         5.60544
     2021.60164         9.73420         5.56415
     2021.60438        11.47044         5.69912
     2021.60711         0.10568         5.53695
     2021.60985         3.19292         5.60645
     2021.61259         2.71416         5.60746
     2021.61533        -0.84260         5.60343
     2021.61807        -0.82036         5.61652
     2021.62080         1.37588         5.64070
     2021.62354         0.48112         5.52184
     2021.62628         6.75836         5.64976
     2021.62902         7.84060         5.66890
     2021.63175        -0.86316         5.63365
     2021.63449        -0.49692         5.55206
     2021.63723        -2.48168         5.83007
     2021.63997         6.64456         5.69711
     2021.64271        10.26480         5.82906
     2021.64544         7.65704         5.49666
     2021.64818         7.67528         5.57422
     2021.65092         2.91452         5.55206
     2021.65366         2.00276         5.56415
     2021.65639         1.01100         5.53695
     2021.65913        -1.96176         5.63365
     2021.66187         1.12748         5.53494
     2021.66461        10.70072         5.54602
     2021.66735         7.69796         5.62257
     2021.67008         0.36220         5.73135
     2021.67282        12.64444         5.94389
     2021.67556         2.73668         5.86733
     2021.67830        -0.26408         5.71121
     2021.68104         6.52416         5.55710
     2021.68377         9.94440         5.56012
     2021.68651         2.01864         5.57422
     2021.68925         2.54388         5.66185
     2021.69199         8.84012         5.62962
     2021.69472        -0.86664         5.74243
     2021.69746        -1.86740         5.63466
     2021.70020         7.79484         5.60041
     2021.70294         1.01708         5.56314
     2021.70568         2.34432         5.58832
     2021.70841        11.92856         5.60746
     2021.71115         6.21980         5.53695
     2021.71389        12.31104         5.66487
     2021.71663         7.67728         5.59739
     2021.71937         1.64352         5.54702
     2021.72210        -6.19424         5.56415
     2021.72484        -4.21800         5.56112
     2021.72758         0.55124         5.54501
     2021.73032        -0.44052         5.77970
     2021.73305         3.35572         5.51580
     2021.73579         8.67096         5.57220
     2021.73853        11.14519         5.57825
     2021.74127        13.69743         5.63365
     2021.74401         5.62867         5.54098
     2021.74674         7.44091         5.49364
     2021.74948         2.79515         5.53896
     2021.75222         4.82739         5.57422
     2021.75496         9.30663         5.60847
     2021.75770         4.97187         5.53796
     2021.76043        11.31111         5.51278
     2021.76317         2.63135         5.60343
     2021.76591         4.42159         5.56918
     2021.76865         1.85883         5.58631
     2021.77138         1.57807         5.51781
     2021.77412         4.24031         5.49767
     2021.77686         5.22555         5.49364
     2021.77960         7.57879         5.52083
     2021.78234         7.85603         5.53292
     2021.78507        10.55227         5.53594
     2021.78781         9.66551         5.48558
     2021.79055         1.46775         5.47853
     2021.79329         7.08499         5.51177
     2021.79603         6.16423         5.56112
     2021.79876         3.99147         5.71423
     2021.80150         1.48271         5.70013
     2021.80424         6.22395         5.65581
     2021.80698         8.04519         5.52788
     2021.80971         5.58543         5.65077
     2021.81245        18.65967         5.71524
     2021.81519        15.72291         5.51378
     2021.81793         8.18615         5.51378
     2021.82067         7.42839         5.58429
     2021.82340         6.89563         5.62760
     2021.82614         4.74887         5.68200
     2021.82888         8.81711         5.65480
     2021.83162         3.33735         5.66185
     2021.83436         5.47459         5.61854
     2021.83709         2.93183         5.61250
     2021.83983        -3.57293         5.67595
     2021.84257         5.45831         5.67293
     2021.84531         7.00155         5.82906
     2021.84804         8.93079         5.72229
     2021.85078         3.44803         5.63868
     2021.85352         7.27927         5.65883
     2021.85626         6.76551         5.55911
     2021.85900         4.94175         5.58026
     2021.86173         0.52299         5.59940
     2021.86447         4.64223         5.73740
     2021.86721         1.85247         5.86532
     2021.86995         2.37471         5.76661
     2021.87269         7.79495         5.69912
     2021.87542        15.42119         5.67797
     2021.87816         0.23543         5.60041
     2021.88090         1.02667         5.65681
     2021.88364         3.54691         5.62559
     2021.88637        -4.07885         5.57019
     2021.88911        -2.53661         5.60041
     2021.89185        -2.63837         5.60142
     2021.89459         6.19587         5.58731
     2021.89733         0.17311         5.63264
     2021.90006        -1.51365         5.60746
     2021.90280         4.34359         5.60746
     2021.90554         2.24483         5.64574
     2021.90828         7.06507         5.60444
     2021.91102         7.47031         5.70416
     2021.91375         1.92455         5.67495
     2021.91649         4.98679         5.64674
     2021.91923         6.12703         5.65279
     2021.92197        -1.62173         5.80891
     2021.92470        -3.57249         5.63063
     2021.92744         1.58875         5.68200
     2021.93018        -1.33001         5.66588
     2021.93292         9.86722         5.75049
     2021.93566         8.24746         5.75754
     2021.93839        20.66870         5.74143
     2021.94113        10.40894         5.86733
     2021.94387        10.32018         5.63768
     2021.94661         8.63542         5.63868
     2021.94935        11.21466         5.58832
     2021.95208         9.69590         5.60343
     2021.95482         9.32214         5.68703
     2021.95756         8.83438         5.68300
     2021.96030         4.43862         5.65480
     2021.96303         5.41486         5.68804
     2021.96577         4.92510         5.71725
     2021.96851         9.05534         5.66588
     2021.97125        10.32558         5.71121
     2021.97399         8.73282         5.79280
     2021.97672        18.61706         5.70617
     2021.97946        22.43630         5.72329
     2021.98220        23.35154         5.79380
     2021.98767        14.41202         5.80186
     2021.99041        11.00026         5.58228
     2021.99315        12.33250         5.58328
     2021.99589        17.15074         5.60947
     2021.99863        10.98298         5.55911
     2022.00136         2.11922         5.57321
     2022.00410        -1.61354         5.67696
     2022.00684        -2.14130         5.59436
     2022.00958        11.31194         5.62458
     2022.01232        -0.79982         5.58731
     2022.01505         4.12742         5.57422
     2022.01779        12.41366         5.71826
     2022.02053        12.18790         5.73337
     2022.02327         2.53114         5.84920
     2022.02600        -6.70162         5.58631
     2022.02874        -4.54538         5.53796
     2022.03148        -7.13514         5.67696
     2022.03422        -2.49890         5.65581
     2022.03696        -2.70366         5.59436
     2022.03969        -7.01142         5.58832
     2022.04243         2.04782         5.70214
     2022.04517        -3.95394         5.66689
     2022.04791        -2.35070         5.64674
     2022.05065         1.28154         5.67394
     2022.05338         0.33778         5.60947
     2022.05612        -9.37198         5.59638
     2022.05886       -10.69274         5.63566
     2022.06160       -12.62350         5.62358
     2022.06433        -5.89626         5.66387
     2022.06707        -8.93602         5.65581
     2022.06981        -0.85078         5.60746
     2022.07255       -12.41254         5.55004
     2022.07529       -10.04230         5.58933
     2022.07802        -8.75306         5.54199
     2022.08076        -0.24482         5.56918
     2022.08350         4.45342         5.58731
     2022.08624         0.85666         5.59638
     2022.08898        -1.64010         5.55206
     2022.09171        -4.66586         5.52788
     2022.09445        -9.06662         5.51781
     2022.09719        -5.60338         5.57120
     2022.09993       -10.20314         5.69005
     2022.10266       -12.53590         5.68804
     2022.10540        -6.90566         5.69610
     2022.10814        -2.30742         5.69408
     2022.11088        -6.38418         5.58631
     2022.11362        -4.12094         5.57623
     2022.11635        -1.68970         5.61652
     2022.11909        -8.90646         5.58631
     2022.12183        -1.29622         5.67595
     2022.12457         8.83001         5.78172
     2022.12731        -4.15775         5.57926
     2022.13004        -8.64151         5.54199
     2022.13278        -0.95027         5.57120
     2022.13552        -3.91203         5.62358
     2022.13826         5.74721         5.66185
     2022.14099        -1.84755         5.61350
     2022.14373        -7.53931         5.53896
     2022.14647        -3.01707         5.56818
     2022.14921         0.67817         5.84014
     2022.15195        -5.77659         5.75653
     2022.15468        -3.80735         5.50069
     2022.15742        -3.52011         5.54400
     2022.16016        -7.64487         5.55407
     2022.16290        -7.46863         5.52889
     2022.16564        -2.56039         5.58933
     2022.16837        -1.02015         5.66991
     2022.17111        -2.53191         5.57321
     2022.17385        -0.62667         5.55710
     2022.17659        -0.21143         5.55206
     2022.17932        -4.71719         5.53997
     2022.18206        -8.36595         5.53594
     2022.18480        -8.59671         5.49364
     2022.18754        -1.09847         5.63365
     2022.19028        -6.43523         5.63264
     2022.19301        -7.21899         5.49867
     2022.19575         6.73625         5.57724
     2022.19849        -3.53051         5.61350
     2022.20123        -2.06727         5.60444
     2022.20397         1.78697         5.58429
     2022.20670        -2.18279         5.67293
     2022.20944         0.43245         5.66487
     2022.21218        -6.07431         5.55810
     2022.21492        -5.28007         5.52285
     2022.21765        -3.01683         5.51680
     2022.22039        -5.28559         5.52990
     2022.22313        -6.21535         5.59739
     2022.22587       -10.83211         5.62156
     2022.22861        -5.69387         5.63566
     2022.23134        -0.04563         5.60444
     2022.23408        -0.03539         5.58530
     2022.23682         4.56085         5.80287
     2022.23956        -0.22191         5.62055
     2022.24230         1.11733         5.56616
     2022.24503         2.45657         5.58228
     2022.24777         3.83281         5.60142
     2022.25051         2.14805         5.62660
     2022.25325         1.08229         5.60343
     2022.25598        10.28353         5.60041
     2022.25872         9.81277         5.65782
     2022.26146        -5.47899         5.57623
     2022.26420        -8.76175         5.58026
     2022.26694        -1.60051         5.77164
     2022.26967         4.70173         5.71423
     2022.27241         2.80697         5.58127
     2022.27515         5.52421         5.66789
     2022.27789        -0.80555         5.61451
     2022.28062        -2.13831         5.56112
     2022.28336         1.07993         5.63264
     2022.28610         7.54617         5.68804
     2022.28884         1.35141         5.69408
     2022.29158         0.43665         5.62055
     2022.29431        -7.12611         5.58429
     2022.29705         3.37913         5.63365
     2022.29979         6.50737         5.67998
     2022.30253        -2.23339         5.72732
     2022.30527        -4.95915         5.65681
     2022.30800        -5.87891         5.56616
     2022.31074        -4.68867         5.61854
     2022.31348        -4.60143         5.60947
     2022.31622        -6.20819         5.62660
     2022.31895       -15.97996         6.02950
     2022.32169        -0.03372         5.90662
     2022.32443        -2.59848         5.54098
     2022.32717        -9.47824         5.52788
     2022.32991        -5.95500         5.62760
     2022.33264       -10.16876         5.75653
     2022.33538       -14.70452         5.86935
     2022.33812        -8.57528         5.89151
     2022.34086        -6.60804         5.55407
     2022.34360         4.03120         5.60142
     2022.34633         7.63844         5.70013
     2022.34907         6.17168         5.59235
     2022.35181         2.19992         5.59235
     2022.35455        -2.65384         5.54602
     2022.35728        -5.83360         5.50472
     2022.36002        -3.40636         5.65480
     2022.36276         1.51588         5.54904
     2022.36550        -1.48488         5.51580
     2022.36824        -3.86264         5.56818
     2022.37097        -2.72240         5.49464
     2022.37371        -5.63316         5.63264
     2022.37645        -2.78292         5.51781
     2022.37919         0.35832         5.66689
     2022.38193        -2.67444         5.60746
     2022.38466        -9.52220         5.53594
     2022.38740       -15.06496         5.49968
     2022.39014       -10.10072         5.52386
     2022.39288        -4.99748         5.55105
     2022.39561        -4.51224         5.52486
     2022.39835        -2.89400         5.47551
     2022.40109        -0.38376         5.58832
     2022.40383        -1.05652         5.47853
     2022.40657        -3.91128         5.45939
     2022.40930       -15.54604         5.47651
     2022.41204       -12.15580         5.51580
     2022.41478       -15.28956         5.42111
     2022.41752        -9.75732         5.58026
     2022.42026        -1.22408         5.57724
     2022.42299        -3.42784         5.43925
     2022.42573        -5.52360         5.47954
     2022.42847         0.41564         5.47249
     2022.43121        -8.02112         5.57321
     2022.43394         1.33812         5.51278
     2022.43668        -5.77164         5.48356
     2022.43942        -9.19640         5.42212
     2022.44216         3.69284         5.43824
     2022.44490        -1.25492         5.55810
     2022.44763        -0.35168         5.43119
     2022.45037        -8.76044         5.46644
     2022.45311        -9.44520         5.43824
     2022.45585        -9.29496         5.39392
     2022.45859        -6.70072         5.62055
     2022.46132         1.17252         5.56213
     2022.46406        -1.38024         5.55911
     2022.46680        -3.34000         5.50270
     2022.46954        -8.02676         5.41205
     2022.47227       -17.59752         5.39694
     2022.47501        -0.73928         5.45435
     2022.47775        -3.36804         5.68804
     2022.48049       -10.55680         5.47551
     2022.48323        -2.40256         5.43320
     2022.48596        -1.60932         5.39694
     2022.48870        -5.67108         5.42817
     2022.49144         2.63316         5.47551
     2022.49418        -9.22660         5.54098
     2022.49692         6.10464         5.62257
     2022.49965         4.71888         5.50472
     2022.50239       -10.77288         5.49767
     2022.50513        -3.52164         5.65782
     2022.50787         1.42260         5.63768
     2022.51060        -2.78917         5.62861
     2022.51334        -7.02293         5.47148
     2022.51608        -5.40269         5.43824
     2022.51882       -11.26845         5.41910
     2022.52156         3.29179         5.47047
     2022.52429        -3.83597         5.40399
     2022.52703         2.89427         5.45536
     2022.52977        14.94151         5.53393
     2022.53251         3.86775         5.74545
     2022.53525        -5.31901         5.57825
     2022.53798         2.51623         5.57825
     2022.54072         3.63747         5.46946
     2022.54346         6.35971         5.51278
     2022.54620        10.21195         5.51983
     2022.54893         2.91719         5.47249
     2022.55167         6.72143         5.51983
     2022.55441         9.15067         5.48256
     2022.55715         4.50391         5.49062
     2022.55989         5.30115         5.43622
     2022.56262         2.49639         5.41608
     2022.56536        -1.28337         5.43320
     2022.56810        -0.41213         5.44831
     2022.57084        -3.63189         5.52788
     2022.57357        -1.81965         5.61753
     2022.57631        -4.06641         5.47249
     2022.57905        -0.29617         5.48558
     2022.58179         8.58507         5.41406
     2022.58453        11.68431         5.72531
     2022.58726         2.34855         5.55004
     2022.59000         1.37579         5.62660
     2022.59274        -3.97097         5.43421
     2022.59548         3.97527         5.46443
     2022.59822         0.09251         5.48961
     2022.60095        -9.32425         5.36672
     2022.60369        -0.47701         5.38485
     2022.60643         0.23323         5.43018
     2022.60917         4.48447         5.62055
     2022.61190        16.21071         5.65480
     2022.61464         8.39595         5.72329
     2022.61738         4.38019         5.51680
     2022.62012         1.02743         5.44025
     2022.62286         2.73067         5.46745
     2022.62559         3.01591         5.42111
     2022.62833         7.54615         5.45335
     2022.63107         1.07939         5.44428
     2022.63381         8.64963         5.47349
     2022.63655         3.49287         5.48256
     2022.63928         8.94411         5.51177
     2022.64202         1.55935         6.07584
     2022.64476         5.37259         5.88244
     2022.64750        13.24683         5.68502
     2022.65023        12.82107         5.62962
     2022.65297        13.57431         5.58832
     2022.65571        15.64255         5.59336
     2022.65845        14.28979         5.47853
     2022.66119         8.58003         5.34960
     2022.66392         9.45227         5.45133
     2022.66666         6.16651         5.39593
     2022.66940        11.87975         5.44227
     2022.67214         5.87999         5.32341
     2022.67488         6.51423         5.39795
     2022.67761         8.37047         5.40298
     2022.68035         9.18071         5.38485
     2022.68309        11.58195         5.39593
     2022.68583        19.51819         5.63365
     2022.68856        17.18243         5.51177
     2022.69130         6.78667         5.47047
     2022.69404         7.95591         5.46040
     2022.69678        13.58815         5.45637
     2022.69952         5.42439         5.50975
     2022.70225        13.14563         5.57523
     2022.70499        13.77286         5.63365
     2022.70773         5.41910         5.49968
     2022.71047        10.14534         5.41608
     2022.71321        15.88558         5.45637
     2022.71594        24.04382         5.53695
     2022.71868        15.26106         5.35967
     2022.72142        16.13530         5.40701
     2022.72416        15.04554         5.59739
     2022.72689        15.50578         5.55710
     2022.72963        14.27502         5.37780
     2022.73237         7.66226         5.33449
     2022.73511         8.58750         5.35262
     2022.73785         1.14674         5.39190
     2022.74058        12.80198         5.50572
     2022.74332        13.18922         5.67495
     2022.74606        13.75446         5.51983
     2022.74880         9.89470         5.36974
