# ================= DQRFIT RESULTS ================
# INPUT FILE: series/IDIF.rad
# OUTPUT: LDETRENDED
# FILTER FUNCTION: f(t)
# f(t)=+line(t)+annual(t)
# line(t)=+P 1+P 2*t
# annual(t)=+P 3*sin(2*pi*t+P 4)
# heav(t)=(t<0?0:1)
# TOTAL OBSERVATIONS MTOT= 2532
# INITIAL TIME INTERVAL= 2022.7488 - 2015.0007 =  7.7481
# TOTAL OBSERVATIONS AFTER PREFILTER M= 2526
# TIME-SPAN= 2022.7488 - 2015.0007 =  7.7481
# OBSERVATIONS: USED M=  2526 REJECTED MTOT-M=     6 %USED=   99.7630
# N=  4 PARAMETERS
# MAXSIG= 175.00000
# MAXRES=  20.54922
# SCALE FACTOR FOR LENGTHS: SCL=  10.00000
# SCALE FACTOR FOR SIGMAS: SCLSIG=   1.00000
# CHI^2=   2567.439 DOF=  2522 CHI^2/DOF=   1.01802
# RMS=      5.737 SDEV=      5.738 MEAN=    0.01510
#  P #       PARAMETER +-    SIGMA %error PARAMETER NAME
# P 1 =      3539.09443 +-  102.223   2.89 YZERO                              
# P 2 =        -1.75678 +-    0.051   2.88 SLOPE                              
# P 3 =         3.17443 +-    0.159   5.02 ANNUAL AMPLITUDE                   
# P 4 =         2.69927 +-    0.064   2.36 ANNUAL PHASE                       
#       T            LDETRENDED       SIG_OBS
     2015.00068         2.75436         5.59876
     2015.00342        -0.71683         5.64114
     2015.00616        -8.07702         5.62298
     2015.00889        -2.08621         5.72791
     2015.01163        -2.60140         5.62702
     2015.01437        -5.63759         5.66435
     2015.01711        -5.28378         5.78038
     2015.01984         1.01303         5.70572
     2015.02258         5.24184         5.80762
     2015.02532         2.72865         5.61894
     2015.02806        -7.25454         5.69260
     2015.03353        -6.29792         5.67141
     2015.03627         0.88589         5.70874
     2015.03901         0.77570         5.63307
     2015.04175         5.15451         5.76323
     2015.04449         1.92732         5.83184
     2015.04722         0.90913         5.78139
     2015.04996        -1.74906         5.71480
     2015.05270        -3.73025         5.71782
     2015.05544        -4.19944         5.60179
     2015.05817         6.43137         5.76323
     2015.06091         2.89018         5.70672
     2015.06365         2.20999         5.82881
     2015.06639        -2.75120         5.75213
     2015.06913        -1.56239         5.74002
     2015.07186        -3.26758         5.71681
     2015.07460        -2.59177         5.75616
     2015.07734        -5.00496         5.75717
     2015.08008        -4.61615         5.75616
     2015.08282         2.24466         5.75314
     2015.08555         1.75847         5.78441
     2015.08829         3.63028         5.74204
     2015.09103         0.74708         5.85101
     2015.09377         2.79489         5.79450
     2015.09650         4.13270         5.76323
     2015.09924         8.68851         5.91154
     2015.10198        16.68632         5.85706
     2015.10472         7.80613         5.82881
     2015.10746         1.45594         5.76424
     2015.11019        -0.42525         5.82578
     2015.11293        -3.15744         5.87522
     2015.11567        -0.28663         5.74607
     2015.11841        -4.20982         5.67746
     2015.12115        -2.76201         5.75011
     2015.12388        -3.60720         5.79551
     2015.12662        -2.58339         5.69462
     2015.12936         2.97142         5.72589
     2015.13210         2.30523         5.67948
     2015.13483        -1.21896         5.80762
     2015.13757        -2.92515         5.90650
     2015.14031         1.18266         5.72589
     2015.14305         2.78247         5.74708
     2015.14579         2.48128         5.75616
     2015.14852         2.80909         5.65224
     2015.15126         0.53590         5.71782
     2015.15400         3.95371         5.71681
     2015.15674         4.09552         5.69966
     2015.15948         6.33733         5.71480
     2015.16221         3.66814         5.68755
     2015.16495         4.74695         5.71076
     2015.16769         4.56576         5.73094
     2015.17043         1.07457         5.74204
     2015.17316         1.76638         5.88733
     2015.17590         1.28119         5.88430
     2015.17864         3.94400         5.72589
     2015.18138         4.11681         5.74305
     2015.18412         2.49162         5.70874
     2015.18685         0.05643         5.76726
     2015.18959         1.09124         5.73397
     2015.19233         4.37405         5.93273
     2015.19507        -4.16014         5.70672
     2015.19780         4.44267         5.74507
     2015.20054        -3.74252         5.79249
     2015.20328        -2.55271         5.77029
     2015.20602        -2.64290         5.76222
     2015.20876        -2.04109         5.85202
     2015.21149        -5.70428         5.75818
     2015.21423       -10.07147         5.68352
     2015.21697        -6.03266         5.75616
     2015.21971        -3.81985         5.72690
     2015.22245         8.02496         5.91457
     2015.22518         1.86676         5.79854
     2015.22792         0.16457         5.78240
     2015.23066        -0.10762         5.70168
     2015.23340         2.05719         5.88531
     2015.23613         9.60400         6.02354
     2015.23887         3.42481         5.90549
     2015.24161         0.08862         5.91054
     2015.24435         5.80543         5.87623
     2015.24709         9.56324         5.72892
     2015.24982         4.27705         5.84495
     2015.25256         1.48686         5.75011
     2015.25530        -3.20433         5.73598
     2015.25804         4.37048         5.83688
     2015.26078        10.79729         5.80560
     2015.26351        10.94110         5.83789
     2015.26625         6.51091         5.77433
     2015.26899        -5.95728         5.81166
     2015.27173        10.49053         5.92870
     2015.27446         9.17434         5.82679
     2015.27720        13.65015         5.77735
     2015.27994         1.84296         5.80258
     2015.28268         4.60877         5.76827
     2015.28542        -8.98142         5.95897
     2015.28815         6.06939         5.82477
     2015.29089         4.75020         5.75515
     2015.29363         2.21801         5.77029
     2015.29637         1.18382         5.75818
     2015.29911         6.20463         5.74607
     2015.30184         7.63144         5.73296
     2015.30458         4.81225         5.73296
     2015.30732        -0.45694         5.70370
     2015.31006        -0.25213         5.69058
     2015.31279         1.76968         5.61491
     2015.31553        -1.59651         5.72388
     2015.31827        -4.27670         5.58867
     2015.32101        -2.85589         5.69462
     2015.32375         0.22792         5.82982
     2015.32648        -4.06927         5.95392
     2015.32922        -3.38546         5.84596
     2015.33196         0.77335         5.80459
     2015.33470         8.58716         5.75616
     2015.33744         0.25597         5.72489
     2015.34017         0.94078         5.79350
     2015.34291        -0.60741         5.78542
     2015.34565        -3.14660         5.85605
     2015.34839         0.68121         5.66233
     2015.35112         0.15602         5.70370
     2015.35386         1.58283         5.71278
     2015.35660        -5.45336         5.73800
     2015.35934        -3.64056         5.91962
     2015.36208        -2.89875         5.86917
     2015.36481        -2.77494         5.92668
     2015.36755        -3.31513         5.76524
     2015.37029        -8.46332         5.78341
     2015.37303        -8.61251         5.71681
     2015.37577        -0.43170         5.79047
     2015.37850       -10.47489         5.92567
     2015.38124        -7.18008         5.73498
     2015.38398        -5.61027         5.80459
     2015.38672         2.32954         5.84899
     2015.38945         0.30135         5.84293
     2015.39219        -5.11584         5.69663
     2015.39493        -1.55503         5.77836
     2015.39767        -4.00422         5.84596
     2015.40041        -5.73041         5.99125
     2015.40314        -8.31460         5.91457
     2015.40588       -12.04279         5.79249
     2015.40862        -8.67098         5.83486
     2015.41136        -3.36917         5.80056
     2015.41410         7.00464         5.95392
     2015.41683       -10.38755         5.87522
     2015.41957        -1.76274         5.65325
     2015.42231         2.13207         5.89944
     2015.42505         3.43488         5.98621
     2015.42778         0.15969         5.78744
     2015.43052         1.95450         5.71278
     2015.43326        -2.51769         5.67242
     2015.43600         0.26612         5.72791
     2015.43874         2.63093         5.83789
     2015.44147        -0.74626         6.08912
     2015.44421         1.97955         5.78038
     2015.44695         2.04736         5.63711
     2015.44969         2.98317         5.72589
     2015.45243        -4.03402         5.98520
     2015.45516        -1.01621         5.89439
     2015.45790        -5.51740         5.86715
     2015.46064         4.14041         5.84697
     2015.46338         2.56822         5.82982
     2015.46611         9.46703         5.75919
     2015.46885         3.23684         5.75616
     2015.47159        -2.37035         5.77937
     2015.47433        -5.69154         5.89843
     2015.47707        -2.75473         5.79652
     2015.47980         1.21908         5.85605
     2015.48254        -1.96311         5.83587
     2015.48528        -1.53930         5.70269
     2015.48802        -0.61849         5.72489
     2015.49076         0.58032         5.66536
     2015.49349         2.34012         5.88228
     2015.49623         6.16093         6.06289
     2015.49897        -4.83426         5.84394
     2015.50171         2.20155         5.72287
     2015.50444         3.81836         5.76323
     2015.50718        -2.10183         5.63105
     2015.50992        -2.02002         5.73296
     2015.51266         4.91779         5.72690
     2015.51540        -2.77140         5.63912
     2015.51813         4.47441         5.74507
     2015.52087         5.78322         5.85504
     2015.52361         4.55103         5.72186
     2015.52635         2.90284         5.69865
     2015.52908         8.66765         5.72892
     2015.53182        11.09146         5.73094
     2015.53456         7.48727         5.87522
     2015.53730        -3.65492         5.83991
     2015.54004         0.10889         5.78542
     2015.54277         0.75670         5.81973
     2015.54551         0.36051         5.83587
     2015.54825        10.19632         5.82982
     2015.55099         8.32413         5.83587
     2015.55373         3.49894         5.80359
     2015.55646         3.72675         5.92365
     2015.55920         8.18356         5.97612
     2015.56194         7.32937         5.84495
     2015.56468         8.05118         5.74910
     2015.56741        13.23899         5.82175
     2015.57015        -1.58120         6.06188
     2015.57289         3.90361         5.91054
     2015.57563         2.02642         5.80560
     2015.57837         2.08523         5.83890
     2015.58110         5.56704         5.75112
     2015.58384         4.47985         5.79047
     2015.58658         7.04566         5.80056
     2015.58932        -2.66653         5.95089
     2015.59206        11.67128         5.99630
     2015.59479         2.58709         5.87522
     2015.59753        21.08890         5.83385
     2015.60027         4.31571         5.97006
     2015.60301         6.02652         5.96906
     2015.60574         6.66833         5.89742
     2015.60848         5.86814         5.89439
     2015.61122         8.31795         5.84899
     2015.61396         4.78576         5.85807
     2015.61670         9.61457         5.75717
     2015.61943         4.66438         5.79350
     2015.62217         6.08919         5.76524
     2015.62491        13.64100         5.77533
     2015.62765         7.02980         5.69563
     2015.63039         6.47061         5.60179
     2015.63312         8.81342         5.63509
     2015.63586        10.54623         5.65728
     2015.63860         5.54204         5.68049
     2015.64134         5.57685         5.61289
     2015.64407         7.11466         5.73699
     2015.64681         5.50747         5.90045
     2015.64955         8.25228         5.65628
     2015.65229         5.25709         5.79047
     2015.65503        11.37390         5.77735
     2015.65776        10.93371         5.75213
     2015.66050        10.19052         6.01749
     2015.66324        14.09433         5.66435
     2015.66598        13.05814         5.78240
     2015.66872        11.11095         5.75919
     2015.67145        10.65576         5.93576
     2015.67419        12.15457         5.72993
     2015.67693        19.48538         5.72791
     2015.67967        10.54019         5.67646
     2015.68240        10.11800         5.66132
     2015.68514         2.60881         5.75717
     2015.68788         8.03562         5.73094
     2015.69062         4.47443         5.63307
     2015.69336         3.39124         5.80560
     2015.69609         6.84605         5.64417
     2015.69883         7.67186         5.69966
     2015.70157         8.37067         5.75919
     2015.70431         2.50348         5.72085
     2015.70705        11.46229         5.74406
     2015.70978        16.71010         5.66233
     2015.71252         0.06091         5.74607
     2015.71526         4.56772         5.78643
     2015.71800        14.36853         5.68251
     2015.72073         7.33134         5.64720
     2015.72347        11.67715         5.60482
     2015.72621         3.49796         5.65325
     2015.72895         0.92077         5.69260
     2015.73169         4.66358         5.67948
     2015.73442         6.22339         5.73094
     2015.73716         8.76620         5.74204
     2015.73990        14.71601         5.72388
     2015.74264         4.78682         5.84798
     2015.74538         5.92063         5.96603
     2015.74811         6.64244         6.15168
     2015.75085         5.24425         5.94080
     2015.75359        -9.60694         5.68150
     2015.75633         8.51287         5.63408
     2015.75906        -5.51932         5.70471
     2015.76180        -5.24552         5.73296
     2015.76454        -8.00671         5.75213
     2015.76728         1.24810         5.69663
     2015.77002        -1.87309         5.57253
     2015.77275         3.14472         5.63408
     2015.77549         5.36753         5.75717
     2015.77823         5.25934         5.66132
     2015.78097        11.19715         5.72085
     2015.78371         8.97296         5.67646
     2015.78644         7.06477         5.57556
     2015.78918        -0.73242         5.64013
     2015.79192         1.24339         5.70773
     2015.79466        -6.16280         5.68856
     2015.79739         2.61701         5.75515
     2015.80013         0.75682         5.95594
     2015.80287        -6.86737         5.63811
     2015.80561        -5.01156         5.62399
     2015.80835        -5.47875         5.72690
     2015.81108        -3.21694         5.69462
     2015.81382         3.64787         5.67746
     2015.81656         2.12468         5.68957
     2015.81930         7.36949         5.76928
     2015.82203        -0.11470         5.72388
     2015.82477         2.96311         5.73296
     2015.82751         3.94592         5.74406
     2015.83025        12.88373         5.74507
     2015.83299         6.71854         5.72892
     2015.83572        -4.67765         5.69865
     2015.83846        -7.20684         5.90953
     2015.84120         8.25797         5.83184
     2015.84394         6.73778         5.82679
     2015.84668        -0.28341         5.79652
     2015.84941         3.77740         5.80661
     2015.85215         5.40721         5.89338
     2015.85489        10.11402         5.80359
     2015.85763         7.83083         5.80056
     2015.86036         1.12064         5.76827
     2015.86310         3.66045         5.77231
     2015.86584         6.21626         5.72085
     2015.86858        -3.31893         5.78946
     2015.87132         6.63188         5.77836
     2015.87405        11.01069         5.79047
     2015.87679         1.93650         5.80258
     2015.87953         3.64131         5.81670
     2015.88227         3.05512         5.72489
     2015.88501       -18.86607         6.27376
     2015.88774         2.53574         5.81367
     2015.89048         7.19955         5.84596
     2015.89322         7.30636         5.81670
     2015.89596         9.54516         5.78946
     2015.89869         7.26997         5.79350
     2015.90143         6.66178         5.79047
     2015.90417         3.64659         5.79148
     2015.90691         4.41840         5.81065
     2015.90965        -0.65279         5.77231
     2015.91238        -0.05198         5.77029
     2015.91512         5.20283         5.80661
     2015.91786         0.48864         5.81872
     2015.92060         3.98845         5.85504
     2015.92334         5.42026         5.81166
     2015.92607        -1.59493         5.73498
     2015.92881        -0.51112         5.79854
     2015.93155         2.57269         5.98419
     2015.93429         8.63450         5.90146
     2015.93702        15.69431         5.94787
     2015.93976         7.52012         6.09518
     2015.94250         4.80493         5.91054
     2015.94524         5.59674         5.87522
     2015.94798        13.21055         5.88228
     2015.95071         4.69636         5.75919
     2015.95345         7.13217         5.69764
     2015.95619         2.75398         5.84394
     2015.95893         9.85079         5.91154
     2015.96167         8.47160         5.80762
     2015.96440        12.07841         5.74103
     2015.96714        11.56622         5.71883
     2015.96988         9.52603         5.76726
     2015.97262        12.47484         5.72892
     2015.97535        12.82965         5.70672
     2015.97809         6.30546         5.65527
     2015.98083         3.50427         5.66334
     2015.98357        -4.80192         5.68049
     2015.98631        -6.30411         5.66536
     2015.98904         3.53670         5.67948
     2015.99178         4.67751         5.65224
     2015.99452        -1.75668         5.61188
     2015.99726        -5.86287         5.65022
     2016.00000        -5.88706         5.65123
     2016.00273        -7.36725         5.69260
     2016.00547        -9.35844         5.73195
     2016.00821        -1.59863         5.65527
     2016.01095         0.76618         5.69865
     2016.01368        -4.08301         5.63509
     2016.01642       -16.92020         5.83789
     2016.01916         0.97661         5.96603
     2016.02190        -0.26158         5.85403
     2016.02464         1.98723         5.78341
     2016.02737        -3.63196         5.60381
     2016.03011        -1.58716         5.64720
     2016.03285        -4.31035         5.69563
     2016.03559         0.64746         5.65325
     2016.03833         2.98227         5.77231
     2016.04106         1.39508         5.66031
     2016.04380        -0.06711         5.63509
     2016.04654         6.86770         5.78139
     2016.04928         5.43551         5.54933
     2016.05201         5.80532         5.58464
     2016.05475         0.83113         5.54226
     2016.05749        -0.88706         5.59977
     2016.06023         2.49975         5.60179
     2016.06297        -8.30544         5.56749
     2016.06570         1.09337         5.58666
     2016.06844         2.16818         5.55336
     2016.07118        -6.49001         5.56042
     2016.07392         0.99580         5.56950
     2016.07666         0.58461         5.83385
     2016.07939        -3.46658         5.55235
     2016.08213         2.60423         5.64820
     2016.08487         6.34304         5.53217
     2016.08761        -3.99015         5.52410
     2016.09034        -5.34934         5.59977
     2016.09308         0.62147         5.60684
     2016.09582       -14.61772         5.54125
     2016.09856       -14.06991         5.58867
     2016.10130       -10.85810         5.53419
     2016.10403        -9.86429         5.47264
     2016.10677       -10.25048         5.53217
     2016.10951        -8.96567         5.52410
     2016.11225        -4.59386         5.50796
     2016.11498        -4.69305         5.47567
     2016.11772        -3.75024         5.48172
     2016.12046         3.10857         5.48374
     2016.12320        -0.38662         5.49585
     2016.12594        -3.88981         5.56143
     2016.12867         3.11700         5.53520
     2016.13141         8.40181         5.53924
     2016.13415         2.08462         5.57657
     2016.13689         3.62343         5.60986
     2016.13963         2.58124         5.60986
     2016.14236        -2.03695         5.58060
     2016.14510        -3.96214         5.58968
     2016.14784        -9.43133         5.59271
     2016.15058        -3.36252         5.63408
     2016.15331        -0.27571         5.70168
     2016.15605         4.20310         5.63408
     2016.15879        -5.84809         5.65426
     2016.16153         0.15372         5.74809
     2016.16427        -1.86048         5.70168
     2016.16700        -2.50367         5.65224
     2016.16974        -1.87386         5.58363
     2016.17248        -3.67805         5.77231
     2016.17522        -3.16624         5.69260
     2016.17796         7.67657         5.68251
     2016.18069         2.61338         5.67948
     2016.18343         1.30819         5.76524
     2016.18617       -11.63500         5.67847
     2016.18891         2.46381         5.59372
     2016.19164         1.47962         5.71076
     2016.19438         3.10543         5.71480
     2016.19712         1.73424         5.64316
     2016.19986         7.73105         5.77130
     2016.20260         1.95386         5.71681
     2016.20533         4.88167         5.88935
     2016.20807        -1.21752         5.92668
     2016.21081        -7.74871         5.76524
     2016.21355        -8.93090         5.83789
     2016.21629        -3.46909         5.63206
     2016.21902         1.50372         5.64518
     2016.22176         0.88553         5.73800
     2016.22450       -11.90166         5.82679
     2016.22724        -6.61285         5.70168
     2016.22997         1.76796         5.71177
     2016.23271         0.72577         5.63811
     2016.23545        -0.01642         5.72085
     2016.23819         1.52039         5.72388
     2016.24093         3.85220         5.89641
     2016.24366         0.90601         5.71379
     2016.24640         3.10882         5.69058
     2016.24914        -3.29437         5.65930
     2016.25188         2.05244         5.69159
     2016.25462         1.98225         5.74204
     2016.25735        -9.29294         5.78542
     2016.26009        -2.18713         5.85605
     2016.26283        -8.31332         5.68856
     2016.26557        -8.50851         5.73901
     2016.26830        -2.45270         5.74507
     2016.27104        -2.92389         5.68251
     2016.27378         6.93792         5.75112
     2016.27652         1.25073         5.78542
     2016.27926         4.66254         5.71782
     2016.28199        -5.30865         5.82982
     2016.28473         2.00316         5.75415
     2016.28747        -1.48103         5.70269
     2016.29021        -7.35422         5.73296
     2016.29295        -6.56241         5.66737
     2016.29568        -3.69460         5.66233
     2016.29842        -2.85180         5.80056
     2016.30116        -4.63599         5.80863
     2016.30390       -15.24218         5.77130
     2016.30663        -0.50437         5.76625
     2016.30937         2.79744         5.72186
     2016.31211        -1.94175         5.71379
     2016.31485         1.67606         5.73498
     2016.31759        -0.66213         5.74406
     2016.32032        -3.53532         5.69764
     2016.32306        -4.29651         5.70471
     2016.32580        -2.69570         5.67948
     2016.32854         0.25711         5.64417
     2016.33128        -3.19908         5.70874
     2016.33401        -1.25227         5.66233
     2016.33675        -2.10046         5.67948
     2016.33949        -0.78165         5.70370
     2016.34223        -0.09884         5.75112
     2016.34496        -2.96903         5.84798
     2016.34770        -3.31222         5.83285
     2016.35044         5.03059         5.84193
     2016.35318         6.75040         5.83991
     2016.35592        -4.02379         5.69058
     2016.35865        -8.23398         5.62601
     2016.36139        -4.14717         5.74305
     2016.36413        -5.55236         5.79350
     2016.36687         0.41245         5.79955
     2016.36961         2.90326         5.85101
     2016.37234         8.34707         5.67646
     2016.37508        -2.16312         5.72388
     2016.37782        -6.96331         5.65628
     2016.38056        -3.91950         5.79148
     2016.38329         4.51431         5.85101
     2016.38603        -6.10188         5.74305
     2016.38877         2.49993         5.75112
     2016.39151        -0.39826         5.70975
     2016.39425        -0.63445         5.79955
     2016.39700        -3.92161         5.75616
     2016.39972        -3.15783         5.62197
     2016.40246        -3.98202         5.78744
     2016.40520        -5.18521         5.71580
     2016.40794        -9.96440         5.70370
     2016.41067        -6.38959         5.70168
     2016.41341        -9.62478         5.65123
     2016.41615        -6.86497         5.65123
     2016.41889        -8.35716         5.77130
     2016.42162        -3.67235         5.75213
     2016.42436        -8.02854         5.67545
     2016.42710        -6.68873         5.67646
     2016.42984        -8.91992         5.78845
     2016.43258        -3.52412         5.75515
     2016.43531        -0.80531         5.79350
     2016.43805        -0.12850         5.87623
     2016.44079         0.46531         5.73901
     2016.44353        -2.44188         5.72388
     2016.44626       -10.48207         5.75314
     2016.44849         1.12084         7.30493
     2016.46817        -0.16959         5.78946
     2016.47091         1.28222         5.76726
     2016.47364        -3.20097         5.72287
     2016.47638         4.00684         5.70672
     2016.47912         6.86965         5.84495
     2016.48186        -2.76354         5.73901
     2016.48459        -5.28673         5.67040
     2016.48733        -9.22192         5.67545
     2016.49007         0.60489         5.67545
     2016.49281         1.44170         5.65527
     2016.49555         1.80151         5.87623
     2016.49766        -2.62078         7.84372
     2016.54255        -2.66292         7.12332
     2016.54483         1.88409         5.66334
     2016.54750        -0.47722         5.76121
     2016.55035         5.13678         6.01345
     2016.55304         3.83452         5.66939
     2016.55578         4.35833         5.84596
     2016.55852         2.56714         5.76020
     2016.56125         1.23695         5.68755
     2016.56399         1.26876         5.72993
     2016.56673         2.49956         5.87119
     2016.56947        -2.61863         5.95695
     2016.57221         1.47718         5.72186
     2016.57494         5.84399         5.84193
     2016.57768         0.99780         5.79450
     2016.58042         6.33161         5.90852
     2016.58316         1.60542         5.79047
     2016.58590         1.31723         5.71278
     2016.58863         6.11204         5.71480
     2016.59137         1.10585         5.72993
     2016.59411         2.24166         5.73195
     2016.59685         4.25247         5.76020
     2016.59958         7.26628         5.89036
     2016.60232        -1.07691         5.70370
     2016.60506         6.79890         5.73800
     2016.60780         3.05071         5.71076
     2016.61054        -0.88148         5.68150
     2016.61327        -5.19267         5.64921
     2016.61601         4.86814         5.77634
     2016.61875         2.33895         5.78139
     2016.62149         3.97576         5.66132
     2016.62423         8.63457         5.80056
     2016.62696         9.05238         5.71278
     2016.62970         1.71419         5.70168
     2016.63244         3.55500         5.83184
     2016.63518         4.22981         5.69663
     2016.63791         7.71262         5.73498
     2016.64065        12.12543         5.75213
     2016.64339         9.18324         5.73699
     2016.64613         1.54405         5.66737
     2016.64887         9.09586         5.63408
     2016.65160         4.41867         5.82276
     2016.65434         3.36048         5.67242
     2016.65708         4.52929         5.75717
     2016.65982        -4.79890         5.68654
     2016.66256         2.71491         5.71177
     2016.66529         2.42972         5.74002
     2016.66803         8.60653         5.75011
     2016.67077         8.58934         5.89137
     2016.67351         8.63215         5.65022
     2016.67624         9.22396         5.65930
     2016.67898         7.13277         5.85202
     2016.68172        12.10458         5.63509
     2016.68446        13.45339         5.98621
     2016.68720         1.13520         6.13654
     2016.68993         5.31201         5.74204
     2016.69267         2.70682         5.70168
     2016.69541         4.06263         5.69764
     2016.69815        10.98544         5.66031
     2016.70089        10.98524         5.71883
     2016.70362        17.76505         5.97410
     2016.70636         4.47986         5.99529
     2016.70910         1.02367         5.98924
     2016.71184         6.34048         5.71076
     2016.71457        12.21129         5.63811
     2016.71731        16.38110         5.80157
     2016.72005        16.25691         5.63206
     2016.72279        11.66872         5.61289
     2016.72553         4.71953         5.83083
     2016.72826         6.08934         5.89944
     2016.73100         5.26215         5.83285
     2016.73374         7.35396         5.66838
     2016.73648         1.71777         5.63811
     2016.73921         0.47158         5.68251
     2016.74195        -2.26861         5.64921
     2016.74469         5.54620         5.66233
     2016.74743        12.30501         5.73498
     2016.75017         9.90482         5.85706
     2016.75290         2.88263         5.90953
     2016.75564         7.03544         5.74507
     2016.75838        11.47925         5.66838
     2016.76112         2.69206         5.72489
     2016.76386         6.57487         5.65628
     2016.76659         0.76368         5.69764
     2016.76933         8.44949         5.67545
     2016.77207        -0.91170         5.70874
     2016.77481        12.17711         5.68251
     2016.77754        10.72492         5.67343
     2016.78028         6.66373         5.64619
     2016.78302         4.33554         5.70370
     2016.78576        13.87535         5.63610
     2016.78850        11.60616         5.74809
     2016.79123        11.41197         5.75314
     2016.79397        13.38078         5.72388
     2016.79671         6.54459         5.72388
     2016.79945         5.25540         5.57051
     2016.80219         6.81221         5.60986
     2016.80492        11.39502         5.69159
     2016.80766         8.98783         5.68453
     2016.81040         5.05964         5.65224
     2016.81314         5.11345         5.66737
     2016.81587         0.29526         5.76424
     2016.81861        -1.58593         5.66838
     2016.82135         6.76888         5.70572
     2016.82409         4.97769         5.64518
     2016.82683        -0.32250         5.74910
     2016.82956         0.02631         5.58767
     2016.83230        10.73712         5.80359
     2016.83504         4.36792         5.55336
     2016.83778         7.29873         5.69764
     2016.84052         2.49154         5.66536
     2016.84325         2.19835         5.56749
     2016.84599         4.91616         5.55033
     2016.84873        10.19397         5.61491
     2016.85147         5.21478         5.60986
     2016.85420         4.87959         5.71076
     2016.85694         4.85140         5.65728
     2016.85968         6.98621         5.72791
     2016.86242         4.71202         5.52208
     2016.86516         8.91083         5.63408
     2016.86789        10.86464         5.65527
     2016.87063         8.62945         5.74103
     2016.87337        13.25726         5.66536
     2016.87611        12.42807         5.69764
     2016.87805         5.99548         8.71345
     2016.88158        -2.07931         5.62702
     2016.88706         7.61231         5.66031
     2016.88980         7.28212         5.59473
     2016.89253         4.94293         5.62601
     2016.89527         3.91374         5.66435
     2016.89801         4.95655         5.59574
     2016.90075         4.59636         5.59271
     2016.90349        11.42217         5.65022
     2016.90622        15.88398         5.84495
     2016.90896        11.16979         5.57959
     2016.91204         8.41020         6.55224
     2016.91461         8.91771         5.96805
     2016.91718         5.06822         5.62399
     2016.91991        -3.78697         5.65426
     2016.92265         1.64584         5.65527
     2016.92539         5.55065         5.57253
     2016.92813         1.43046         5.68654
     2016.93086         0.32227         5.57455
     2016.93360         3.41708         5.59069
     2016.93634         1.21989         5.59776
     2016.93908        -1.20030         5.66637
     2016.94182         6.76651         5.90953
     2016.94455         1.73332         5.65930
     2016.94729         5.53813         5.61289
     2016.95003         3.92594         5.65022
     2016.95277         5.25275         5.69563
     2016.95551        -3.36844         5.57354
     2016.95824        -1.48863         5.57859
     2016.96098         5.84618         5.51098
     2016.96372        -5.80601         5.50897
     2016.96646        -2.23120         5.56749
     2016.98305        -4.94105         5.99529
     2016.98847       -11.81053         5.84193
     2016.99110        -4.88792         5.52713
     2016.99384        -3.24011         5.50089
     2016.99657         0.58870         5.49989
     2016.99931        -6.33449         5.55740
     2017.18822       -16.42061         5.73598
     2017.19096       -14.06780         5.57354
     2017.19370        -4.26699         5.63711
     2017.24024        -5.72223         5.60078
     2017.24298        -3.79642         5.63610
     2017.24572        -3.49761         5.49585
     2017.24846        -4.49680         5.57354
     2017.25119        -4.02799         5.61693
     2017.25393        -2.83218         5.60885
     2017.25667        -6.02337         5.67343
     2017.27310        -4.27951         5.60684
     2017.27583        -5.91270         5.60885
     2017.27857        -8.55389         5.59876
     2017.28131        -7.40308         5.65527
     2017.28405        -4.15827         5.68554
     2017.28679        -4.50546         5.63206
     2017.28952        -5.98265         5.54226
     2017.29226         1.12116         5.74305
     2017.29500       -12.11903         5.63206
     2017.29774        -5.88022         5.66132
     2017.30047        -5.67641         5.66536
     2017.30321        -8.51260         5.58262
     2017.30595       -13.94679         5.66637
     2017.30869        -6.42798         5.56850
     2017.31143        -2.40417         5.59876
     2017.31416       -14.74436         5.70874
     2017.31690        -1.53455         5.65426
     2017.31964        -7.39774         5.81267
     2017.32238        -8.77193         5.85101
     2017.32512        -8.55912         5.60583
     2017.32785        -6.60831         5.61289
     2017.33059        -7.29750         5.60885
     2017.33333       -11.67369         5.69361
     2017.33607       -16.29088         5.64316
     2017.33880       -10.45307         5.57253
     2017.34154        -3.91926         5.71480
     2017.34428        -6.24045         5.63610
     2017.34702        -6.91064         5.71379
     2017.34976       -12.05283         5.70672
     2017.35249        -6.28802         5.69563
     2017.35523       -12.99721         5.56850
     2017.35797       -13.44840         5.55235
     2017.36344       -12.06178         5.68453
     2017.36618        -8.09897         5.65628
     2017.36892        -2.74616         5.65930
     2017.37166         0.93664         5.75616
     2017.37440        -3.98955         5.64619
     2017.37713        -5.40174         5.72993
     2017.38261        -8.92512         5.67141
     2017.38535        -6.58531         5.67545
     2017.38809        -9.51350         5.71177
     2017.39082        -8.81069         5.62903
     2017.39356        -8.98788         5.78139
     2017.39630        -5.17307         5.59876
     2017.39904        -1.28826         5.65022
     2017.40177        -8.36345         5.60482
     2017.40451       -12.92764         5.81267
     2017.40725       -14.88983         5.57959
     2017.40999       -16.43802         5.73800
     2017.41244        -0.97571         6.45639
     2017.42740       -13.74542        10.88677
     2017.42915       -11.11535         5.56749
     2017.43189       -11.74554         5.67040
     2017.43463       -11.56173         5.61894
     2017.43737        -6.09492         5.56648
     2017.44010       -11.50711         5.60078
     2017.44284         1.62670         5.58565
     2017.44558        -2.50849         5.69563
     2017.44832        -9.76568         5.54529
     2017.45106         6.14613         5.64921
     2017.45379       -10.90906         5.84798
     2017.45653        -3.96025         5.80762
     2017.45927        -2.95444         5.58767
     2017.46201        -8.00363         5.49081
     2017.46475       -10.29382         5.58666
     2017.46748        -9.40301         5.68957
     2017.47022       -16.42220         5.69563
     2017.47296        -5.88639         5.58060
     2017.47570        -5.08858         5.52612
     2017.47843       -12.68077         5.50796
     2017.48117       -11.13896         5.65325
     2017.48391        -7.72915         5.56749
     2017.48665         0.35166         5.76121
     2017.48939        -3.07553         5.82578
     2017.49212        -6.01472         5.67948
     2017.49486       -13.99891         5.65527
     2017.49760        -6.80610         5.65930
     2017.50034        -6.72729         5.63408
     2017.50308        -6.48048         5.55740
     2017.50581       -10.72068         5.68856
     2017.50855       -12.78487         5.64417
     2017.51129        -7.66906         5.78744
     2017.51403       -10.04125         5.69058
     2017.51676        -6.98244         5.61188
     2017.51950        -2.79163         5.71278
     2017.52224        -3.00782         5.73598
     2017.52498        -4.68001         5.60583
     2017.52772        -8.00120         5.72993
     2017.53045        -9.39739         5.68856
     2017.53319        -5.43258         5.69865
     2017.53593        -4.17477         5.73598
     2017.53867        -7.43096         5.63307
     2017.54141         4.88785         5.64720
     2017.54414        -0.33334         5.63307
     2017.54688        -5.24653         5.59776
     2017.54962         5.19928         6.04977
     2017.55236        -6.12591         5.59170
     2017.55509        -1.61510         5.54125
     2017.55783        -0.64629         5.61995
     2017.56057       -13.22348         5.54529
     2017.56331        -7.76067         5.57354
     2017.56605        -1.57786         5.63912
     2017.56878        -5.19805         6.00538
     2017.57152        -7.89424         5.61188
     2017.57426        -5.63143         5.58867
     2017.57700       -11.48762         5.63509
     2017.57974        -2.28581         5.69764
     2017.58247        -4.71200         5.60684
     2017.58521       -10.03519         5.59574
     2017.58795        -6.23138         5.77634
     2017.59069       -10.39357         5.78946
     2017.59342        -2.20576         5.65426
     2017.59616        -0.64795         5.58060
     2017.59890        -3.30014         5.62096
     2017.60164        -3.18533         5.63711
     2017.60438        -8.58452         5.60280
     2017.60711        -5.27871         5.75919
     2017.60985        -5.59390         5.86211
     2017.61259        -1.51109         5.65123
     2017.61533        -4.86728         5.75515
     2017.61807         0.16953         5.80359
     2017.62080        -9.13166         5.74708
     2017.62354        -4.98285         5.71580
     2017.62628        -2.97704         5.66334
     2017.62902        -0.88623         5.86412
     2017.63175        -7.49842         5.64417
     2017.63449        -7.84661         5.64720
     2017.63723        -6.23680         5.62903
     2017.63997        -0.29600         5.63206
     2017.64271        -1.24119         5.62802
     2017.64544        -0.63338         5.57455
     2017.64818         0.68843         5.88228
     2017.65092        -6.02876         5.61894
     2017.65366        -0.37295         5.66939
     2017.65639        -5.70314         5.63206
     2017.65913        -4.73033         5.68453
     2017.66187         0.66448         5.69462
     2017.66461         2.92829         5.73195
     2017.66735        -0.87690         5.74809
     2017.67008        -3.40209         5.60280
     2017.67282         0.32572         5.73094
     2017.67556        -0.18947         5.58262
     2017.67830        -3.38166         5.60885
     2017.68104        -7.41185         5.59170
     2017.68377         0.09496         5.70572
     2017.68651         1.48477         5.75213
     2017.68925         8.42458         5.61995
     2017.69199         2.89539         5.71076
     2017.69472        -2.68380         5.53621
     2017.69746         4.98301         5.77433
     2017.70020         7.66182         5.73094
     2017.70294        -1.08537         5.97612
     2017.70568        -2.93256         5.93778
     2017.70841        -1.77775         5.51906
     2017.71115        -6.38794         5.64518
     2017.71389         3.30687         5.54832
     2017.71663         7.26068         5.72085
     2017.71937         8.67549         5.57959
     2017.72210        -5.84170         5.62096
     2017.72484        -5.09589         5.54933
     2017.72758         0.00492         5.53722
     2017.73032         5.22973         5.51805
     2017.73305         2.68554         5.53015
     2017.73579         1.11735         5.55639
     2017.73853        -5.43384         5.53520
     2017.74127        -5.50303         5.55941
     2017.74401        -0.36522         5.54125
     2017.74674         1.56559         5.63711
     2017.74948         1.22340         5.69260
     2017.75222        -3.38579         5.57758
     2017.75496         0.10202         5.58262
     2017.75770        -1.69717         5.75616
     2017.76043        -1.38236         5.55841
     2017.76317         6.79545         5.55941
     2017.76591         6.63126         5.59271
     2017.76865         3.21107         5.55740
     2017.77138        -1.06812         5.53722
     2017.77412        -0.68432         5.53217
     2017.77686        -1.46951         5.59069
     2017.77960         2.66230         5.67343
     2017.78234        -3.20189         5.56446
     2017.78781       -10.61827         5.49081
     2017.79055        -4.59946         5.56950
     2017.79329         1.69135         5.59776
     2017.79603         5.72716         5.61995
     2017.79876         5.57797         5.64720
     2017.80150         9.56678         5.76121
     2017.80424        12.02359         5.57556
     2017.80698         0.42440         5.53924
     2017.80971        -6.29879         5.63610
     2017.81245        -4.38298         5.56345
     2017.81519         0.01883         5.57758
     2017.81793         0.48664         5.58767
     2017.82067         0.54045         5.69462
     2017.82340        -0.70174         5.59675
     2017.82614         3.87107         5.53924
     2017.82888        -0.35012         5.56143
     2017.83162         5.85769         5.61592
     2017.83436         6.67050         5.56648
     2017.83709         4.74031         5.81267
     2017.83983         6.40912         5.59069
     2017.84257        -5.62107         5.61289
     2017.84531        -3.05026         5.58161
     2017.84804        -6.94045         5.59473
     2017.85078        -2.27164         5.57556
     2017.85352        -0.44583         5.57859
     2017.85626         2.58298         5.69260
     2017.85900         3.26079         5.64720
     2017.86173         1.85060         5.76928
     2017.86447        -5.07359         5.57859
     2017.86721         6.95622         5.63509
     2017.86995         5.03203         5.55134
     2017.87269         4.51584         5.50796
     2017.87542        -3.66135         5.55437
     2017.87816        -1.94754         5.60986
     2017.88090         2.54627         5.55740
     2017.88364         2.67208         5.56547
     2017.88637         9.05489         5.53924
     2017.88911         4.65970         5.53520
     2017.89185        -9.09149         5.62399
     2017.89459        -0.69968         5.55740
     2017.89733         3.65113         5.63004
     2017.90006         1.72894         5.57253
     2017.90280         3.21275         5.57455
     2017.90554         2.20056         5.59977
     2017.90828         0.84436         5.54529
     2017.91102         4.68017         5.56446
     2017.91375         1.64498         5.58767
     2017.91649         2.04379         5.51906
     2017.91923         0.44960         5.54529
     2017.92197         8.01441         5.63105
     2017.92470        -0.23078         5.52915
     2017.92744        -4.26397         5.55639
     2017.93018        -7.82716         5.50089
     2017.93292        -1.38735         5.51300
     2017.93566        -4.49354         5.58968
     2017.93839        -4.63073         5.56143
     2017.94113        -1.95192         5.56042
     2017.94387         2.99289         5.56749
     2017.94661         5.18270         5.54024
     2017.94935         1.94351         5.56749
     2017.95208         0.90332         5.70572
     2017.95482        -4.37487         5.65628
     2017.95756         1.30194         5.51502
     2017.96030        -0.87625         5.46457
     2017.96303         1.08156         5.51502
     2017.96577         6.14737         5.65527
     2017.96851         2.57718         5.64820
     2017.97125        -3.99701         5.49181
     2017.97399        -0.71620         5.40504
     2017.97672         0.34461         5.52612
     2017.97946         3.36742         5.51906
     2017.98220        -5.81977         5.49282
     2017.98494        -7.07396         5.52208
     2017.98767       -11.55815         5.48677
     2017.99041        -8.16634         5.48879
     2017.99315        -3.68953         5.54226
     2017.99589         3.52328         5.53318
     2017.99863        -3.84791         5.50493
     2018.00136        -7.26510         5.51502
     2018.00410        -6.08029         5.54933
     2018.00684        -5.82348         5.51300
     2018.00958        -2.43067         5.47466
     2018.01232        -1.68886         5.60078
     2018.01505        -2.02405         5.55437
     2018.01740        -5.71993         6.89428
     2018.02139         6.65709         9.33598
     2018.02327         1.21538         5.43228
     2018.02600         0.99919         5.43128
     2018.02874        -2.45700         5.49585
     2018.03148        -4.85919         5.53722
     2018.03422         1.73262         5.48172
     2018.03696       -10.10257         5.64921
     2018.03969        -5.93176         5.46558
     2018.04243        -8.65596         5.50796
     2018.04517        -6.96615         5.57354
     2018.04791        -6.39334         5.46054
     2018.05065         1.95547         5.53924
     2018.05338        -0.36972         5.49181
     2018.05612        -2.54391         5.52915
     2018.05886        -2.08410         5.54024
     2018.06160         0.29671         5.59170
     2018.06433        -0.15248         5.65829
     2018.06707         3.60333         5.66132
     2018.06981        -4.40486         5.66737
     2018.07252        -2.13109         7.06177
     2018.07531       -24.29719        23.18104
     2018.07794       -19.09357        16.50975
     2018.08062         3.09514        20.54360
     2018.08353       -20.09776        17.27051
     2018.17431        -4.54428         6.61177
     2018.17659        -2.86928         5.58867
     2018.17932        -4.55847         5.53621
     2018.18206        -0.71366         5.70773
     2018.18480         4.18215         5.68049
     2018.18754        -3.76004         5.58867
     2018.19028        -1.29623         5.59977
     2018.19301        -4.87042         5.54428
     2018.19575        -0.18161         5.57959
     2018.19849        -2.30180         5.63408
     2018.20123       -10.13299         5.92567
     2018.20397         6.35182         5.56950
     2018.20670         9.23263         5.55639
     2018.20944         1.14844         5.52309
     2018.21218        -0.54875         5.57657
     2018.21492       -10.46094         5.55437
     2018.21765         2.37387         5.50998
     2018.22039        -0.14532         5.58060
     2018.22313         3.27949         5.53217
     2018.22587        -7.88670         5.54327
     2018.22861         1.57911         5.45650
     2018.23134         3.02092         5.49989
     2018.23408        -2.30527         5.50089
     2018.23682        -1.78046         5.52612
     2018.23956        -4.17065         5.47466
     2018.24230        -1.24184         5.52107
     2018.24503         2.11097         5.48677
     2018.24777        -2.80222         5.54428
     2018.25051         9.91959         5.57758
     2018.25325         4.45440         5.50594
     2018.25598         0.29021         5.41715
     2018.25872        -2.99698         5.55941
     2018.26146        -4.31817         5.56042
     2018.26420        -6.21036         5.56749
     2018.26694         4.73745         5.58767
     2018.26967        -4.55174         5.44237
     2018.27241        -1.72493         5.41211
     2018.27515         7.70988         5.53015
     2018.27789         2.49069         5.67141
     2018.28062        -1.14950         5.73296
     2018.28336        -3.13069         5.49888
     2018.28610         2.11812         5.45045
     2018.28884         4.11393         5.47264
     2018.29158         3.22774         5.59876
     2018.29431         0.71955         5.58565
     2018.29705        -3.95264         5.47466
     2018.29979         0.20317         5.41110
     2018.30253        -1.13802         5.45650
     2018.30527        -4.95521         5.45146
     2018.30800        -5.30340         5.55941
     2018.31074        -8.79460         5.47668
     2018.31348        -5.67279         5.48980
     2018.31622        -8.97098         5.40706
     2018.31895        -2.90517         5.58565
     2018.32169        -1.32836         5.44540
     2018.32443        -5.83655         5.46356
     2018.32717        -0.94374         5.47264
     2018.32991        -3.14493         5.64316
     2018.33264        -1.84812         5.40706
     2018.33538        -6.99331         5.59271
     2018.33812        -3.53850         5.58363
     2018.34086        -5.97169         5.50493
     2018.34360       -12.77188         5.53722
     2018.34633        -8.78907         5.48677
     2018.34907       -11.45926         5.48374
     2018.35181         0.45055         5.52309
     2018.35455        -2.83964         5.56042
     2018.35728         3.92617         5.63307
     2018.36002        -9.92702         5.62702
     2018.36276        -7.24021         5.57657
     2018.36550        -8.87740         5.50291
     2018.36824        -4.74059         5.51401
     2018.37097         1.74022         5.62197
     2018.37371         2.77403         5.54428
     2018.37645        -5.14916         5.65224
     2018.37919        -4.71535         5.47971
     2018.38193        -4.20654         5.52309
     2018.38466        -7.54673         6.13352
     2018.38740         1.22408         5.56648
     2018.39014        -6.04411         5.48072
     2018.39288        -9.91630         5.48273
     2018.39561        -8.13549         5.53621
     2018.39835        -2.41068         5.56446
     2018.40109        -3.81087         5.66737
     2018.40383        -6.69806         5.54226
     2018.40657       -10.34925         5.56749
     2018.40930        -6.74444         5.64316
     2018.41204        -0.27963         5.66233
     2018.41478        -6.89382         5.58565
     2018.41752        -4.74501         5.49383
     2018.42026       -11.63320         5.46255
     2018.42299        -9.49639         5.50594
     2018.42573        -2.66358         5.60482
     2018.42847         3.37023         5.51502
     2018.43121         2.31304         5.54428
     2018.43394        -4.03515         5.54630
     2018.43668        -6.02334         5.40504
     2018.43942        -0.87253         5.56547
     2018.44216         0.18028         5.43935
     2018.44490        -4.06292         5.43128
     2018.44763        -2.61511         5.43430
     2018.45037        -2.71530         5.53520
     2018.45311        -0.33949         5.64013
     2018.45585        -7.10768         5.63206
     2018.45859         3.59513         5.57354
     2018.46132        -2.18006         5.59271
     2018.46406        -6.16325         5.50998
     2018.46680        -5.78744         5.49282
     2018.46954       -10.65463         5.54226
     2018.47227         3.12318         5.56345
     2018.47501        13.26499         5.60885
     2018.47775         5.51880         5.52915
     2018.48049        -7.02139         5.54529
     2018.48323        -7.93558         5.46659
     2018.48596        -5.41877         5.48980
     2018.48870        -3.00896         5.42724
     2018.49144         7.89385         5.54125
     2018.49418        -3.83434         5.66838
     2018.49692        -4.35253         5.63105
     2018.49965        -3.68772         5.49081
     2018.50239         1.87809         5.46659
     2018.50513        -3.39210         5.53116
     2018.50787        -5.56629         5.58666
     2018.51060        -5.52348         5.57253
     2018.51334        -1.46367         5.50998
     2018.51608        -8.15586         5.45246
     2018.51882        -8.97105         5.47769
     2018.52156        -2.94224         5.68856
     2018.52429         1.93757         5.61794
     2018.52703        -6.22762         5.63206
     2018.52977        -2.99881         5.53015
     2018.53251         1.13900         5.50291
     2018.53525        -4.16219         5.59372
     2018.53798        -2.65338         5.60785
     2018.54072        -0.64457         5.73397
     2018.54346        -2.95076         5.51300
     2018.54620        -4.58695         5.58867
     2018.54893        -3.48714         5.61390
     2018.55167        -0.36233         5.67847
     2018.55441        -7.06552         5.58565
     2018.55715        -3.96671         5.53722
     2018.55989        -3.80390         5.62903
     2018.56258        -4.55517         5.69159
     2018.56548        -9.34208         6.08610
     2018.56810        -5.20147         5.67746
     2018.57084         1.69434         5.60684
     2018.57357        -2.56585         5.91054
     2018.57631        -6.30904         5.80762
     2018.57905        -0.87224         5.82074
     2018.58179         1.26457         5.74204
     2018.58453         3.51538         5.76121
     2018.58726         4.77119         5.74809
     2018.59000         1.97600         5.61592
     2018.59274         5.65381         5.61087
     2018.59548        -0.81138         5.55134
     2018.59822        -1.63557         5.57354
     2018.60095        -3.51476         5.47971
     2018.60369         2.22005         5.55639
     2018.60643        -5.95614         5.55437
     2018.60917         0.54367         5.58262
     2018.61190         3.39148         5.50392
     2018.61464         0.47329         5.52410
     2018.61738         3.01710         5.56547
     2018.62012        -2.63509         5.52814
     2018.62286         2.19072         5.55941
     2018.62559        10.71453         5.61188
     2018.62833        -1.21966         5.66334
     2018.63107         1.26815         5.54731
     2018.63381         2.39396         5.75515
     2018.63655         1.53377         5.55235
     2018.63928         1.17158         5.89137
     2018.64202        -3.68861         5.82074
     2018.64476         5.43320         5.54529
     2018.64750         0.39201         5.54226
     2018.65023         7.48682         5.79047
     2018.65297        11.95063         5.55941
     2018.65571        -0.82456         5.53419
     2018.65845        -3.07075         5.48475
     2018.66119         3.47706         5.58262
     2018.66392         3.99487         5.53116
     2018.66666         4.79368         5.46962
     2018.66940         7.55049         5.52309
     2018.67214         4.55830         5.51906
     2018.67488         3.55911         5.44439
     2018.67761         0.51292         5.46255
     2018.68035        -2.88427         5.61087
     2018.68309         1.33454         5.58565
     2018.68583         1.50935         5.64921
     2018.68856         7.51716         5.50089
     2018.69130         5.85897         5.49282
     2018.69404         2.43478         5.63912
     2018.69678         8.31359         5.51603
     2018.69952         8.61340         5.51603
     2018.70225         1.93721         5.61188
     2018.70499         2.97702         5.58161
     2018.70773        -2.79917         5.57758
     2018.71047        -4.28536         5.57556
     2018.71321         6.20344         5.52208
     2018.71594         5.42825         5.47567
     2018.71868        -3.10694         5.48273
     2018.72142        -2.91313         5.53015
     2018.72416        -2.09732         5.51502
     2018.72689         3.13249         5.58363
     2018.72963         6.06130         5.56749
     2018.73237        -1.14389         5.47971
     2018.73511        -0.34408         5.50392
     2018.73785        -0.51827         5.55841
     2018.74058        -3.83346         5.50998
     2018.74332         8.97335         5.53823
     2018.74606         6.93016         5.48273
     2018.74880        -0.04903         5.57455
     2018.75154        -0.12722         5.51906
     2018.75427         2.32159         5.55740
     2018.75701         1.14540         5.75112
     2018.75975        -0.60779         5.54024
     2018.76249         1.59002         5.54428
     2018.76522        -3.66017         5.65728
     2018.76796         0.24564         5.51098
     2018.77070         3.18245         5.53015
     2018.77344        -0.76874         5.53924
     2018.77618        -1.17793         5.49383
     2018.77891         0.35688         5.55740
     2018.78165         2.01569         5.68150
     2018.78439         2.09050         5.55740
     2018.78713         0.72631         5.55134
     2018.78987        -2.08488         5.58867
     2018.79260        -4.73807         5.47466
     2018.79534         2.69874         5.59473
     2018.79808         0.51555         5.56042
     2018.80082         1.74536         5.65728
     2018.80355         4.45417         5.59977
     2018.80629         3.47298         5.62601
     2018.80903         0.31279         5.59776
     2018.81177        -7.73240         5.86513
     2018.81451        -0.83059         5.66838
     2018.81724         0.95222         5.61693
     2018.81998         4.28103         5.53217
     2018.82272         7.74084         5.53116
     2018.82546        16.06665         5.57556
     2018.82820         2.93646         5.55538
     2018.83093        -0.59973         5.56547
     2018.83367         3.26608         5.51805
     2018.83641        14.29489         5.65426
     2018.83915         5.57670         5.55033
     2018.84188         0.22251         5.50998
     2018.84462         7.80232         5.48475
     2018.84736        -3.29888         5.49989
     2018.85010         3.34793         5.49081
     2018.85284         0.18074         5.49383
     2018.85557        -4.14045         5.48374
     2018.85831         5.37536         5.49282
     2018.86105         1.18917         5.46861
     2018.86379        -4.79802         5.59977
     2018.86653         6.13279         5.48576
     2018.86926        -2.82940         5.49989
     2018.87200         1.37941         5.48475
     2018.87474         5.45922         5.46154
     2018.87748        -4.94197         5.76222
     2018.88021        -1.47316         5.68654
     2018.88295         3.13365         5.66031
     2018.88569         4.24246         5.55941
     2018.88843         5.16627         5.60078
     2018.89117        -5.27692         5.71782
     2018.89390        -4.41611         5.68251
     2018.89664         2.04970         5.76121
     2018.89938         4.04551         5.69058
     2018.90212         4.06932         5.55639
     2018.90485         4.59813         5.62903
     2018.90759        -6.79706         5.62096
     2018.91033         5.25475         5.75515
     2018.91307         3.59556         5.77332
     2018.91581         5.86737         5.68755
     2018.91854         9.13418         5.61087
     2018.92128         5.47399         5.68654
     2018.92402         1.71180         5.61693
     2018.92676         1.18561         5.62903
     2018.92950         6.06842         5.58161
     2018.93223        -1.67677         5.69966
     2018.93497         1.53904         5.67746
     2018.93771         0.34985         5.69260
     2018.94045         3.79366         5.64316
     2018.94281         3.42881         6.61278
     2018.96884        10.43953        10.52959
     2018.97056        16.45857         5.62197
     2018.97330         3.32138         5.50190
     2018.97604         0.15119         5.51300
     2018.97878        -1.94400         5.49383
     2018.98151        -5.78020         5.59473
     2018.98425         2.37661         5.65325
     2018.98699        -4.56658         5.61592
     2018.98973        -5.28577         5.54428
     2018.99247        -5.17196         5.57051
     2018.99520        -4.83715         5.53419
     2018.99794        -7.58934         5.63105
     2019.00068        -5.23253         5.65224
     2019.00342        -4.10272         5.60078
     2019.00616        -8.16391         5.51098
     2019.00889        -8.90410         5.47466
     2019.01163        -4.07029         5.53015
     2019.01437        -8.79448         5.60179
     2019.01711        -2.49367         5.57859
     2019.01984        -9.06686         5.46356
     2019.02258        -9.94805         5.47365
     2019.02806         2.54057         5.70773
     2019.03080        -5.62062         5.53621
     2019.03353       -14.91181         5.47971
     2019.03627       -10.93800         5.44338
     2019.03901        -9.41819         5.44137
     2019.04175        -4.15038         5.50998
     2019.04449        -2.79457         5.42522
     2019.04722        -7.97476         5.49181
     2019.04996       -10.84395         5.52814
     2019.05270       -11.76914         5.65628
     2019.05544        -6.12333         5.60986
     2019.05817        -3.82452         5.69462
     2019.06091        -6.96771         5.78139
     2019.06365        -3.38890         5.59675
     2019.06639        -2.78009         5.58867
     2019.06913        -2.26628         5.57152
     2019.07186        -2.16147         5.58060
     2019.07460        -4.06466         5.42522
     2019.07734        -2.53785         5.41917
     2019.08008         3.00896         5.50190
     2019.08282        -2.27123         5.55033
     2019.08555         2.81158         5.41614
     2019.08829        -3.04661         5.49686
     2019.09103        -4.79480         5.40000
     2019.09377       -14.50899         5.41513
     2019.09650         8.28682         5.46457
     2019.09924         3.16163         5.39294
     2019.10198        -1.61256         5.41311
     2019.10472        -2.05675         5.40101
     2019.10746        -2.12194         5.42320
     2019.11019        -4.46313         5.45852
     2019.11293         2.23668         5.47466
     2019.11567         0.49948         5.66435
     2019.11841        11.02629         5.47163
     2019.12115        10.74610         5.49484
     2019.12388         6.54691         5.47365
     2019.12662        10.21072         5.46457
     2019.12936        -6.59147         5.67847
     2019.13210         0.79534         5.41211
     2019.13483        -0.10485         5.40908
     2019.13757         0.78696         5.41816
     2019.14031        12.33477         5.42320
     2019.14276         3.09308         6.20314
     2019.14579         0.26039         5.42623
     2019.14852         1.89520         5.46255
     2019.15126        -1.80299         5.43329
     2019.15400        -0.38918         5.47063
     2019.15674         0.36663         5.41513
     2019.15948         3.04744         5.44036
     2019.16221        -3.28775         5.51603
     2019.16495         0.98606         5.43329
     2019.16769        -3.20113         5.40605
     2019.17043         1.08168         5.40403
     2019.17316        -2.40351         5.41311
     2019.17590        -5.44270         5.38789
     2019.17864         0.36411         5.50998
     2019.18138         3.05592         5.43430
     2019.18412         0.45773         5.43531
     2019.18685         6.44054         5.43128
     2019.18959         1.63635         5.48273
     2019.19233         4.79316         5.44944
     2019.19507         8.53497         5.43027
     2019.19780        -2.14722         5.45751
     2019.20054        -5.80441         5.49989
     2019.20328        -9.11860         5.48374
     2019.20602        -8.87179         5.47870
     2019.20876        -3.41498         5.42825
     2019.21149        -4.97817         5.42522
     2019.21423        -2.99536         5.47365
     2019.21697         0.43845         5.41513
     2019.21971        -1.48674         5.63509
     2019.22245        -3.51893         5.40302
     2019.22518        -2.74712         5.45650
     2019.22792         0.65569         5.38587
     2019.23066        -1.26550         5.41614
     2019.23340        -4.38369         5.45953
     2019.23613        -4.62988         5.47870
     2019.23887        -4.68807         5.43329
     2019.24161        -5.55726         5.60078
     2019.24435        -2.28945         5.62802
     2019.24709        -1.79164         5.57152
     2019.24982        -2.48584         5.61592
     2019.25256       -10.65703         5.62601
     2019.25530        -0.34822         5.54529
     2019.25804         0.59759         5.61087
     2019.26078         3.67740         5.53116
     2019.26351         0.28421         5.57354
     2019.26625        -1.39998         5.48677
     2019.26899        -1.21417         5.60986
     2019.27173        -6.15236         5.78542
     2019.27446        -0.71055         5.44137
     2019.27720         3.10626         5.51502
     2019.27994         2.75707         5.43531
     2019.28268        -5.10412         5.43329
     2019.28542         1.80269         5.41009
     2019.28815         3.80150         5.48475
     2019.29089         5.44031         5.53722
     2019.29363        -1.06088         5.43733
     2019.29637        -0.97007         5.49585
     2019.29911         3.04774         5.42220
     2019.30184         0.32955         5.51300
     2019.30338        -7.42674        21.20044
     2019.30732        -0.32083         5.51401
     2019.31006         1.04798         5.63509
     2019.31279        -2.81321         5.62702
     2019.31553         0.68860         5.60885
     2019.31827        -2.93359         5.53419
     2019.32101         3.11322         5.49081
     2019.32375       -12.56697         5.40807
     2019.32648        -9.84616         5.40908
     2019.32922        -4.88635         5.48072
     2019.33196         0.19846         5.69966
     2019.33470        -2.50873         5.60885
     2019.33744        -3.69292         5.46659
     2019.34017        -9.28711         5.39697
     2019.34291        -2.26430         5.47365
     2019.34565        -5.41649         5.70067
     2019.34839        -4.90768         5.58968
     2019.35112        -6.55687         5.54024
     2019.35386        -7.09106         5.44742
     2019.35660        -0.27125         5.42623
     2019.35934         0.38056         5.47668
     2019.36208        -6.31863         5.48576
     2019.36481        -0.11082         5.50695
     2019.36755         1.89099         5.51502
     2019.37029        -0.03620         5.47063
     2019.37303        -5.65839         5.51401
     2019.37577        -1.41558         5.56648
     2019.37850        -5.71977         5.46255
     2019.38124        -4.88196         5.52007
     2019.38398         2.38884         5.47567
     2019.38672        -5.67235         5.41917
     2019.38945        -8.18154         5.49989
     2019.39219        -9.60573         5.46659
     2019.39493        -3.54292         5.49585
     2019.39767        -4.93011         5.59170
     2019.40041         0.30670         5.44137
     2019.40314       -10.00449         5.47567
     2019.40588        -3.12768         5.45953
     2019.40862        -9.20487         5.47971
     2019.41136         2.62494         5.49787
     2019.41410        -1.60025         5.49888
     2019.41683       -11.75944         5.55336
     2019.41957        -5.05263         5.57959
     2019.42231       -10.43082         5.53621
     2019.42505        -7.83401         5.50998
     2019.42778        -3.26220         5.85908
     2019.43052        -3.09239         5.72791
     2019.43326        -6.84258         5.52713
     2019.43600       -12.32877         5.52511
     2019.43874       -14.64596         5.51401
     2019.44147       -11.63415         5.59271
     2019.44421        -4.74134         5.58565
     2019.44695        -6.91853         5.87825
     2019.44969        -1.53272         5.87119
     2019.45243        -0.84491         5.60482
     2019.45516        -3.40010         5.62298
     2019.45790        -0.78629         5.67343
     2019.46064        -3.23148         5.65930
     2019.46338        -5.28867         6.03565
     2019.46611         1.86814         5.84394
     2019.46885        -0.31105         5.79450
     2019.47159        -0.41924         5.62702
     2019.47433        -1.68043         5.59574
     2019.47707        -3.89962         5.57354
     2019.47980        -1.87381         5.68957
     2019.48254        -0.77300         5.61289
     2019.48528       -12.90919         5.65829
     2019.48802        -9.39038         5.59069
     2019.49076        -7.58657         5.46356
     2019.49349        -4.93176         5.52107
     2019.49623        -8.24195         5.45549
     2019.49897        -5.03114         5.63004
     2019.50171        -2.01733         5.54428
     2019.50444        -5.26252         5.69462
     2019.50718       -10.21671         5.52915
     2019.50992       -10.91690         5.54933
     2019.51266        -4.90309         5.52915
     2019.51540        -5.92928         5.60583
     2019.51813         1.29452         5.69764
     2019.52087        -4.03267         5.58060
     2019.52361        -8.43186         5.44742
     2019.52635        -2.68505         5.53015
     2019.52908        -8.48424         5.92163
     2019.53182       -11.20543         5.89439
     2019.53456        -1.66762         5.75011
     2019.53730        -2.06481         5.77836
     2019.54004        -0.77500         5.70471
     2019.54277         6.02381         5.70067
     2019.54551         2.13062         5.79854
     2019.54825        -2.58557         5.61995
     2019.55099        -7.09276         5.52915
     2019.55373        -0.85395         5.73800
     2019.55646        -0.73214         5.65829
     2019.55920       -10.48333         5.74103
     2019.56194        -9.64852         5.50897
     2019.56468        -6.48071         5.57051
     2019.56741        -4.62090         5.55437
     2019.57015        -4.58809         5.60078
     2019.57289        -0.14528         5.72993
     2019.57563        -3.33347         5.63509
     2019.57837        -5.38666         5.65325
     2019.58110         0.05115         5.65728
     2019.58384       -12.78504         5.90347
     2019.58658        -3.63723         5.58767
     2019.58932        -2.09142         5.60280
     2019.59206        -0.53761         5.64316
     2019.59479        -7.26080         5.61289
     2019.59753         1.13701         5.72388
     2019.60027        -0.07018         5.68150
     2019.60301       -12.16237         5.60078
     2019.60574         0.69744         6.00941
     2019.60848         1.41625         5.84596
     2019.61122        -7.07594         5.60179
     2019.61396        -6.99913         5.80157
     2019.61670        -1.18932         5.58767
     2019.61943         0.02749         5.58565
     2019.62217        -1.24970         5.74910
     2019.62491         5.31711         5.56547
     2019.62765         4.84392         5.51805
     2019.63039        -1.18927         5.66334
     2019.63312        -7.08246         5.54226
     2019.63586         0.88735         5.57556
     2019.63860        -0.49384         5.53318
     2019.64134        -2.13503         5.71984
     2019.64407         0.93178         5.62903
     2019.64681         0.73159         5.64013
     2019.64955        -0.38660         5.61390
     2019.65229         2.31420         5.57758
     2019.65503        -0.69999         5.58666
     2019.65776        -2.46318         5.75919
     2019.66050        -3.76537         5.79047
     2019.66324        -3.21056         5.80863
     2019.66598        -0.13975         5.61894
     2019.66872         0.59406         5.58968
     2019.67145        -5.15113         5.54731
     2019.67419        -3.96332         5.65930
     2019.67693        -1.75651         5.79753
     2019.67967        -1.96170         5.88329
     2019.68240        -8.90989         5.60179
     2019.68514        -2.54008         5.78744
     2019.68788         5.34173         5.72489
     2019.69062         3.24554         5.84596
     2019.69336       -10.83565         5.71379
     2019.69609        -6.14484         5.65930
     2019.69883       -12.99803         5.59977
     2019.70157        -1.08422         5.56345
     2019.70431        -0.44241         5.60684
     2019.70705         5.87740         5.72186
     2019.70978         3.34521         5.70471
     2019.71252        -5.29598         5.55235
     2019.71526         5.75683         5.58968
     2019.71800        -3.50836         5.88834
     2019.72073        -2.65955         5.88935
     2019.72347        -3.32174         5.58767
     2019.72621        -2.92493         5.58867
     2019.72895        -3.33012         5.58262
     2019.73169         0.82769         5.56749
     2019.73442         2.69150         5.61894
     2019.73716        -0.64669         5.71076
     2019.73990         5.96512         5.95998
     2019.74264        -7.90607         5.74103
     2019.74538         1.25874         5.59170
     2019.74811        -0.76345         5.62903
     2019.75085        -5.51564         5.65022
     2019.75359        -2.62883         5.85403
     2019.75633        -0.29302         5.81670
     2019.75906        -1.33821         5.61390
     2019.76180        -2.26040         5.57657
     2019.76454        -3.52759         5.64720
     2019.76728        -4.38278         5.74305
     2019.77002         5.19703         5.84899
     2019.77275         1.84684         5.81569
     2019.77549        -1.21335         5.73296
     2019.77823        -0.41954         5.66435
     2019.78097        -3.69573         5.67040
     2019.78371         1.26608         5.77937
     2019.78644         3.27088         5.74607
     2019.78918         0.07269         5.69966
     2019.79192         7.46550         5.72388
     2019.79466         4.12231         5.70067
     2019.79739        -9.11488         5.73699
     2019.80013         7.67893         5.75213
     2019.80287         2.43474         5.70168
     2019.80561         5.53755         5.65728
     2019.80835        -1.49864         5.64316
     2019.81108        -8.36783         5.67847
     2019.81382        -2.30002         5.71480
     2019.81656         4.60179         5.70672
     2019.81930         2.00860         5.65728
     2019.82203         1.77541         5.56143
     2019.82477        -0.47578         5.63408
     2019.82751        -9.20297         5.67746
     2019.83025        -0.38016         5.77029
     2019.83299        -0.16335         5.73397
     2019.83572        -2.21354         5.62298
     2019.83846         2.28527         5.66233
     2019.84120        -3.07092         5.65224
     2019.84394         0.97889         5.91054
     2019.84668        -4.73130         5.69462
     2019.84941        -0.25849         5.66334
     2019.85215        -2.24068         5.62298
     2019.85489         2.23413         5.66233
     2019.85763        -3.78306         5.69764
     2019.86036        -1.20925         5.71379
     2019.86310         1.02256         5.67646
     2019.86584         6.81537         5.74305
     2019.86858         2.71418         5.64820
     2019.87132         0.55499         5.69764
     2019.87405         2.19580         5.70672
     2019.87679         3.44861         5.96199
     2019.87953         6.54842         5.61491
     2019.88227         5.81923         5.64518
     2019.88501        10.68104         5.69764
     2019.88774         3.65885         5.87522
     2019.89048        10.89266         5.65628
     2019.89322         8.55647         5.66536
     2019.89596         6.61328         5.73901
     2019.89869         8.36009         5.63307
     2019.90143         8.38990         5.72993
     2019.90417         3.44871         5.75515
     2019.90691         4.22052         5.65628
     2019.90965         0.15633         5.69058
     2019.91238         3.10914         5.59574
     2019.91512         1.75695         5.73498
     2019.91786         7.42776         5.65628
     2019.92060        -4.30444         5.61087
     2019.92334       -17.50663         5.72388
     2019.92607        -2.54582         5.61794
     2019.92881        -7.42801         5.60381
     2019.93155         4.15880         5.59977
     2019.93429         4.66361         5.63105
     2019.93702         3.14842         5.65728
     2019.93976         4.96223         5.63307
     2019.94250        -0.80996         5.69563
     2019.94524        -9.01115         5.64720
     2019.94798        -1.87234         5.65325
     2019.95071        -1.66953         5.90751
     2019.95345         9.23328         5.70168
     2019.95619         5.24209         5.69159
     2019.95893         1.62990         5.67746
     2019.96167         7.55371         5.77130
     2019.96440         7.29652         5.80459
     2019.96714         0.21833         5.80560
     2019.96988         0.79014         5.64013
     2019.97262         4.52695         5.72892
     2019.97535        10.41576         5.71580
     2019.97809         4.01457         5.78139
     2019.98083         2.11338         5.61894
     2019.98357         1.16319         5.69663
     2019.98631         5.66100         5.59675
     2019.98904         6.00581         5.66737
     2019.99178         2.27462         5.65426
     2019.99452        -3.75457         5.72690
     2019.99726        -0.93276         5.64417
     2020.00000         2.37705         5.66435
     2020.00273        -7.85314         5.65628
     2020.00547        -5.51433         5.72287
     2020.00821       -14.42152         5.74910
     2020.01095       -11.42071         5.89036
     2020.01368       -18.53890         5.81468
     2020.01642        -6.94809         5.79249
     2020.01916        -1.78428         5.64820
     2020.02190        -3.47347         5.66536
     2020.02464        -9.93666         5.72186
     2020.02737        -6.26285         5.59271
     2020.03011        -2.70004         5.54630
     2020.03285        -5.91223         5.54024
     2020.03559        -1.56542         5.44540
     2020.03833        -6.45561         5.46962
     2020.04106        -9.25880         5.70370
     2020.04380        -5.43999         5.63408
     2020.04654        -1.49218         5.46154
     2020.04928        -4.72437         5.42421
     2020.05201        -2.81356         5.46962
     2020.05475        -2.96776         5.50392
     2020.05749        -1.37495         5.42825
     2020.06023        -2.73314         5.44944
     2020.06297        -3.95633         5.43733
     2020.06570        -3.86852         5.41816
     2020.06844        -1.61171         5.40302
     2020.07118        -3.54090         5.44944
     2020.07392         0.91691         5.48677
     2020.07666       -11.29528         5.42623
     2020.07939       -15.92747         5.40101
     2020.08213       -10.51366         5.38587
     2020.08487       -15.00485         5.50089
     2020.08761         2.46896         5.46457
     2020.09034         0.79777         5.42018
     2020.09308         2.66458         5.43228
     2020.09582         1.38239         5.47264
     2020.09856        -5.61280         5.42018
     2020.10130        -6.75699         5.46558
     2020.10403         4.09182         5.43531
     2020.10677        -2.22437         5.43329
     2020.10951        -2.64756         5.46558
     2020.11225        -1.00975         5.41513
     2020.11498         2.74806         5.37074
     2020.11772        -3.22613         5.52713
     2020.12046        -4.21632         5.64316
     2020.12320        -7.20651         5.47870
     2020.12594        -5.64070         5.43329
     2020.12867        -4.56389         5.35359
     2020.13141        -3.80208         5.39495
     2020.13415        -4.85527         5.47163
     2020.13689        -8.53346         5.64720
     2020.13963        -5.29465         5.57152
     2020.14236        -4.43084         5.37982
     2020.14510         0.94297         5.39394
     2020.14784         2.01578         5.51199
     2020.15058        -9.65241         5.50998
     2020.15331       -12.45060         5.47668
     2020.15605        -9.81979         5.44237
     2020.15879        -7.54898         5.40807
     2020.16153         0.91783         5.49484
     2020.16427        -2.44836         5.44137
     2020.16700         2.82345         5.43531
     2020.16974        -4.48374         5.43228
     2020.17248        -1.37493         5.43935
     2020.17522        -2.52912         5.39193
     2020.17796        -1.27031         5.50493
     2020.18069         1.09450         5.55336
     2020.18343         2.29131         5.44036
     2020.18617         1.95212         5.38789
     2020.18891        -3.59108         5.51401
     2020.19164         2.20973         5.53722
     2020.19438         0.38354         5.58363
     2020.19712        -3.72165         5.56244
     2020.19986       -15.61584         5.78744
     2020.20260        -9.68303         5.58867
     2020.20533        -0.86422         5.56749
     2020.20807        -6.04041         5.62601
     2020.21081        -9.15560         5.55336
     2020.21355         3.18621         5.99428
     2020.21629        -2.95698         5.79249
     2020.21902        -9.31917         5.71782
     2020.22176        -1.85636         5.55740
     2020.22450         3.35845         5.59069
     2020.22724        -1.31574         5.56143
     2020.22997         6.98607         5.55639
     2020.23271         3.51888         5.50695
     2020.23545         2.51169         5.51603
     2020.23819         2.49950         5.53015
     2020.24093        -0.87169         5.51098
     2020.24366        -4.81788         5.52713
     2020.24640        -5.73707         5.56547
     2020.24914        -3.75026         5.48677
     2020.25188        -3.38645         5.58363
     2020.25462        -3.65664         5.56446
     2020.25735         2.59517         5.52511
     2020.26009         0.27898         5.56749
     2020.26283        -5.24321         5.72489
     2020.26557        -7.23140         5.53015
     2020.26830        -5.42559         5.54125
     2020.27104         0.85222         5.53520
     2020.27378        -4.55997         5.51603
     2020.27652        -5.62516         5.58363
     2020.27926        -3.97435         5.63408
     2020.28199        -1.71654         5.57253
     2020.28473        -7.78673         5.51401
     2020.28747        -0.95992         5.53419
     2020.29021        -8.49211         5.58161
     2020.29295        -1.69630         5.56547
     2020.29568         1.08451         5.61087
     2020.29842         1.78732         5.54327
     2020.30116         3.18213         5.51199
     2020.30390        -0.64006         5.51906
     2020.30663         0.33575         5.59776
     2020.30937        -4.54444         5.69966
     2020.31211       -10.13663         5.66637
     2020.31485        -3.98682         5.52007
     2020.31759        -4.95101         5.53217
     2020.32032        -9.01720         5.48778
     2020.32306        -0.60340         5.42522
     2020.32580        -6.69659         5.42018
     2020.32854        -6.12178         5.61592
     2020.33128        -5.67997         5.47971
     2020.33401        -5.74716         5.44338
     2020.33675         3.90665         5.51199
     2020.33949         0.87246         5.47668
     2020.34223       -10.18573         5.51401
     2020.34496        -8.47492         5.54024
     2020.34770       -11.47711         5.46154
     2020.35044        -5.73530         5.49686
     2020.35318        -8.27949         5.54327
     2020.35592       -10.26468         5.51906
     2020.35865        -7.16687         5.55336
     2020.36139        -1.84906         5.51502
     2020.36413         0.03175         5.49484
     2020.36687         1.31456         5.50291
     2020.36961        -0.46963         5.54024
     2020.37234        -6.21582         5.46255
     2020.37508        -8.72601         5.66031
     2020.37782        -2.94520         5.47466
     2020.38056        -3.32239         5.50695
     2020.38329        -1.97258         5.52410
     2020.38603        -7.24777         5.48172
     2020.38877       -11.78796         5.69462
     2020.39151       -20.85515         5.52915
     2020.39425        -4.59134         5.50089
     2020.39698        -6.47453         5.51502
     2020.39972        -1.56872         5.58867
     2020.40246        -0.83491         5.47163
     2020.40520       -11.94210         5.71379
     2020.40794        -5.76729         5.50796
     2020.41067        -7.07848         5.56850
     2020.41341        -5.79067         5.68150
     2020.41615        -4.65786         5.55033
     2020.41889        -7.32405         5.54832
     2020.42162       -10.75724         5.67847
     2020.42436         3.11557         5.82780
     2020.42710        -1.17462         6.00437
     2020.42984        -3.15481         5.69563
     2020.43258        -4.03300         5.70975
     2020.43531        -5.57419         5.57354
     2020.43805        -5.12238         5.56244
     2020.44079       -10.93257         5.56950
     2020.44353        -6.82076         5.69663
     2020.44626        -9.76695         5.47769
     2020.44900         3.00186         5.69764
     2020.45174         1.86167         5.48273
     2020.45448        -4.84752         5.44439
     2020.45722        -2.75972         5.53217
     2020.45995        -5.54891         5.67141
     2020.46269       -10.84810         5.46154
     2020.46543        -7.89329         5.51401
     2020.46817        -3.47248         5.49484
     2020.47091        -7.03667         5.55437
     2020.47364        -7.04486         5.52713
     2020.47638        -6.86305         5.47264
     2020.47912        -5.21124         5.61491
     2020.48186        -0.74743         5.66838
     2020.48459       -14.57862         5.64013
     2020.48733        -4.05081         5.74002
     2020.49007        -0.27000         5.85403
     2020.49281        -6.25519         5.70067
     2020.49555        -8.32738         5.60684
     2020.49828        -2.60057         5.60482
     2020.50102       -11.93476         5.47668
     2020.50376        -9.06295         5.68251
     2020.50650        -6.17314         5.46356
     2020.50924        -3.18033         5.48879
     2020.51197        -7.21052         5.57758
     2020.51471        -2.32871         5.71782
     2020.51745        -6.50490         5.57253
     2020.52019         1.18291         5.57657
     2020.52292         1.90572         5.63105
     2020.52566       -12.75647         5.59170
     2020.52840        -6.94466         5.62601
     2020.53114        -1.47585         5.73094
     2020.53388        -3.50904         5.63610
     2020.53661        -3.94523         5.58565
     2020.53935        -4.49442         5.55235
     2020.54209        -1.59461         5.64720
     2020.54483       -10.05880         5.72892
     2020.54757        -1.37899         5.60381
     2020.55030        -3.35218         5.62702
     2020.55304        -2.83337         5.59069
     2020.55578        -3.24756         5.71379
     2020.55852        -7.20275         5.72085
     2020.56125        -3.36594         5.67746
     2020.56399         2.58387         5.75919
     2020.56673        -6.44932         5.62500
     2020.56947         0.25849         5.64114
     2020.57221        -8.00670         5.83184
     2020.57494        -0.62289         5.67343
     2020.57768        -6.02408         5.69563
     2020.58042        -5.56027         5.65426
     2020.58316        -9.15046         5.67545
     2020.58590        -0.36365         5.71076
     2020.58863        -9.58184         5.61188
     2020.59137        -3.10704         5.73094
     2020.59411         3.61077         5.59271
     2020.59685         6.24958         5.76928
     2020.59958        -1.11761         5.77433
     2020.60232        -2.46380         5.72489
     2020.60506        -2.12899         5.67847
     2020.60780         4.98982         5.55538
     2020.61054         4.93363         5.67343
     2020.61327         1.67044         5.73397
     2020.61601        -1.64275         5.63811
     2020.61875        -5.93294         5.67847
     2020.62149        -1.33213         5.61188
     2020.62423         4.85868         5.67141
     2020.62696        -6.54451         5.69764
     2020.62970        -4.94970         5.70269
     2020.63244        -2.30889         5.88834
     2020.63518         0.79592         5.82376
     2020.63791         0.62573         5.85101
     2020.64065         3.00154         5.68554
     2020.64339        -2.13765         5.64619
     2020.64613         2.48616         5.74507
     2020.64887         1.62097         5.94080
     2020.65160         1.18978         5.79249
     2020.65331        -5.29221        13.41827
     2020.66352        -9.15228        13.03688
     2020.66529         1.35383         5.73094
     2020.66803         0.90764         5.67444
     2020.67077         3.98545         5.61087
     2020.67351         1.21726         5.61390
     2020.67624         1.44407         5.65123
     2020.67898        -9.24912         5.71681
     2020.68172         1.17869         5.68957
     2020.68446         2.07850         5.72791
     2020.68720         4.62031         5.71580
     2020.68993         2.03112         5.65224
     2020.69267        -3.82707         5.79249
     2020.69541        -2.06026         5.98722
     2020.69815         3.60555         5.77029
     2020.70089        -0.28064         5.62197
     2020.70362         0.64017         5.65123
     2020.70636        -2.72802         5.94989
     2020.70910        -2.94021         6.03363
     2020.71184         5.79660         5.79350
     2020.71457         1.57941         5.79955
     2020.71834        -0.86398        12.15605
     2020.72005         2.53503         5.94383
     2020.72279        -0.76716         5.67847
     2020.72553         6.27964         5.83083
     2020.72826         1.29545         5.88430
     2020.73100         3.23026         5.74002
     2020.73374         7.39607         5.80459
     2020.73648         8.51988         5.70672
     2020.73921         9.43669         5.74103
     2020.74195         2.71950         5.64619
     2020.74469         2.79031         5.68453
     2020.74743         0.31812         5.68150
     2020.75017         0.33193         5.71681
     2020.75290        -2.13926         5.78744
     2020.75564        -3.03345         5.54933
     2020.75838         4.08736         5.63408
     2020.76112         3.90717         5.60078
     2020.76386         4.31998         5.64518
     2020.76659         6.19479         5.60280
     2020.76933         7.08360         5.75011
     2020.77207        11.55441         5.62500
     2020.77481        10.23822         5.58968
     2020.77754         4.42903         5.68654
     2020.78028         7.70784         5.72993
     2020.78302         7.30465         5.59170
     2020.78576         9.84946         5.52915
     2020.78850         3.29127         5.48879
     2020.79123         3.82408         5.52007
     2020.79397        -1.64711         5.58565
     2020.79671         0.32070         5.57253
     2020.79945         7.32151         5.49989
     2020.80219         9.42532         5.66838
     2020.80492         7.72913         5.52208
     2020.80766         4.85194         5.63004
     2020.81040         1.15475         5.57859
     2020.81314        12.32556         5.50493
     2020.81587        -0.36963         5.48374
     2020.81861         9.13018         5.52814
     2020.82135         6.67899         5.51906
     2020.82409         4.68280         5.58867
     2020.82683         5.63861         5.54933
     2020.82956         4.84442         5.54226
     2020.83230        10.15823         5.63206
     2020.83504         3.62304         5.62298
     2020.83778         2.68085         5.44237
     2020.84052         2.12666         5.56648
     2020.84325         1.14347         5.68453
     2020.84599         2.84228         5.61289
     2020.84873         9.37609         5.56749
     2020.85147         9.50190         5.47567
     2020.85420         8.52671         5.64417
     2020.85694        11.22152         5.59473
     2020.85968        11.70832         5.56950
     2020.86242        15.06213         5.62197
     2020.86516        11.81194         5.76424
     2020.86789        15.29775         5.81468
     2020.87063         6.17956         5.58363
     2020.87337        12.93637         5.60785
     2020.87611        19.96818         5.71580
     2020.87885         6.85699         5.73094
     2020.88158         4.15480         5.82074
     2020.88432        15.39261         5.68957
     2020.88706        -0.72658         5.96805
     2020.88980         6.07523         5.69764
     2020.90349         2.26328         5.72186
     2020.90622         5.52209         5.68352
     2020.90896         7.50390         5.78845
     2020.91170         8.43171         5.93879
     2020.91444        12.03252         5.83486
     2020.91718         2.07333         5.75616
     2020.91991        -4.88486         5.69563
     2020.92265         2.73995         5.73800
     2020.92539        -1.56124         5.70572
     2020.92813         1.29357         5.68150
     2020.93086        -0.18162         5.75616
     2020.93360        -3.36881         5.62601
     2020.93634        -0.58100         5.63610
     2020.93908         3.89881         5.71278
     2020.94182         1.45562         5.72892
     2020.94455         0.06743         5.67646
     2020.94729        -2.01576         5.69462
     2020.95003        -7.80395         5.77937
     2020.95277       -13.12914         5.78038
     2020.95551        -8.08733         5.75112
     2020.95824        -2.77152         5.71278
     2020.96646        -5.77409         5.73498
     2021.27583         3.06341         5.56648
     2021.27857        -0.30878         5.68453
     2021.28131        -3.81697         5.66737
     2021.28405         5.35584         5.69361
     2021.28679        -4.51535         5.68856
     2021.28952         0.56546         5.73598
     2021.29226         3.78727         5.68251
     2021.29500         2.48508         5.64417
     2021.29774         7.55289         5.86110
     2021.30047        -0.13130         5.66031
     2021.30321         4.83151         5.69764
     2021.30595        10.33332         5.87220
     2021.30869        16.82413         5.86412
     2021.31143         3.27794         5.55941
     2021.31416         8.33775         5.63105
     2021.31690         7.41456         5.67141
     2021.31964         4.37737         5.76928
     2021.32238         7.94218         5.76121
     2021.32512        -4.58001         5.58968
     2021.32785        -4.10920         5.56244
     2021.33059         4.88261         5.61894
     2021.33333         7.29542         5.73800
     2021.33607         4.56323         5.63408
     2021.33880         3.59004         5.62399
     2021.34154        -4.21815         5.64921
     2021.34428        -5.67234         5.75919
     2021.34702         2.41547         5.70269
     2021.34976         3.21028         5.70471
     2021.35249         0.31209         5.63206
     2021.35523        -2.23510         5.62500
     2021.35797       -10.39529         5.64316
     2021.36071        -7.41148         5.60885
     2021.36344        -3.53567         5.72186
     2021.36618        -5.75286         5.72287
     2021.36892        -2.52005         5.70975
     2021.37166        -0.78224         5.70672
     2021.37440         1.88957         5.65628
     2021.37713        -2.20762         5.84596
     2021.37987         8.84319         5.90246
     2021.38261         6.00300         6.15672
     2021.38535        -2.41619         5.87320
     2021.38809        -2.86438         5.85302
     2021.39082        -1.17557         5.75616
     2021.39356         2.20724         5.75011
     2021.40725        -0.41672         5.76625
     2021.40999         3.63209         5.72388
     2021.41273         1.56790         5.71580
     2021.41546        -1.96729         5.73598
     2021.41820        -8.28648         5.70168
     2021.42094         3.62933         5.72186
     2021.42368         3.84814         5.94484
     2021.42642         7.74395         5.79854
     2021.42915         8.47776         5.79350
     2021.43189         4.52557         5.71782
     2021.43463         0.33538         5.77130
     2021.43737        -3.17581         5.82881
     2021.44010         2.08300         6.01547
     2021.44284        -3.67719         5.87119
     2021.44558         0.82862         5.81771
     2021.44832        -9.36757         5.90347
     2021.45106        -7.99176         6.00437
     2021.45379         3.75205         5.93475
     2021.45653         2.91486         5.93374
     2021.45927         4.15367         5.73195
     2021.46201         1.27348         5.71681
     2021.46475        -9.57971         5.85000
     2021.46748        -3.65590         5.79249
     2021.47022        -0.65309         5.81771
     2021.47296         5.27872         5.96300
     2021.47570         3.93953         5.92769
     2021.47843        -1.42366         5.78643
     2021.48117       -12.26585         5.92264
     2021.48391        -4.57804         5.76020
     2021.48665        -4.60323         5.73598
     2021.48939        -2.29842         5.81065
     2021.49212        -3.59461         5.73699
     2021.49486         4.64620         5.85908
     2021.49760         4.89001         6.15168
     2021.50034        -0.82018         5.93072
     2021.50308         0.52863         5.86715
     2021.50855        -4.76575         5.94989
     2021.51129        -2.51194         5.89439
     2021.51403         6.23787         5.79854
     2021.51676         1.88968         5.85403
     2021.51950         2.58049         6.04776
     2021.52224         1.95930         5.86715
     2021.53319         3.59253         5.77937
     2021.53593        -7.16566         6.00639
     2021.53867        10.79015         6.11435
     2021.54141        -3.57504         5.85605
     2021.54414        -4.81423         5.75818
     2021.54688        -3.72342         5.69260
     2021.54962         1.05639         5.71984
     2021.55236        -4.42680         5.77029
     2021.55509        -2.27699         6.14361
     2021.55783        -5.17618         5.85605
     2021.56057         4.13563         5.67343
     2021.56331         3.72844         5.67746
     2021.56605        -1.52075         5.70168
     2021.56878        -3.91994         5.87421
     2021.57152        -1.59713         5.88027
     2021.57426        -8.89832         5.69865
     2021.57700         1.18849         5.89641
     2021.57974        -2.31170         5.81872
     2021.58247        -6.65789         5.91255
     2021.58521        -8.81908         5.78845
     2021.58795       -13.10227         5.88329
     2021.59069        -4.43146         5.71278
     2021.59342        -1.49765         5.95695
     2021.59616         2.24316         6.11233
     2021.59890        -3.20603         5.71782
     2021.60164         1.55478         5.63206
     2021.60438         3.89259         5.98520
     2021.60711         3.87740         5.73699
     2021.60985         8.12521         5.78643
     2021.61259         1.88302         5.68453
     2021.61533        -1.65217         5.72993
     2021.61807         2.49364         5.77533
     2021.62080         0.56845         5.80661
     2021.62354         3.76426         5.79854
     2021.62628         4.81707         5.80157
     2021.62902        -5.75412         6.08307
     2021.63175        -1.62431         5.78643
     2021.63449        -2.65450         5.64619
     2021.63723         1.76031         6.02959
     2021.63997         4.51712         6.02051
     2021.64271         1.08293         5.96906
     2021.64544         1.60474         5.75415
     2021.64818         2.67055         5.73800
     2021.65092        -2.31964         5.84798
     2021.65366        -0.67583         5.89137
     2021.65639         1.04198         5.75415
     2021.65913        -4.12521         5.74507
     2021.66187         2.87560         5.74103
     2021.66461         7.19140         5.73901
     2021.66735        -0.22879         5.79249
     2021.67008        -1.77598         5.86715
     2021.67282        -1.10817         6.14058
     2021.67556         6.94764         6.06289
     2021.67830         8.70145         5.83486
     2021.68104         3.40426         5.73397
     2021.68377         1.55607         5.68957
     2021.68651         1.30488         5.70572
     2021.68925         0.72569         5.71984
     2021.69199         9.98750         5.83688
     2021.69472         4.57531         5.90146
     2021.69746        -0.96388         5.82175
     2021.70020         5.09493         5.77029
     2021.70294         5.35874         5.81468
     2021.70568         6.54655         5.80863
     2021.70841         4.59136         5.76524
     2021.71115         1.86917         5.71177
     2021.71389        10.34298         5.82679
     2021.71663        12.75679         5.80359
     2021.71937         3.43960         5.75818
     2021.72210        -6.86859         5.70672
     2021.72484        -6.36978         5.72892
     2021.72758         0.80203         5.83688
     2021.73032        -3.11816         5.95998
     2021.73305         6.89065         5.69361
     2021.73579        11.58946         5.66435
     2021.73853         4.88527         5.63610
     2021.74127         3.39508         5.74406
     2021.74401         8.70389         5.72388
     2021.74674         4.23070         5.63408
     2021.74948        -2.06549         5.66031
     2021.75222         3.63232         5.66939
     2021.75496         2.07113         5.64114
     2021.75770         4.98094         5.62096
     2021.76043         7.99675         5.63408
     2021.76317         2.20656         5.75616
     2021.76591         0.79037         5.76524
     2021.76865        -3.84282         5.85706
     2021.77138        -2.53401         5.66838
     2021.77412         6.64480         5.64013
     2021.77686         3.35061         5.72186
     2021.77960         6.03342         5.78441
     2021.78234         5.95723         5.61995
     2021.78507         5.54204         5.61289
     2021.78781        10.45985         5.61390
     2021.79055         3.82166         5.60179
     2021.79329         7.05147         5.67242
     2021.79603         7.22528         5.67343
     2021.79876        -0.84092         5.65728
     2021.80150         1.32689         5.75415
     2021.80424         7.53370         5.79551
     2021.80698         4.78051         5.66737
     2021.80971         7.79832         5.76323
     2021.81245        10.40513         5.88228
     2021.81519         4.05194         5.69462
     2021.81793         7.42175         5.76222
     2021.82067         5.20656         5.74910
     2021.82340         6.14437         5.79955
     2021.82614        -0.48682         5.76323
     2021.82888         7.88999         5.71580
     2021.83162         3.93480         5.80258
     2021.83436         2.62261         5.80964
     2021.83709         3.45242         5.90347
     2021.83983        -5.83977         5.89237
     2021.84257        -2.88796         5.74809
     2021.84531         4.39785         5.94181
     2021.84804         1.52066         5.88733
     2021.85078         5.55947         5.77130
     2021.85352         8.08728         5.78845
     2021.85626         2.57709         5.77433
     2021.85900         8.32890         5.63105
     2021.86173         0.79271         5.71681
     2021.86447         1.78352         5.91154
     2021.86721         3.90433         6.05381
     2021.86995         0.94814         5.96199
     2021.87269         6.73595         5.84798
     2021.87542        12.27976         5.99731
     2021.87816         0.47357         5.75515
     2021.88090         2.87738         5.68049
     2021.88364         1.35219         5.82376
     2021.88637         0.01000         5.69764
     2021.88911         0.30581         5.70471
     2021.89185        -2.12138         5.81670
     2021.89459         4.43943         5.67847
     2021.90006        -0.50995         5.78341
     2021.90554         1.64167         5.68554
     2021.90828         2.91548         5.76928
     2021.91102         8.50329         5.78946
     2021.91375         1.96310         5.78744
     2021.91649         3.32991         5.68957
     2021.91923         1.47172         5.82578
     2021.92197        -3.81347         5.92264
     2021.92470        -8.53766         5.75415
     2021.92744         6.55515         5.86513
     2021.93018        -1.95204         5.77735
     2021.93292         5.67876         5.88531
     2021.93566        12.11357         5.93374
     2021.93839        12.80538         5.85706
     2021.94113        17.14619         6.01547
     2021.94387        14.95000         5.80863
     2021.94661         7.53181         5.70168
     2021.94935         4.41462         5.76726
     2021.95208         9.57343         5.73397
     2021.95482        10.20124         5.93879
     2021.95756        11.95505         5.92365
     2021.96030         8.99786         5.89540
     2021.96303        11.73767         5.87724
     2021.96577         7.43948         5.83587
     2021.96851        -0.75671         5.97814
     2021.97125         8.91910         5.94484
     2021.97399         8.97991         5.92668
     2021.97672         6.71172         5.85706
     2021.97946        15.19453         5.80762
     2021.98220        13.72934         5.82477
     2021.98494        20.47215         5.91760
     2021.98767        12.42396         5.90146
     2021.99041        18.26477         5.77836
     2021.99315        18.47858         5.67948
     2021.99589        14.76339         5.73498
     2021.99863         8.45520         5.74002
     2022.00136         6.17401         5.67847
     2022.00325       -10.83268         9.39551
     2022.02886        -0.86669         6.07601
     2022.03148        -4.33608         5.76827
     2022.03422        -4.02227         5.74910
     2022.03696         1.92954         5.72892
     2022.03969        -5.11865         5.72489
     2022.04243         4.28316         5.71883
     2022.04517         3.17497         5.72690
     2022.04791         1.18878         5.75919
     2022.05065        -2.33241         5.80056
     2022.05338         4.33340         5.75717
     2022.05612       -11.52079         5.75515
     2022.06160       -13.74317         5.71076
     2022.06433        -7.48836         5.72892
     2022.06707       -10.25556         5.67847
     2022.06981        -1.48975         5.74406
     2022.07255       -13.00994         5.63509
     2022.07529       -12.10013         5.60078
     2022.07802       -13.22232         5.64619
     2022.08076        -2.36051         5.59977
     2022.08350         2.37130         5.61894
     2022.08624         4.59011         5.60986
     2022.08898        -1.60508         5.63811
     2022.09171        -6.28527         5.58262
     2022.09445       -10.30046         5.55336
     2022.09719        -6.46665         5.57051
     2022.09993        -5.61984         5.71580
     2022.10266        -2.50403         5.72388
     2022.10540        -3.59422         5.68957
     2022.10814        -2.94941         5.72186
     2022.11088        -7.22660         5.60381
     2022.11362        -3.70679         5.53318
     2022.11635         5.95102         5.59473
     2022.11909        -0.11817         5.60785
     2022.12183         1.08264         5.63105
     2022.12457         7.31145         5.69764
     2022.12731        -2.16574         5.58060
     2022.13004         0.02907         5.59069
     2022.13278         5.48488         5.57657
     2022.13552        -7.52431         5.59776
     2022.13826         1.11150         5.59574
     2022.14099        -3.56969         5.57051
     2022.14373        -3.58188         5.59069
     2022.14647         0.59093         5.53015
     2022.14921         0.85274         5.83285
     2022.15195        -6.19445         5.91154
     2022.15468        -0.44264         5.56749
     2022.15742         4.62417         5.69764
     2022.16016         1.25798         5.68049
     2022.16290        -5.85221         5.67444
     2022.16564        -4.98640         5.53924
     2022.16837        -0.09459         5.52107
     2022.17111        -0.98378         5.65123
     2022.17385         1.64903         5.65728
     2022.17659         4.92884         5.63811
     2022.17932        -0.54235         5.58161
     2022.18206        -0.35754         5.60179
     2022.18480        -1.71473         5.66435
     2022.18754         2.43108         5.79551
     2022.19028        -1.45011         5.84495
     2022.19301         1.17670         5.68049
     2022.19575         5.78551         5.63509
     2022.19849         3.03532         5.68352
     2022.20123         3.68712         5.70672
     2022.20397         6.93593         5.72287
     2022.20670        -1.97126         5.77533
     2022.20944         1.70055         5.78038
     2022.21218         2.98536         5.71782
     2022.21492         0.78117         5.75011
     2022.21765         3.02998         5.73195
     2022.22039        -2.45321         5.60684
     2022.22313        -2.10240         5.65123
     2022.22587        -5.99059         5.77231
     2022.22861         0.38122         5.81973
     2022.23134         4.15503         5.73397
     2022.23408         3.24684         5.69764
     2022.23682         4.45065         5.82578
     2022.23956         3.82446         5.58867
     2022.24230         4.60227         5.73397
     2022.24503         6.49008         5.76121
     2022.24777        11.68089         5.71480
     2022.25051         6.82470         5.70067
     2022.25325         2.84251         5.56850
     2022.25598         8.31032         5.67040
     2022.25872        15.47013         5.66334
     2022.26146        -6.04806         5.70672
     2022.26420        -3.15125         5.67646
     2022.26694         0.65156         5.80359
     2022.26967         9.53737         5.69361
     2022.27241         4.94518         5.65123
     2022.27515         7.53899         5.80359
     2022.27789         5.21680         5.72085
     2022.28062        -1.37739         5.72589
     2022.28336         0.24842         5.58666
     2022.28610        -0.79777         5.76928
     2022.28884         3.71304         5.81468
     2022.29158        -0.04215         5.61087
     2022.29431        -2.22834         5.66939
     2022.29705         6.16647         5.66838
     2022.29979         8.56728         5.61995
     2022.30253         2.78609         5.78845
     2022.30527        -0.30210         5.78240
     2022.30800         0.20971         5.65527
     2022.31074         2.44452         5.55941
     2022.31348        -0.71167         5.58262
     2022.31622        -2.80786         5.66536
     2022.31895       -12.79905         5.88027
     2022.32169         1.42476         5.93475
     2022.32443        -3.73243         5.62702
     2022.32717        -3.62762         5.62601
     2022.32991         0.98719         5.64013
     2022.33264        -2.50300         5.80560
     2022.33538       -15.82220         6.09114
     2022.33812        -7.35939         5.99428
     2022.34086         1.22242         5.62500
     2022.34360        -1.98977         5.75717
     2022.34633         6.94804         5.73498
     2022.34907         5.02885         5.70269
     2022.35181         6.27666         5.70975
     2022.35455         2.78747         5.64417
     2022.35728         2.11428         5.59776
     2022.36002         2.74509         5.63811
     2022.36276         4.04490         5.73094
     2022.36550         5.10071         5.68755
     2022.36824        -0.67948         5.65325
     2022.37097        -0.95967         5.65628
     2022.37371        -1.40286         5.64921
     2022.37645        -4.97905         5.60684
     2022.37919         6.47476         5.87926
     2022.38193         0.86357         5.79955
     2022.38466        -3.76962         5.61390
     2022.38740        -9.59281         5.62399
     2022.39014        -9.23900         5.65224
     2022.39288         3.28781         5.64013
     2022.39561        -2.40138         5.63105
     2022.39835        -7.64357         5.69058
     2022.40109        -2.90376         5.80258
     2022.40383         3.27105         5.69462
     2022.40657         2.46286         5.59876
     2022.40930        -5.65233         5.73699
     2022.41204       -11.45452         5.71480
     2022.41478       -11.37971         5.58060
     2022.41752        -4.61690         5.76524
     2022.42026         3.42491         5.78139
     2022.42299         0.74572         5.61794
     2022.42573        -4.82547         5.64114
     2022.42847         0.50634         5.65628
     2022.43121        -9.52485         5.76323
     2022.43394         4.31796         5.69966
     2022.43668        -6.40523         5.58161
     2022.43942        -0.95242         5.66939
     2022.44216        -1.42361         5.68554
     2022.44490         7.62420         5.89944
     2022.44763         8.25301         5.77836
     2022.45037        -0.61018         5.69260
     2022.45311        -4.32537         5.56749
     2022.45585         0.22744         5.52612
     2022.45859        -5.00275         5.77533
     2022.46132        -2.42394         5.59675
     2022.46406         2.67087         5.61491
     2022.46680        -3.43132         5.63509
     2022.46954         3.02548         5.60078
     2022.47227       -13.87471         5.56547
     2022.47501        -0.30790         5.66737
     2022.47775        -2.92109         5.82276
     2022.48049       -11.15428         5.65123
     2022.48323        -4.36347         5.55639
     2022.48596         3.39534         5.60179
     2022.48870        -3.74185         5.65728
     2022.49144         7.31296         5.69764
     2022.49418       -10.02623         5.84697
     2022.49692        -7.25542         5.62802
     2022.49965        -2.67661         5.61894
     2022.50239       -12.16380         5.65123
     2022.50513         1.30801         5.87724
     2022.50787         4.25382         5.86311
     2022.51060        -6.98337         5.79854
     2022.51334        -3.44156         5.58968
     2022.51608       -10.38675         5.63206
     2022.51882        -5.95094         5.61894
     2022.52156        -2.17213         5.69865
     2022.52429         1.63468         5.56143
     2022.52703         7.34149         5.58060
     2022.52977         7.78230         5.68856
     2022.53251         8.18611         5.88430
     2022.53525        -3.55508         5.73699
     2022.53798        -1.32127         5.70471
     2022.54072         1.09554         5.65022
     2022.54346         3.24535         5.70672
     2022.54620         1.15416         5.64921
     2022.54893         0.66797         5.62298
     2022.55167        -0.45122         5.69462
     2022.55441         9.02059         5.62802
     2022.55715         6.85340         5.79249
     2022.55989         4.97321         5.57051
     2022.56262        -0.64198         5.71379
     2022.56536        -3.73517         5.62399
     2022.56810        -5.75936         5.55235
     2022.57084         0.80145         5.64518
     2022.57357         2.62126         5.72589
     2022.57631         2.70107         5.70874
     2022.57905         1.86888         5.67040
     2022.58179         4.87769         5.52814
     2022.58453        12.46550         5.87724
     2022.58726         5.17831         5.79450
     2022.59000         0.17612         5.82276
     2022.59274        -3.99007         5.60078
     2022.59548        -0.89326         5.62096
     2022.59822       -17.31345         5.77029
     2022.60095        -6.10264         5.57758
     2022.60369         3.28016         5.52814
     2022.60643         2.48897         5.59675
     2022.60917        -2.02222         5.77836
     2022.61190         5.69359         5.72589
     2022.61464         8.22140         5.84193
     2022.61738        -4.17779         5.75213
     2022.62012        -3.64198         5.58968
     2022.62286        -0.76217         5.58565
     2022.62559         1.51664         5.52107
     2022.62833        -3.33155         5.56850
     2022.63107         6.15626         5.57859
     2022.63381         4.36707         5.73195
     2022.63655         6.06988         5.66838
     2022.63928         3.90369         5.71782
     2022.64202         0.50150         6.13453
     2022.64476         9.77631         5.99024
     2022.64750         7.40812         5.79854
     2022.65023         5.31593         5.73397
     2022.65297        10.18174         5.71580
     2022.65571        15.21555         5.82881
     2022.65845        15.98936         5.72993
     2022.66119        10.60517         5.55134
     2022.66392         4.32898         5.49686
     2022.66666         8.76679         5.48879
     2022.66940        10.56260         5.48374
     2022.67214        12.27441         5.57657
     2022.67488         7.52922         5.50190
     2022.67761         8.96803         5.49081
     2022.68035        14.06284         5.48172
     2022.68309        10.59465         5.51502
     2022.68583        14.26146         5.89237
     2022.68856        13.74127         5.57657
     2022.69130        10.98508         5.60885
     2022.69404         9.79889         5.58867
     2022.69678        11.17970         5.56648
     2022.69952         5.04051         5.66637
     2022.70225        14.06432         5.80762
     2022.70499        15.93113         5.92870
     2022.70773         1.28694         5.79450
     2022.71047        17.16575         5.52814
     2022.71321        13.88056         5.59876
     2022.71594        20.18637         5.54933
     2022.71868        12.86718         5.61491
     2022.72142        14.10499         5.60482
     2022.72416         9.67580         5.89742
     2022.72689        21.92361         5.57758
     2022.72963        12.83642         5.44237
     2022.73237        11.29823         5.51502
     2022.73511        10.62004         5.50796
     2022.73785         8.30784         5.58968
     2022.74058        16.10465         5.68856
     2022.74332        14.75846         5.75011
     2022.74606        17.49927         5.57657
     2022.74880         6.55108         5.53823
