# ================= DQRFIT RESULTS ================
# INPUT FILE: series/IDIR.rad
# OUTPUT: LDETRENDED
# FILTER FUNCTION: f(t)
# f(t)=+line(t)+annual(t)
# line(t)=+P 1+P 2*t
# annual(t)=+P 3*sin(2*pi*t+P 4)
# heav(t)=(t<0?0:1)
# TOTAL OBSERVATIONS MTOT= 2354
# INITIAL TIME INTERVAL= 2022.7488 - 2015.0007 =  7.7481
# TOTAL OBSERVATIONS AFTER PREFILTER M= 2310
# TIME-SPAN= 2022.7488 - 2015.0007 =  7.7481
# OBSERVATIONS: USED M=  2310 REJECTED MTOT-M=    44 %USED=   98.1308
# N=  4 PARAMETERS
# MAXSIG= 175.00000
# MAXRES=  86.42191
# SCALE FACTOR FOR LENGTHS: SCL=  10.00000
# SCALE FACTOR FOR SIGMAS: SCLSIG=   1.00000
# CHI^2=   3464.772 DOF=  2306 CHI^2/DOF=   1.50250
# RMS=      7.778 SDEV=      7.774 MEAN=    0.29971
#  P #       PARAMETER +-    SIGMA %error PARAMETER NAME
# P 1 =      3487.60073 +-  131.103   3.76 YZERO                              
# P 2 =        -1.73152 +-    0.065   3.75 SLOPE                              
# P 3 =         5.74256 +-    0.205   3.57 ANNUAL AMPLITUDE                   
# P 4 =         2.70262 +-    0.046   1.69 ANNUAL PHASE                       
#       T            LDETRENDED       SIG_OBS
     2015.00068         8.89995         6.58359
     2015.00342         4.10769         6.59830
     2015.00616        -0.06957         6.54191
     2015.00889         2.04817         6.61056
     2015.01163         1.93991         6.70249
     2015.01437        13.86365         6.91087
     2015.01711        -3.32861         6.81158
     2015.01984         3.22313         6.68165
     2015.02258         5.89187         6.78707
     2015.02532         7.37761         6.64856
     2015.02806         1.34935         6.96603
     2015.03080        16.33609         6.96235
     2015.03353        -1.78617         6.63140
     2015.03627         3.59057         6.57133
     2015.03901         1.31631         6.57869
     2015.04175         7.18806         6.67062
     2015.04449         8.65580         6.69391
     2015.04722         9.37954         6.68533
     2015.04996        11.39628         6.66939
     2015.05270         2.65802         6.62159
     2015.05544         1.15976         6.60933
     2015.05817         4.44950         6.63140
     2015.06091         0.55124         6.68043
     2015.06365         5.37498         6.77604
     2015.06639         7.75672         6.60320
     2015.06913         2.18446         6.67675
     2015.07186        -8.33180         6.69636
     2015.07460         6.22594         6.69514
     2015.07734        -4.20032         6.67797
     2015.08008        -5.83158         6.65101
     2015.08282         2.29717         6.68043
     2015.08555         2.06591         6.68778
     2015.08829         0.48765         6.68533
     2015.09102        20.29337         6.73804
     2015.09377        19.66213         7.57278
     2015.09650        15.76487         6.72210
     2015.09924         8.99361         6.85694
     2015.10198         6.02035         6.93416
     2015.10472         7.57809         6.59585
     2015.10746         7.40683         6.67062
     2015.11019        -5.30943         6.82507
     2015.11293        -4.18569         6.85326
     2015.11567        -2.97395         6.71965
     2015.11841        -5.23321         6.59830
     2015.12115        -1.74147         6.68288
     2015.12388        -6.08273         6.72701
     2015.12662        -3.09398         6.68043
     2015.12936         0.23676         6.67430
     2015.13210         0.65150         6.64120
     2015.13483        -2.25776         6.87287
     2015.13757        -0.45302         6.81649
     2015.14031        -2.52228         6.69268
     2015.14305         1.72746         6.70984
     2015.14579         0.14220         6.65714
     2015.14852         0.51194         6.66327
     2015.15126         0.86068         6.69759
     2015.15400        -3.61958         6.75275
     2015.15674         3.48116         6.63875
     2015.15948         7.82790         6.65223
     2015.16221        -2.79736         6.61546
     2015.16495        -0.99662         6.71352
     2015.16769        -0.01488         6.67797
     2015.17043        -0.17613         6.65469
     2015.17316         1.83261         6.78952
     2015.17590         0.41035         6.87165
     2015.17864        -1.69191         6.78707
     2015.18138         0.71983         6.69268
     2015.18412         0.24457         6.68901
     2015.18685        -0.38169         6.64733
     2015.18959        -1.45895         6.64488
     2015.19233         0.29479         6.89003
     2015.19507        -4.17947         6.76623
     2015.19780         2.70527         6.71230
     2015.20054         2.58201         6.65469
     2015.20328         2.06775         6.68778
     2015.20602        -5.66551         6.80545
     2015.20876        -6.25177         7.04080
     2015.21149        -2.95003         6.72455
     2015.21423        -3.80728         6.79687
     2015.21697        -1.64154         6.81526
     2015.21971        -0.31180         6.94887
     2015.22245         3.79694         6.71597
     2015.22518         6.28468         6.75765
     2015.22792         5.08342         6.67920
     2015.23066         0.04416         7.35828
     2015.23340        -2.42010         6.89861
     2015.23613         5.08464         6.97706
     2015.23887         0.88538         6.98932
     2015.26984        15.20001        10.90564
     2015.27173         4.05627         6.84590
     2015.27446         6.63801         6.85571
     2015.27720         5.99075         6.68288
     2015.27994        -0.68151         6.70494
     2015.28268         5.10923         6.70984
     2015.28542        10.14897        10.38469
     2015.28815         1.30871         6.78339
     2015.29089         2.32245         6.63998
     2015.29363        -1.17581         6.65959
     2015.29637         5.29893         6.73191
     2015.29911         6.01667         6.67675
     2015.30184         8.07642         6.63875
     2015.30458         0.28516         6.73681
     2015.30732         4.48190         6.59585
     2015.30989         5.30134         7.21731
     2015.32184         1.37005        10.40553
     2015.32375        -1.80366         6.68043
     2015.32648         0.77408         6.89494
     2015.32922         3.44482         6.80055
     2015.33196         6.25056         6.67307
     2015.33470         6.64330         6.66694
     2015.33744         8.09404         6.73191
     2015.34017        -0.50722         6.70862
     2015.34291        15.45652         6.65836
     2015.34565        15.91827         6.57256
     2015.34839        -3.49199         6.69881
     2015.35112         6.72275         6.66694
     2015.35386        12.60649         6.66449
     2015.35660        -1.22577         6.61301
     2015.35934        -5.31703         6.91945
     2015.36208        -2.34429         6.80791
     2015.36481        -1.20255         6.68410
     2015.36755        13.01419         6.77849
     2015.37303        10.59567         6.56766
     2015.37577        -0.31059         6.64488
     2015.37850        18.51715         6.92068
     2015.38124        20.13989         6.67430
     2015.38398        -5.95037         6.69146
     2015.38672        10.06938         6.66939
     2015.38945        23.83312         6.66939
     2015.39219        -0.76114         6.59707
     2015.39492        -4.95543         6.72210
     2015.39767         6.59234         6.69759
     2015.40041        -1.51992         6.71230
     2015.40314        13.27882         6.94887
     2015.40588       -11.50144         6.71720
     2015.40862        -1.46270         6.73559
     2015.41136        -8.20396         6.78584
     2015.41410         4.72378         6.86552
     2015.41683         2.21752         6.70494
     2015.41957        -3.99374         6.64365
     2015.42231         4.91700         6.73436
     2015.42505        -2.19626         6.95868
     2015.42778         1.08348         6.70004
     2015.43052        15.33223         6.77971
     2015.43326        -3.62603         6.71597
     2015.43600        -4.22429         6.71597
     2015.43874        19.68245         6.96235
     2015.44147         7.04519         7.04693
     2015.44421        -8.03907         6.70126
     2015.44695        -3.94733         6.72578
     2015.44969        -2.58759         6.63752
     2015.45243        -7.81985         6.79197
     2015.45516        -3.65811         6.86184
     2015.45716        -6.67865        10.25721
     2015.46338        -4.48989         6.82507
     2015.46529         6.27442        10.47662
     2015.47781         1.56710        10.69971
     2015.47980        -2.45844         6.78094
     2015.48254        -9.51270         6.74171
     2015.48528        -7.86496         6.78217
     2015.48802        -1.00422         6.71107
     2015.49076        -3.85048         6.56275
     2015.49349         3.33726         6.97216
     2015.49623        -7.88300         7.01383
     2015.49897        -9.22426         6.91455
     2015.50171         1.22548         6.73559
     2015.50444        -0.27278         6.70984
     2015.50718         3.23796         6.61178
     2015.50992         6.21570         6.82629
     2015.51266         1.18944         7.59975
     2015.51499        -9.73752        26.99750
     2015.51829        -1.69280        13.47485
     2015.52104        15.18295         7.10944
     2015.52344         3.06512         8.73113
     2015.53230        -9.11454        23.45872
     2015.54591        12.79302        20.51443
     2015.55189         4.81237        31.31098
     2015.55392        10.59688        13.52878
     2015.55646        16.10429        12.10812
     2015.56227        17.10235        59.53425
     2015.56523        73.28348       101.73493
     2015.56834        12.47886        37.32704
     2015.57004         4.75281        18.50662
     2015.57329         1.24242        18.47107
     2015.57601        16.01814        23.42072
     2015.57875        17.51588        29.88418
     2015.58410       -20.98485        32.08566
     2015.59230        45.86835        33.86425
     2015.59511        55.30521        27.57729
     2015.59753         4.86940        17.24653
     2015.60031        44.50522        22.09199
     2015.60301        12.14988        16.86287
     2015.60562        19.78640        25.05466
     2015.63141       -22.73493        49.08826
     2015.63312         9.21703        11.16918
     2015.63586        13.12077        11.21454
     2015.63860        -5.84849        11.42782
     2015.64134        13.53625        11.10544
     2015.64361         9.39420        12.08483
     2015.64812        89.13501       150.26179
     2015.64955         9.58448         6.72333
     2015.65229         6.57422         6.84100
     2015.65503         9.97696         6.79320
     2015.65662        10.39872        17.02467
     2015.66062        13.25264         7.41589
     2015.66291        11.08460         7.77871
     2015.66729       -20.07780        88.02718
     2015.66872         6.99866         6.96480
     2015.67145        15.98940         6.85939
     2015.67419         9.13214         6.83610
     2015.67567         7.29371        21.73284
     2015.68879         8.31542        12.97964
     2015.69062         4.38359         6.61791
     2015.69336         3.43233         6.79320
     2015.69609         5.25107         6.68043
     2015.69883         9.07381         6.71720
     2015.70094        14.97345         8.96893
     2015.70796        17.61062        13.28118
     2015.70978        16.35077         6.72701
     2015.71252         0.11351         6.81771
     2015.71526         9.54625        12.96370
     2015.71800        10.51499         6.65714
     2015.72073        12.76373         6.66817
     2015.72250         7.49379        11.95735
     2015.72718        11.05190        13.27260
     2015.72895         1.16295         7.05674
     2015.73169         2.15769         6.80545
     2015.73442        -1.08356        12.98332
     2015.73716         9.44218         6.77604
     2015.73990        13.42292         6.79565
     2015.74176         7.36213        11.94019
     2015.74641        17.33718        17.64000
     2015.74811         6.56414         7.46737
     2015.75085        16.20788         6.94397
     2015.75359        22.06362        11.96593
     2015.75633         7.63736         6.65959
     2015.75906         4.68110         6.71475
     2015.76106         1.47255         9.89684
     2015.76562        -5.13254        21.31240
     2015.76728        -1.58167         6.98564
     2015.77002         1.26506         6.59462
     2015.77275        11.65380        12.92571
     2015.77549         6.53654         6.95990
     2015.77823         8.58429         6.80791
     2015.78023         4.08174         9.92135
     2015.78485        34.65275        29.20143
     2015.78644         4.75551         6.95255
     2015.78918         6.18025         6.63140
     2015.79100         1.88239        11.36163
     2015.79466        16.33774         6.82262
     2015.79739        29.81047         6.76746
     2015.79948        42.44407         9.25454
     2015.80406         6.03101        19.51420
     2015.80561         6.11970         6.76133
     2015.80835         7.53043         6.65714
     2015.81022         5.12368        10.65926
     2015.81388         3.56602         7.36073
     2015.81656         2.44965         6.59340
     2015.81873        13.39041         8.78016
     2015.82329        17.25732        27.76974
     2015.82483        35.36598         7.20015
     2015.82751        37.15462         6.83120
     2015.82945        49.67398        10.45088
     2015.83305        14.82220         7.02119
     2015.83572        22.76984         6.91210
     2015.83797         4.20872         8.77771
     2015.84246        16.96950        30.96899
     2015.84394        10.01306         7.15235
     2015.84668         4.94580         6.69514
     2015.84869         6.96328         9.89071
     2015.85227         9.78349         7.38769
     2015.85489        11.94902         6.87287
     2015.85718        23.58000         8.45656
     2015.86310         7.25724         7.27370
     2015.86584         8.87099         6.80913
     2015.86797         2.42667         9.01306
     2015.87149         9.65877         7.66717
     2015.87405         9.35521         6.81526
     2015.87646         4.64637         7.97729
     2015.88227         8.80844         6.99300
     2015.88501        11.91818         7.02487
     2015.88721         1.58699         8.57178
     2015.89071        10.93105         7.66104
     2015.89322         7.32939         6.75765
     2015.89573        10.76975         7.77871
     2015.90149         6.53572         7.50659
     2015.90417         5.66835         7.00525
     2015.90645         8.45130         8.42101
     2015.90994         7.91234         8.18444
     2015.91238         8.53958         6.77113
     2015.91497         9.43505         7.40853
     2015.92083         9.71419         7.72601
     2015.92334         9.98654         6.92926
     2015.92565         4.51754         8.35360
     2015.92916         0.26762         8.61101
     2015.93155         5.59677         6.99667
     2015.93417        13.39130         7.49434
     2015.94000        14.19439         8.81939
     2015.94250         6.94072         7.14009
     2015.94485         6.36180         8.47127
     2015.94836        11.36186         9.06699
     2015.95072        20.58295         6.75152
     2015.95337        10.08455         7.14867
     2015.95905        13.05937         8.41979
     2015.96167        10.07691         7.05183
     2015.96412        12.75116         7.91845
     2015.96760        11.32319         8.94809
     2015.96919        13.23594        10.39327
     2015.99014         5.68822        14.40766
     2015.99178         2.88205         6.63385
     2015.99452         6.13080         6.65591
     2015.99726         6.74154         6.64120
     2016.00000         4.86328         6.66204
     2016.00273         3.67002         6.62036
     2016.00547         1.51876         6.62649
     2016.00821         5.28450         6.68901
     2016.01095         9.91124         6.71597
     2016.01368         5.54098         6.72578
     2016.01642         6.48472         6.85816
     2016.01916         4.64546         6.95377
     2016.02190         6.03120         6.80913
     2016.02464         1.28694         6.86552
     2016.02737         3.53868         6.65714
     2016.03011         4.06742         6.66327
     2016.03285         7.50616         6.64488
     2016.03559         9.76290         6.64120
     2016.03815        10.30635         7.31415
     2016.05749         4.68883         6.63752
     2016.06023         9.70557         6.59585
     2016.06297         8.83331         6.59340
     2016.06570         7.70305         6.71352
     2016.06844         5.50279         6.71597
     2016.07118         1.24153         6.73681
     2016.07392         3.02127         6.75520
     2016.07666        15.14401         6.82874
     2016.07939        21.16075         6.81404
     2016.08213         6.80050         6.89371
     2016.08487         5.59624         6.77481
     2016.08761        -2.08602         6.70739
     2016.09034        -3.40828         6.68410
     2016.09308         4.62646         6.68901
     2016.09582        -1.88580         6.65836
     2016.09856        -2.24706         6.70984
     2016.10130        -8.32632         6.72946
     2016.10403        -9.32358         6.71720
     2016.10677        -7.45584         6.72210
     2016.10951        -4.53710         6.66204
     2016.11225        -4.57336         6.65959
     2016.11498        -5.91362         6.68901
     2016.11772        -6.93088         6.87165
     2016.12046        -3.27914         6.75642
     2016.12320         0.83760         6.79933
     2016.12594        -8.70665         6.85816
     2016.12867         2.41509         6.76255
     2016.13141         1.42583         6.92681
     2016.13415         2.65157         6.78952
     2016.13689        -3.40269         6.73559
     2016.13963        -3.93495         6.62282
     2016.14236        -8.37921         6.63875
     2016.14510        -6.28447         6.68043
     2016.14784       -10.81973         6.63998
     2016.15058        -4.83099         6.66204
     2016.15331        -4.91425         6.82997
     2016.15605        -4.16951         6.65714
     2016.15879        -7.40477         6.83978
     2016.16153        -4.89903         6.86429
     2016.16427        -6.32629         6.83120
     2016.16700        -8.22555         6.77726
     2016.16974        -5.87580         6.63385
     2016.17248        -4.50606         6.84345
     2016.17522        -4.72432         6.68901
     2016.17796         6.23942         6.79320
     2016.18069        14.49316         6.83242
     2016.18343        -1.84210         6.99667
     2016.18617        -6.73336         6.74294
     2016.18891        -4.85062         6.58604
     2016.19164        -3.45788         6.60565
     2016.19438         2.62186         6.64856
     2016.19712         8.41860         6.53946
     2016.19986         4.90834         6.83365
     2016.20260        -6.51392         6.78339
     2016.20533        -2.91618         6.83855
     2016.20807        -5.40944         6.85081
     2016.21081       -10.89970         6.71475
     2016.21355        -7.75595         6.75888
     2016.21629        -8.69921         6.59217
     2016.21902        -2.87347         6.64488
     2016.22176        10.89627         7.14867
     2016.22330        -4.73307        18.61939
     2016.22798        -2.41197         9.98509
     2016.22997        -2.15051         6.69881
     2016.23271        -3.32077         6.64978
     2016.23545        -3.27003         6.66817
     2016.23819         3.80771         6.57991
     2016.24093         4.02045         6.74171
     2016.24366        -3.66881         6.75030
     2016.24640         3.33293         6.66939
     2016.24914        -3.63733         6.66327
     2016.25188        -2.04059         6.61178
     2016.25462        -4.71984         6.71720
     2016.25735         5.88690         6.79933
     2016.26009        -2.39436         6.79320
     2016.26283       -10.66262         6.71965
     2016.26557        -6.47688         6.76010
     2016.26830        -8.80614         6.71352
     2016.27104        -5.63940         6.70004
     2016.27275         0.07556        14.27405
     2016.28238        -3.30176         7.74929
     2016.28473         2.41330         7.07145
     2016.28747         1.27104         6.71352
     2016.29021        -8.56522         6.71597
     2016.29295        -5.08648         6.64733
     2016.29568        -7.81974         6.67430
     2016.29842        -1.58599         6.81649
     2016.30116        -4.59525         6.79320
     2016.30390       -13.55651         6.69268
     2016.30663       -10.04977         6.72578
     2016.30937        -7.93403         6.81649
     2016.31211        22.47271         6.71230
     2016.31485         5.00845         6.70372
     2016.31759        -0.16581         6.65469
     2016.32032        -4.85507         6.74662
     2016.32306       -12.14033         6.63630
     2016.32580        -7.91959         6.72088
     2016.32854        -0.16585         6.76378
     2016.33128        -8.62611         6.71352
     2016.33401        -9.08137         6.77481
     2016.33675        -9.31263         6.70617
     2016.33949       -13.78589         8.55462
     2016.34223       -11.58214         6.74662
     2016.34496        -3.18340         6.95868
     2016.34770        -1.25566         6.87532
     2016.35044         1.32108         6.78217
     2016.35318         3.60082         6.89616
     2016.35592        -6.19544         6.74417
     2016.35865       -16.23470         6.65836
     2016.36139       -14.26196         6.78829
     2016.36413        -9.66522         6.72946
     2016.36687       -12.12648         6.81036
     2016.36961        -2.69974         6.79442
     2016.37234         5.63800         6.68656
     2016.37508        -7.22226         6.64365
     2016.37782       -13.66752         6.68778
     2016.38056         5.35122         6.81894
     2016.38329         2.52396         6.78584
     2016.38603        -5.24829         6.79442
     2016.38877        10.90945         6.69146
     2016.39151        -4.92381         6.69636
     2016.39425        -4.45507         6.64365
     2016.39698        13.17667         6.70126
     2016.39972        -6.45159         6.73804
     2016.40246        -4.00585         6.74784
     2016.40520        -8.30811         6.67552
     2016.40794       -13.64737         6.66939
     2016.41067       -12.69763         6.66817
     2016.41341       -11.45589         6.70249
     2016.41615       -12.51315         6.71597
     2016.41889       -13.00541         6.78584
     2016.42162        -4.05367         6.69268
     2016.42436       -14.31793         6.65959
     2016.42710       -11.62019         6.83487
     2016.42984        -9.22944         6.79442
     2016.43258        -1.01870         6.76746
     2016.43531        -2.66496         6.91700
     2016.43805        -8.91522         6.82752
     2016.44079       -10.11748         6.69268
     2016.44353        -6.80674         6.63752
     2016.44626        15.07900         6.72946
     2016.44900        -7.50126         6.76746
     2016.45174        -7.76952         6.81281
     2016.45448        -5.88078         6.70862
     2016.45722        -7.14404         6.73068
     2016.45967        -5.94879         7.62549
     2016.46909        -8.18149        14.68100
     2016.48030       -24.10407        22.01476
     2016.48186        -7.69137         6.67675
     2016.48459        -7.67163         6.64611
     2016.48733        -8.24189         6.72455
     2016.49007        -2.51515         6.65591
     2016.49281        -7.88841         6.66939
     2016.49555        -2.63067         6.85449
     2016.49828        -6.20493         6.80055
     2016.50102        -4.01619         6.81526
     2016.50376        -1.77745         6.82752
     2016.50650         1.23129         6.89003
     2016.50924        -5.63397         6.69881
     2016.51197        -4.52323         6.62282
     2016.51471        -6.65749         8.05206
     2016.51745         0.88226         6.73926
     2016.52019        -7.15000         6.69391
     2016.52292         5.36874         6.71352
     2016.52566        -4.72252         6.66572
     2016.52840        -0.81978         6.64733
     2016.53114        -2.75304         6.71475
     2016.53388        -2.80030         6.62894
     2016.53661         1.00444         6.70984
     2016.53935         2.23818         6.70249
     2016.54209         9.75692         6.67552
     2016.54751         6.31330         6.75152
     2016.55410         2.94872        16.10780
     2016.55578         5.31662         6.83855
     2016.55852         6.52437         6.64365
     2016.56125         3.41111         6.56275
     2016.56399        -3.19115         6.65714
     2016.56673         1.16959         6.77113
     2016.56947        -3.36367         6.92926
     2016.57221         1.72807         6.74049
     2016.57494         4.74881         6.84836
     2016.57768         1.16355         6.82016
     2016.58042        16.23929        13.88916
     2016.58316        -5.91297         6.75642
     2016.58590         3.12977         6.71965
     2016.58863         7.87251         6.65714
     2016.59137        -6.81875         6.62527
     2016.59411         4.28799         6.68656
     2016.59685        11.17373         6.91700
     2016.59958         3.06947         7.01261
     2016.60232        10.29922         6.89984
     2016.60506         3.81196         6.65959
     2016.60780         3.43770         6.64243
     2016.61054        -3.47156         6.69514
     2016.61327        -0.23882         6.73191
     2016.61601         2.86292         6.64978
     2016.61875        -5.47834         6.73804
     2016.62149         2.93240         6.79075
     2016.62394         2.05965         7.74929
     2016.62775         6.51024        10.74997
     2016.62970        -1.89238         6.65714
     2016.63244         4.96636         8.75810
     2016.63518        -0.71190         6.68288
     2016.63791         9.31884         6.71597
     2016.64065         5.82058         6.80055
     2016.64339         4.74232         6.65346
     2016.64613         0.51207         6.60443
     2016.64887         2.11581         6.71597
     2016.65160         6.02555         6.80545
     2016.65434        -2.58371         6.67307
     2016.65708        -0.94997         6.63875
     2016.65982        -2.41923         6.65469
     2016.66256         4.14451         6.64243
     2016.66529         3.60825         6.69391
     2016.66803        -0.20501         6.68288
     2016.67077         4.67073         6.89861
     2016.67351        10.07747         6.69391
     2016.67624        12.39021         6.71720
     2016.67898        15.92495         6.70984
     2016.68149        11.26730         7.35092
     2016.68773        18.30610        14.62952
     2016.69015         6.89929         7.36073
     2016.69267         1.88766         6.62404
     2016.69541         6.16940         6.58359
     2016.69815        14.04114         6.58482
     2016.70089         9.87688         6.74784
     2016.70362        17.47562         6.87532
     2016.70636        14.98336         6.97338
     2016.70910         3.18610         6.96726
     2016.71184         7.65984         6.69391
     2016.71457         6.09258         6.74907
     2016.71731        11.18232         6.76868
     2016.72005        10.93906         6.66081
     2016.72279         6.56780         6.67797
     2016.72553        20.49054         6.84590
     2016.72826        32.45728         7.01996
     2016.73100        25.49402         6.66204
     2016.73374        -2.22823         6.59095
     2016.73648         2.96251         6.52353
     2016.73921         3.21925         6.60933
     2016.74195         3.71199         7.62304
     2016.74469        -0.89727         6.70617
     2016.74743        12.15247         6.67675
     2016.75017        16.89321         6.73804
     2016.75290        21.73295         6.69759
     2016.75564        24.97469         6.84590
     2016.75838        38.83043        14.60010
     2016.76112        31.63117         6.62772
     2016.76386        29.68391         6.59095
     2016.76659        14.08765         6.56520
     2016.76933         2.97039         6.60075
     2016.77207         2.44313         6.53824
     2016.77481         4.36087         6.58604
     2016.77754        -4.30838         6.66939
     2016.78028         0.39236         6.66449
     2016.78302        -0.51990         6.59462
     2016.78576        11.40884         6.69146
     2016.78850        28.06258         6.77358
     2016.79123         8.07132         6.69268
     2016.79397        17.12906         6.82384
     2016.79671         8.29680         6.69023
     2016.79945        18.04754         6.65223
     2016.80219         0.61428         6.58114
     2016.80492         9.50602         9.19447
     2016.80766         8.12076         6.59707
     2016.81040        -0.16850         6.63017
     2016.81314        -4.02676         6.75642
     2016.81587        15.60298         6.87655
     2016.81861         5.47572         6.57746
     2016.82135         2.54047         6.62036
     2016.82409        16.80521         6.67797
     2016.82683        19.76195         6.76378
     2016.82956         0.21169         6.64856
     2016.83230         8.78843         6.77481
     2016.83476         0.92168         7.48698
     2016.84130        -2.42598        10.05006
     2016.84325        -3.68661         6.56153
     2016.84599         1.00413         6.56520
     2016.84873         7.29287         6.64611
     2016.85147         1.58961         6.61424
     2016.85420         1.69835         6.62404
     2016.85694         1.69109         6.59830
     2016.85968        -0.53317         6.74417
     2016.86208         0.52798         7.83020
     2016.87151         3.06632        10.72178
     2016.87337         7.30254         6.64243
     2016.87611         9.86828         6.62772
     2016.87885         6.35802         6.62527
     2016.88158        -2.51424         6.60320
     2016.88432        -0.08850         6.68533
     2016.88706         1.19224         6.61914
     2016.88980        17.21898         6.65346
     2016.89253        22.00672         6.68043
     2016.89527         2.43446         6.63140
     2016.89801         6.53620         6.63507
     2016.90075        -0.73406         6.68656
     2016.90349         4.68268         6.73191
     2016.90622        12.57343         6.81404
     2016.90896        17.82017         6.59462
     2016.91170         9.82791         6.56766
     2016.91444         6.39665         6.60565
     2016.91718         7.04039         6.72210
     2016.91991         0.80313         6.65836
     2016.92265         5.89387         6.63017
     2016.92539         9.57461         6.58114
     2016.92813         0.12135         6.70249
     2016.93086        -3.76491         6.52598
     2016.93360        -0.81317         6.55908
     2016.93634         1.07157         6.59340
     2016.93908        -0.99069         6.71475
     2016.94182        19.29905         6.66939
     2016.94455         3.24379         6.55785
     2016.94729         3.48353         6.65836
     2016.95003         0.29228         6.69759
     2016.95277         1.53302         6.72210
     2016.95551         4.59376         6.60443
     2016.95824        19.59450         6.62649
     2016.96098         4.85724         6.53701
     2016.96372        -1.27102         6.55417
     2016.96646         0.68172         6.57869
     2016.96919         1.39546         6.58727
     2016.97193         5.89820         6.52843
     2016.97467         5.74894         6.55050
     2016.97741         9.83468         6.52966
     2016.98015         5.62942         6.51250
     2016.98288         4.95716         6.59585
     2016.98551         5.02071         6.82139
     2016.98947        12.96956        14.47875
     2016.99110         4.51938         6.53333
     2016.99384        -1.76287         6.53946
     2016.99657         5.33387         6.55908
     2016.99931         3.62861         6.55908
     2017.00205         3.71735         6.54559
     2017.00479         2.70509         6.53333
     2017.00752        -2.54717         6.57991
     2017.01026         2.65357         6.51495
     2017.01300         6.70631         6.51250
     2017.01574         2.92705         6.45121
     2017.01848        -0.49121         6.52843
     2017.02121         6.77653         6.55050
     2017.02395        19.35727         6.70739
     2017.02669        -5.06399         6.72823
     2017.02943         2.61975         6.66694
     2017.03216        -3.26351         6.53211
     2017.03490        -4.41277         6.56398
     2017.03764        -8.90502         6.62894
     2017.04038        -4.15128         6.58114
     2017.04312        -1.13254         6.58849
     2017.04585        -2.23780         6.73436
     2017.04859         3.44194         6.76255
     2017.05133         6.31468         6.58482
     2017.05407         7.46442         6.59585
     2017.05681         9.08716         6.59217
     2017.05954         2.40590         6.57011
     2017.06228         1.73564         6.56398
     2017.06502        -0.10962         6.56030
     2017.06764         1.79992         6.89984
     2017.08277         5.16712       155.89419
     2017.08418        -5.81243         8.69436
     2017.08675        -3.99199        14.61236
     2017.09006        25.08774       115.24165
     2017.09325        -1.63973        10.66539
     2017.09514        -2.98447         6.63752
     2017.09787         0.09527         6.62527
     2017.10061        -0.70199         6.93171
     2017.10335        -0.31525        12.44153
     2017.10609        11.01049        21.65439
     2017.10888         4.81633        10.55140
     2017.11156        16.65097        10.12851
     2017.11436         0.22481         6.76255
     2017.11704       -15.36355         7.16215
     2017.11978       -11.74081         6.55540
     2017.12251       -16.69907        12.22334
     2017.12519       -16.39242        24.14269
     2017.12799        -7.86858        29.02860
     2017.13107        15.23475        26.97299
     2017.13409         0.46598         8.88068
     2017.13603        14.56634         7.88045
     2017.13831        -3.42571        13.96638
     2017.17817        -7.30169        12.22212
     2017.18001        -6.12951         6.62159
     2017.18275         0.33023         6.65223
     2017.18548       -15.92303         6.59585
     2017.18822        -9.87329         6.61178
     2017.19096       -20.10155         6.59462
     2017.19347        -9.37720         7.27002
     2017.19644        -5.53207         6.57501
     2017.19917        -8.60033         6.61546
     2017.20191        -8.12559         6.57256
     2017.20465        -9.47285         6.75030
     2017.20739       -13.84711         6.67552
     2017.21013        -6.50536         6.60075
     2017.21286        -6.95162         6.64488
     2017.21480        -4.52727        10.81248
     2017.21840       -11.21504         6.73313
     2017.22108         1.40560         6.76623
     2017.22381        -6.62566         6.79565
     2017.22655        -4.38592         6.71597
     2017.22929        -2.00618         6.59462
     2017.23203        -6.74844         6.59462
     2017.23477        -6.96770         6.63507
     2017.23750        -2.91996         6.61791
     2017.24024        -9.09322         6.58359
     2017.24298        -7.50948         6.59340
     2017.24572        -1.96674         6.57501
     2017.24846        -9.58000         6.63262
     2017.25119        -1.93826         6.70126
     2017.25393        -7.01251         6.59953
     2017.25667       -10.39977         6.57624
     2017.25941       -16.46403         6.51985
     2017.26214       -12.10929         6.59340
     2017.26488       -10.57855         6.66204
     2017.26762        10.05419         6.64120
     2017.27036         3.97993         6.62036
     2017.27310       -12.55633         6.61669
     2017.27583       -11.31959         6.63262
     2017.27857       -18.47385         6.65223
     2017.28131       -16.22711         6.67430
     2017.28405       -15.01037         6.67185
     2017.28679       -16.30563         6.55662
     2017.28952       -13.38489         6.56520
     2017.29226       -11.24115         6.63998
     2017.29500        -7.47041         6.67797
     2017.29774        -3.35766         6.69881
     2017.30047       -10.86392         6.56888
     2017.30321       -10.44818         6.52843
     2017.30595       -15.01344         6.53211
     2017.30869       -13.81770         6.64733
     2017.31143        -5.06796         6.62036
     2017.31416         1.80978         6.65346
     2017.31690        -4.40848         6.65836
     2017.31964         4.73026         6.72088
     2017.32238        -7.84900         6.77726
     2017.32512       -12.50226         6.61301
     2017.32785       -12.77252         6.62282
     2017.33059       -15.49378         6.61914
     2017.33333       -14.45804         6.51863
     2017.33607       -14.80630         6.62036
     2017.33880       -19.99956         6.57624
     2017.34154       -10.56981         6.70862
     2017.34428       -17.53707         6.67185
     2017.34702        -9.42533         6.64488
     2017.34976       -11.18459         6.57256
     2017.35249       -13.24385         6.63017
     2017.35523       -20.52911         6.52108
     2017.35797       -17.58237         6.58727
     2017.36071       -17.50563         6.70739
     2017.36344       -13.56089         6.59707
     2017.36618       -13.36815         6.58972
     2017.36892        -9.37441         6.63630
     2017.37166        -8.41167         6.56766
     2017.37440        -2.76093         6.57011
     2017.37713       -11.09519         6.62159
     2017.37987       -16.85845         6.63507
     2017.38261       -14.56171         6.66817
     2017.38535       -15.72196         6.62159
     2017.38809       -17.39522         6.57378
     2017.39082       -15.98648         6.58482
     2017.39356        -4.05074         6.73068
     2017.39630       -11.85200         6.60933
     2017.39904        -1.87026         6.63017
     2017.40177       -14.11152         6.56766
     2017.40451       -19.44778         6.76500
     2017.40725       -18.19604         6.56398
     2017.40999       -13.49830         6.59095
     2017.41273        -9.94856         6.72823
     2017.41546       -16.83982         6.66572
     2017.41820        -6.16308         6.86797
     2017.42094       -13.91234         6.56888
     2017.42368       -15.06160         6.65346
     2017.42642        -9.89585         6.61056
     2017.42915       -11.09011         6.69146
     2017.43189        -8.28437         6.81649
     2017.43463       -10.32763         6.65836
     2017.43737        -6.22089         6.53088
     2017.44010        -0.23715         6.63262
     2017.44284        -8.50141         6.72210
     2017.44558        -0.49967         6.90719
     2017.44832         3.92007         6.64243
     2017.45106         4.78981         6.62282
     2017.45379       -11.06845         6.75152
     2017.45653       -10.38071         6.82874
     2017.45927        -2.56597         6.64243
     2017.46201       -11.40723         6.54927
     2017.46475       -15.30449         6.55785
     2017.46748       -16.21375         6.66817
     2017.47022       -21.16500         6.90842
     2017.47296       -12.39126         6.77604
     2017.47570       -17.54752         6.61791
     2017.47843       -17.57278         6.59217
     2017.48117       -16.45004         6.62649
     2017.48391       -10.45730         6.60933
     2017.48665       -10.18656         6.84345
     2017.48939        -9.34482         6.83242
     2017.49212        -9.76008         6.70004
     2017.49486       -13.11934         6.70984
     2017.49760       -13.44760         6.64611
     2017.50034        -6.42286         6.64243
     2017.50308        -7.64112         6.64611
     2017.50581       -13.59338         6.79933
     2017.50855       -11.79164         6.73559
     2017.51129        -8.64090         6.79075
     2017.51403        -8.34515         6.71475
     2017.51676        -5.44441         6.67185
     2017.51950       -14.08267         6.76133
     2017.52224         4.11807         7.03345
     2017.52498       -10.67019         6.63385
     2017.52772        -6.02745         6.79565
     2017.53045        -9.55671         6.67307
     2017.53319        -9.14097         6.78829
     2017.53593        -6.67523         6.68165
     2017.53867        -4.90349         6.84345
     2017.54141         7.39825         6.84590
     2017.54414        -5.44901         6.94274
     2017.54688        -9.54927         6.89984
     2017.54962        -5.71053         6.91700
     2017.55236        -1.53379         6.65223
     2017.55509        -4.42705         6.58237
     2017.55783        -5.99630         6.61669
     2017.56057        -9.16656         6.80423
     2017.56331        -4.12582         6.59462
     2017.56605        -5.14608         6.71352
     2017.56878        -8.17834         6.79810
     2017.57152        -4.93560         6.64611
     2017.57426       -10.67386         6.84223
     2017.57700        -8.90112         6.87165
     2017.57974       -14.47338         6.69268
     2017.58247        -6.13664         6.77971
     2017.58521       -16.42290         6.68288
     2017.58795       -12.13716         6.94887
     2017.59069        -6.03142         6.90964
     2017.59342        -8.42068         6.68288
     2017.59616        -4.73794         6.77849
     2017.59890        -5.86020         6.65469
     2017.60164        -5.66145         6.65346
     2017.60438       -11.94171         6.76623
     2017.60711        -6.98897         6.90719
     2017.60985        -6.77523         6.75520
     2017.61259        -5.28049         6.73068
     2017.61533        -5.07375         6.84223
     2017.61807         3.14399         6.82752
     2017.62080         0.45273         6.78094
     2017.62354        -2.21353         6.66327
     2017.62628        -6.18579         6.71107
     2017.62902        -4.81905         6.96726
     2017.63175        -4.74831         6.74049
     2017.63449        -4.12657         6.63630
     2017.63723        -4.39783         6.63998
     2017.63997        -4.81909         6.63752
     2017.64271        -3.94035         6.61424
     2017.64544        -3.58160         6.67307
     2017.64818         5.97014         7.04203
     2017.65092        -3.66112         6.60933
     2017.65366        -6.75138         6.59340
     2017.65639       -12.95664         6.69023
     2017.65913        -6.05590         6.76623
     2017.66187         0.01984         6.63998
     2017.66461         1.77658         6.72210
     2017.66735        -1.14968         6.76500
     2017.67008        -4.91494         6.61669
     2017.67282        -7.63220         6.75030
     2017.67556        -3.11546         6.66572
     2017.67830         0.00528         6.55172
     2017.68104        -3.65998         6.65223
     2017.68377        -1.40024         6.76133
     2017.68651         1.93850         6.89371
     2017.68925         3.70625         6.80055
     2017.69199         5.21599         6.65591
     2017.69472        -1.45227         6.64978
     2017.69746         3.22547         6.79197
     2017.70020         8.16721         6.89616
     2017.70294         2.86295         7.15235
     2017.70568        17.36869         6.90352
     2017.70841        12.26943         6.58604
     2017.71115        -0.04583         6.68043
     2017.71389         2.93291         6.55785
     2017.71663        10.34865         6.81158
     2017.71937         3.32039         6.62772
     2017.72210        16.91413         6.64978
     2017.72484         9.57687         6.62894
     2017.72758         1.84961         6.61056
     2017.73032         6.99336         6.60565
     2017.73305         2.49710         6.55295
     2017.73579        -1.35416         6.56153
     2017.73853        -5.26842         6.67920
     2017.74127        -4.24668         6.64856
     2017.74401         0.03606         6.64365
     2017.74674         4.72880         6.67062
     2017.74948        10.61354         6.71475
     2017.75222         6.63528         6.67185
     2017.75496        -2.66098         6.62404
     2017.75770        -0.97224         6.96113
     2017.76043        -2.89150         6.64488
     2017.76317         1.52524         6.61914
     2017.76591         4.36898         6.66204
     2017.76865         2.62272         6.67185
     2017.77138        -0.57254         6.58359
     2017.77412        -0.85879         6.57011
     2017.77686        -2.47305         6.60075
     2017.77960        -1.30331         6.71107
     2017.78234        -6.64657         6.72333
     2017.78507         8.96217         6.61669
     2017.78781        -6.86609         6.57011
     2017.79055        -6.92835         6.60075
     2017.79329        -2.30861         6.59585
     2017.79603         3.14613         6.63385
     2017.79876         7.81687         6.67307
     2017.80150         1.26661         6.72210
     2017.80424         9.02835         6.59095
     2017.80698        -0.54991         6.58237
     2017.80971        -7.44517         6.64733
     2017.81245        -7.73043         6.59340
     2017.81519         2.40431         6.56030
     2017.81793        -4.18194         6.65223
     2017.82067        -6.52720         6.74907
     2017.82340        -5.04446         6.59585
     2017.82614        -3.31272         6.60075
     2017.82888        -4.05498         6.66327
     2017.83162         1.82576         6.65836
     2017.83436        -3.75550         6.75642
     2017.83709         9.14224         6.94519
     2017.83983        -3.99502         6.60933
     2017.84188         1.74154         9.54504
     2017.84534         0.72151         6.75152
     2017.84804       -10.07480         6.68165
     2017.85458        -1.10348        13.98354
     2017.85626        -3.04058         6.74907
     2017.85900         1.93416         6.77971
     2017.86173        -1.70109         6.84836
     2017.86447        -2.06035         6.83365
     2017.86603         1.50635        19.63433
     2017.90925         6.74817        11.71465
     2017.91102        -3.54376         6.72578
     2017.91375        -4.99002         6.66327
     2017.91649         0.86072         6.58849
     2017.91923         4.39746         6.57501
     2017.92197         1.86420         6.60933
     2017.92470         1.60894         6.54927
     2017.92744        -9.26932         6.58604
     2017.93018        -8.41458         6.57256
     2017.93292       -10.03484         6.62282
     2017.93566        -3.34510         6.58114
     2017.93839        -1.34936         6.56520
     2017.94113        -6.08762         6.60688
     2017.94387        -2.10088         6.61669
     2017.94661        -5.09914         6.55662
     2017.94935        -2.19639         6.63385
     2017.95208        -0.43165         6.77726
     2017.95482        -5.11191         6.61056
     2017.95756        -1.56717         6.52721
     2017.96030         2.12057         6.47818
     2017.96303         1.12931         6.85816
     2017.96577         3.10905         6.70862
     2017.96726        -8.07338        26.92518
     2018.02681         4.07674        10.71197
     2018.02874        -2.18292         6.56030
     2018.03148        -5.32118         6.59217
     2018.03422        -8.90143         6.58359
     2018.03696       -15.61269         6.54559
     2018.03969       -14.10495         6.53824
     2018.04243       -11.98921         6.56398
     2018.04517       -12.82747         6.53579
     2018.04791        -9.64473         6.54069
     2018.05065        -2.52999         6.63507
     2018.05338        -0.45425         6.56153
     2018.05612        -8.14851         6.55908
     2018.05886       -11.83877         6.59707
     2018.06160        -3.77503         6.57624
     2018.06433        -4.83329         6.64978
     2018.06707        -4.94655         6.70494
     2018.06981        -6.18881         6.68410
     2018.07255       -11.70307         6.69391
     2018.07529       -17.14033         6.71107
     2018.07802       -13.70458         6.64733
     2018.08076       -13.80384         6.83487
     2018.08350        -8.96110         6.72088
     2018.08624       -10.41336         6.88268
     2018.08898        -9.35662         6.72455
     2018.09171        -6.94288         6.76255
     2018.09445       -11.00614         6.73926
     2018.09719        -1.54440         6.91455
     2018.09993        -8.16866         6.69391
     2018.10266       -12.66092         6.80423
     2018.10540        -6.07818         6.96480
     2018.10814        -9.25744         6.88636
     2018.11088        -9.12870         6.74539
     2018.11362        -7.89696         6.74662
     2018.11635        -5.49822         6.71597
     2018.11909        -8.22848         6.83732
     2018.12183        -8.72673         6.87287
     2018.12457        -7.16199         6.81894
     2018.12731       -10.37625         6.73068
     2018.13004        -8.16451         6.70249
     2018.13278        13.95323         6.86307
     2018.13552        -1.18603         6.73804
     2018.13826        -6.10729         6.71230
     2018.14099        -6.36255         6.71843
     2018.14373        -4.14981         6.75642
     2018.14647        -4.05407         6.96603
     2018.14921        -3.56033         6.83610
     2018.15195        -2.06659         6.75397
     2018.15468        -6.92585         6.74907
     2018.15742        -3.21511         6.71843
     2018.16016        -3.89737         6.70372
     2018.16290       -12.28663         6.83978
     2018.16564       -17.63188         6.85939
     2018.16837        -6.40114         6.76500
     2018.17111        -4.93640         6.66939
     2018.17385        -6.71066         6.71352
     2018.17659        -5.43292         6.67920
     2018.17932        -6.93218         6.74662
     2018.18206        -3.62544         6.89248
     2018.18480        -1.10670         6.90229
     2018.18754        -1.64596         6.71597
     2018.19028       -10.20222         6.65714
     2018.19301        -9.26648         6.81526
     2018.19575        -6.81174         6.75642
     2018.19849        -7.98900         6.83610
     2018.20123         3.36474         7.00525
     2018.20397         4.11648         6.68778
     2018.20670        -1.85678         6.66327
     2018.20944         0.09097         6.72701
     2018.21218        -7.51329         6.71597
     2018.21492       -19.57955         6.67552
     2018.21765        -1.40381         6.55050
     2018.22039        -4.37607         6.64243
     2018.22313         4.11867         6.60811
     2018.22587       -12.33259         6.66939
     2018.22861        -8.65685         6.57991
     2018.23134        -7.40911         6.59217
     2018.23408        -9.32537         6.57991
     2018.23682        -8.59663         6.62894
     2018.23956       -12.68289         6.60933
     2018.24230       -10.70815         6.66204
     2018.24503        -8.69741         6.61178
     2018.24777        -0.68067         6.56275
     2018.25051        -5.52793         6.66694
     2018.25325        -9.06018         6.54682
     2018.25598        -5.63244         6.55295
     2018.25872       -11.89670         6.72455
     2018.26146        -0.78996         6.76991
     2018.26420         3.08978         6.70004
     2018.26694        -8.25648         6.70617
     2018.26967        -9.86174         6.52230
     2018.27241       -12.01200         6.56153
     2018.27515         1.43474         6.69268
     2018.27789        11.17348         6.87777
     2018.28062        -9.32778         6.91087
     2018.28336       -11.23804         6.53824
     2018.28610       -11.51330         6.60933
     2018.28884       -10.56856         6.61914
     2018.29158         1.38018         6.79565
     2018.29431        -7.66308         6.64978
     2018.29705       -10.15533         6.60565
     2018.29979        -8.72059         6.59095
     2018.30253        -9.41385         6.58359
     2018.30527       -11.08311         6.56766
     2018.30800        -6.93937         6.74049
     2018.31045       -14.21913         7.52988
     2018.31422        -9.22861        10.28050
     2018.31622       -16.49915         6.86429
     2018.31895        -5.30141         6.70004
     2018.32169       -10.17767         6.63507
     2018.32443        -7.44693         6.56643
     2018.32717        -0.70919         6.63507
     2018.32991         5.87555         6.76991
     2018.33264        -2.95971         6.60565
     2018.33538       -13.89597         6.77481
     2018.33812       -13.71722         6.76623
     2018.34086       -12.37948         6.64733
     2018.34360       -13.69074         6.64243
     2018.34633       -18.37900         6.69023
     2018.34907       -11.73726         6.61791
     2018.35181       -12.72652         6.70372
     2018.35455        -3.42278         6.68410
     2018.35728        -0.32704         6.74049
     2018.36002         4.49970         6.65346
     2018.36276         1.26744         6.76010
     2018.36550       -16.99182         9.99858
     2018.36824       -14.37708         6.75765
     2018.37097       -11.27234         6.65836
     2018.37371        -7.17260         6.63507
     2018.37539         0.52132        15.64446
     2018.38575       -14.16976        15.37356
     2018.38740       -11.82489         6.83732
     2018.39014         6.39985         6.80300
     2018.39288        -6.58741         6.73436
     2018.39561        -9.59967         6.63630
     2018.39835        -4.62593         6.68656
     2018.40109         1.60381         6.86674
     2018.40383       -13.71945         6.60933
     2018.40657        -0.42271         6.71843
     2018.40930        -9.49897         6.86307
     2018.41198         3.17667         6.90842
     2018.41484        -7.51039         6.67920
     2018.41752       -15.89775         6.53088
     2018.42026       -17.98001         6.63875
     2018.42299       -12.48927         6.58972
     2018.42573        -8.52652         6.95377
     2018.42847        -2.81478         6.63262
     2018.43121        -4.86504         6.62772
     2018.43394        -9.52330         6.65469
     2018.43668        -4.92756         6.56766
     2018.43942        -4.83082         6.68656
     2018.44216        -3.68908         6.63385
     2018.44490        -6.87834         6.57011
     2018.44763       -11.03960         6.57624
     2018.45037        -4.66486         6.61056
     2018.45311       -11.18212         6.80545
     2018.45585        -3.09638         6.70862
     2018.45859        -5.49064         6.94764
     2018.46089         7.40235         7.98709
     2018.46497        -9.47058        11.73304
     2018.46680        -4.20742         6.77481
     2018.46954        -9.91667         6.74784
     2018.47204        -7.48134         7.24796
     2018.48414       -17.27239        12.52856
     2018.48596        -7.86223         6.63017
     2018.48870        -2.74149         6.61424
     2018.49144        -3.65175         6.76991
     2018.49418        -9.79001         6.82262
     2018.49692        -7.53327         6.76991
     2018.49965        -0.95953         6.68656
     2018.50158         3.61081         9.98264
     2018.51152       -20.76298        12.86687
     2018.51334        -4.47382         6.57991
     2018.51608        -6.06008         6.60811
     2018.51882        -2.10534         6.72823
     2018.52156        -6.98660         7.09228
     2018.52429       -11.32286         6.81404
     2018.52703        -1.81812         6.73559
     2018.52977       -11.44838         6.64978
     2018.53251        -3.42264         6.73804
     2018.53525        -5.65690         6.65836
     2018.53798        -2.42716         6.71720
     2018.54072         0.58258         6.97706
     2018.54346        -9.35468         6.97338
     2018.54620       -10.21394         6.71597
     2018.54893        -9.16020         6.66817
     2018.55167        -5.93246         6.75152
     2018.55441        -3.45272         6.92435
     2018.55715        -4.77297         6.84468
     2018.55989        -8.39823         6.86184
     2018.56262        -4.90249         8.03122
     2018.56536        -8.10775         7.03100
     2018.56810         1.36599         7.10332
     2018.57084         0.72373         6.63385
     2018.57357        -7.68553         6.93539
     2018.57631       -10.17479         7.10454
     2018.57905        -6.01305         7.14744
     2018.58179         0.50269         6.81771
     2018.58453        -0.13857         6.98687
     2018.58726        -4.60583         7.26021
     2018.59000        -5.23009         6.63017
     2018.59274        -1.61735         6.82262
     2018.59548        -2.83861         6.54191
     2018.59822         0.11313         6.60933
     2018.60095        -2.32712         6.63262
     2018.60369        -6.61838         6.59462
     2018.60643        -4.44164         6.64488
     2018.60917         2.02110         6.60933
     2018.61190         1.65584         6.51250
     2018.61464         0.39158         6.81036
     2018.61738         0.15032         6.73191
     2018.62012         2.49306         6.57378
     2018.62286         0.85280         6.64488
     2018.62559         2.12154         6.71843
     2018.62831        -6.68576         7.94174
     2018.63104         3.85397         7.03222
     2018.63381        -0.22124         8.24450
     2018.63655         5.67750         6.62649
     2018.63928         3.31524         7.03100
     2018.64198        -4.56709         7.38034
     2018.64476         3.67073         6.96358
     2018.64750         3.89247         6.87777
     2018.65023         5.83421         6.89003
     2018.65297        12.09495         6.81404
     2018.65571         5.12769         6.85081
     2018.65845         2.39243         6.91700
     2018.66119         4.23717         6.89371
     2018.66392         3.91091         6.59462
     2018.66666        10.60165         6.79320
     2018.66940         4.88839         6.73313
     2018.67209         2.10004         7.49924
     2018.67488         0.88787         6.93293
     2018.67761         4.37361         6.53824
     2018.68035        -6.17165         6.67920
     2018.68258        -1.92679         7.95522
     2018.69227        16.53000        13.40621
     2018.69404         4.10206         6.81771
     2018.69678         5.93880         6.56888
     2018.69952         3.39154         6.54069
     2018.70225         2.97528         6.71475
     2018.70499         3.92802         6.79075
     2018.70773         2.43076         6.74294
     2018.71047         0.58450         6.60320
     2018.71321         4.01124         6.59217
     2018.71594         3.04898         6.52598
     2018.71868        -1.15228         6.58972
     2018.72142        -3.66354         6.55785
     2018.72416         3.53520         6.70984
     2018.72689        -0.10606         6.60320
     2018.72963         1.71569         6.56030
     2018.73237        -1.78457         6.56275
     2018.73509        -2.94586         6.71107
     2018.73785         1.37191         6.68901
     2018.74058         1.74265         6.56030
     2018.74332         5.09739         6.56520
     2018.74606        -1.09087         6.64488
     2018.74880        -4.87613         6.53333
     2018.75154        -0.46439         6.65469
     2018.75427         6.18235         6.65959
     2018.75701         3.66009         6.70984
     2018.75975        12.40383         6.60688
     2018.76249         3.37657         6.53088
     2018.76522        -2.19469         6.81649
     2018.76796         1.89905         6.51495
     2018.77070        10.00779         6.50392
     2018.77344        12.08754         6.55908
     2018.77618        12.13728         6.54069
     2018.77891         3.69402         6.57501
     2018.78165         2.29476         6.83120
     2018.78439         3.05650         6.55662
     2018.78713         2.67624         6.59095
     2018.78987        -1.77902         6.77113
     2018.79260        -1.48528         6.62404
     2018.79534         1.19046         6.64120
     2018.79808        -4.92180         6.59217
     2018.80082         1.52994         6.58114
     2018.80355         3.87868         6.63630
     2018.80629         0.70642         6.78462
     2018.80903         6.07216         6.70862
     2018.81177         5.39690         6.96235
     2018.81456         0.45574         6.71475
     2018.81724         0.12839         6.60320
     2018.81998         8.81613         6.62772
     2018.82272         6.59787         6.67185
     2018.82415        -7.68366        97.70829
     2018.83449        16.31025        10.49991
     2018.83641         9.51257         6.67185
     2018.83915        10.70331         6.57133
     2018.84188        10.11705         6.56153
     2018.84462         8.17179         6.54927
     2018.84736         1.93053         6.74294
     2018.85010         4.11527         6.55662
     2018.85284         0.44501         6.52353
     2018.85557        -4.52225         6.51127
     2018.85831         0.59149         6.56398
     2018.86105         0.61924         6.52843
     2018.86379        -1.73502         6.66694
     2018.86653         3.67072         6.53824
     2018.86926        -6.12654         6.52230
     2018.87200        -2.73580         6.51863
     2018.87474         5.16094         6.67920
     2018.87748         3.97768         6.67062
     2018.88021         0.53742         6.69514
     2018.88295         1.33316         6.69636
     2018.88534         1.64229         7.80200
     2018.92213         6.35500        10.59675
     2018.92402        -0.46273         6.70984
     2018.92676         3.43301         6.62772
     2018.92950         4.44875         6.56030
     2018.93223         0.54349         6.73681
     2018.93497         0.76723         6.60443
     2018.93771         0.81297         6.59707
     2018.94045         5.37571         6.60320
     2018.94318         6.10045         6.55295
     2018.94592         7.13120         6.47327
     2018.94776         5.98938        10.82352
     2018.97330         2.21960         6.60933
     2018.97604        -1.98966         6.59830
     2018.97878         0.53008         6.55050
     2018.98151        -0.75118         6.52966
     2018.98425        -0.44344         6.66449
     2018.98699        -2.31570         6.69759
     2018.98973        -1.86495         7.08003
     2018.99247        -1.43121         6.58849
     2018.99520         1.00253         6.63875
     2018.99794        -0.64573         6.77971
     2019.00068        -3.82999         6.76746
     2019.00342        -6.01225         6.63630
     2019.00616        -5.14051         6.50882
     2019.00889        -2.19077         6.57133
     2019.01163         2.48897         6.57991
     2019.01437         3.65971         6.59340
     2019.01711         3.69045         6.77849
     2019.01984        -7.16281         6.94151
     2019.02258        -6.62007         6.68901
     2019.02532        -1.89033         6.92190
     2019.02806         1.42241         6.65959
     2019.03080        -2.29785         6.64733
     2019.03353        -6.53210         7.52743
     2019.03627       -12.54936         6.46469
     2019.03901        -0.47762         6.47818
     2019.04175        -2.85488         6.51250
     2019.04449         3.42986         6.64120
     2019.04722         1.06760         6.80545
     2019.04996       -11.06166         6.61669
     2019.05213        -6.31390         8.96280
     2019.05909        -3.32186        14.01909
     2019.06097        -2.67460         6.98809
     2019.06365        -2.63396         6.81404
     2019.06639        -1.55822         6.67430
     2019.06913        -1.94548         6.87287
     2019.07186        -2.95674         6.67675
     2019.07460        -4.74400         6.47818
     2019.07734         0.94975         6.66327
     2019.08008        -0.00351         6.54314
     2019.08282        -2.01477         6.67307
     2019.08502        -1.30795         8.49456
     2019.14031         7.01278         6.53946
     2019.14305         2.47852         6.52966
     2019.14579         2.43326         6.53333
     2019.14852         3.53600         6.54191
     2019.15126         1.33274         6.57746
     2019.15400        -5.16452         6.65959
     2019.15674         2.58822         6.63998
     2019.15948         7.61096         6.79810
     2019.16221        -1.50330         6.73926
     2019.16495        -1.80055         6.52475
     2019.16769       -12.48481         6.71965
     2019.17043        -7.82507         6.57501
     2019.17316        -7.03733         6.54314
     2019.17590        -0.57159         6.94151
     2019.17864        10.27715         6.63998
     2019.18138         0.39789         6.51372
     2019.18412        -7.49537         6.54314
     2019.18685        -2.85263         6.59585
     2019.18959        -5.83889         6.48430
     2019.19233        -3.30515         6.88023
     2019.19507         0.65459         6.54314
     2019.19780        -7.20867         6.56520
     2019.20054       -10.31793         6.71965
     2019.20328       -14.56819         6.57991
     2019.20602       -13.54744         6.53946
     2019.20876       -12.92270         6.63507
     2019.21149       -10.39396         6.64978
     2019.21423        -8.79522         6.62282
     2019.21697        -4.90648         6.58727
     2019.21971        -5.88374         6.79075
     2019.22245        -6.25100         6.48798
     2019.22518        -3.56726         6.56275
     2019.22792        -4.88752         6.77726
     2019.23066        -5.11178         6.55172
     2019.23340        -5.42904         6.55172
     2019.23608        -7.24540         6.93661
     2019.23996        -6.53568        13.91000
     2019.24161       -13.73182         6.76868
     2019.24435        -7.79408         6.73313
     2019.24682        -8.57080         7.69291
     2019.25096        -8.39262        15.44098
     2019.25256        -2.82885         6.74662
     2019.25530        -0.82011         6.65959
     2019.25804        -1.92837         6.58604
     2019.26078         6.06737         6.72823
     2019.26351        -5.24989         6.92190
     2019.26625        -7.66015         6.58849
     2019.26899        -3.11541         6.79442
     2019.27173         2.34333         6.81771
     2019.27446        -3.69493         6.54682
     2019.27720        -6.49819         6.64611
     2019.27994        -5.78545         6.52843
     2019.28268        -4.11471         6.56643
     2019.28542         0.64203         6.61301
     2019.28815         5.44077         6.55295
     2019.29089        -1.68049         6.57746
     2019.29363        -8.47874         6.57011
     2019.29637        -8.54500         6.64365
     2019.29911        -4.57226         6.62894
     2019.30184        12.11148         6.59953
     2019.30458        -9.21478         6.64365
     2019.30732        -9.71204         6.56398
     2019.31006        -6.73730         6.67675
     2019.31279       -12.40256         6.83732
     2019.31553        -4.81182         6.75520
     2019.31827       -10.48508         6.62894
     2019.32101       -10.11834         6.74539
     2019.32375       -19.91260         6.54559
     2019.32648       -12.39286         6.54559
     2019.32922       -10.58812         6.57501
     2019.33196        -9.46038         6.74294
     2019.33470        -8.65164         6.74907
     2019.33744        -5.82089         6.53456
     2019.34017       -11.63215         6.59095
     2019.34291        -5.70741         6.65469
     2019.34565        -9.30367         6.74049
     2019.34839        -7.60993         6.70739
     2019.35112        -4.49219         6.68043
     2019.35386       -10.68545         6.62894
     2019.35660        -9.35871         6.77113
     2019.35934        -8.21797         6.57378
     2019.36208        -7.55923         6.60811
     2019.36481        -1.40849         6.69759
     2019.36755        -9.10575         6.53088
     2019.36935         6.53137        13.19660
     2019.38221        -6.62237        12.00148
     2019.38398         2.25770         6.57869
     2019.38672        -0.69956         6.56030
     2019.38937       -13.46896         6.73436
     2019.39219         5.49992         8.01896
     2019.39493        -4.94234         6.55908
     2019.39767        -6.53660         7.01383
     2019.40041        -5.11886         6.57256
     2019.40314        -1.27912         6.66817
     2019.40588        -7.55138         6.59830
     2019.40862        -6.34264         6.67307
     2019.41136       -10.61590         6.93661
     2019.41410        -8.76016         6.60688
     2019.41683       -13.80242         6.68778
     2019.41957        -0.45068         6.65714
     2019.42231        -8.01694         6.65223
     2019.42505       -10.85319         6.64611
     2019.42778        -0.46745         6.83978
     2019.43052         5.92829         6.81158
     2019.43326         3.39703         6.72823
     2019.43600       -16.43523         6.56275
     2019.43874       -17.28449         7.03958
     2019.44147       -12.38875         6.75152
     2019.44421        -5.17401         6.80423
     2019.44695         0.28373         7.23080
     2019.44969       -13.97553         6.91332
     2019.45243        -1.98479         6.76746
     2019.45516       -12.64305         6.87410
     2019.45790        -6.27031         6.79197
     2019.46064       -10.48857         6.83732
     2019.46338        -6.62283         7.27492
     2019.46611       -10.98209         7.10209
     2019.46885        -7.49534         6.91455
     2019.47159        -2.80060         6.75030
     2019.47433        -0.00086         6.78829
     2019.47707        -4.62312         6.83610
     2019.47980        -7.68938         6.83120
     2019.48254        -5.66764         6.80913
     2019.48528        -7.02690         6.75642
     2019.48802        -9.85916         6.97584
     2019.49076        -6.04542         6.68901
     2019.49349        -6.54468         6.79197
     2019.49623       -11.05594         6.93171
     2019.49897        -2.23720         6.71965
     2019.50171        -3.90846         6.63875
     2019.50424        -3.89308         7.21731
     2019.51836        -3.41162         7.41098
     2019.52087        -2.02327         6.69636
     2019.52361       -13.05753         6.67920
     2019.52635        -2.82779         6.71720
     2019.52908        -7.87805         6.96113
     2019.53182        -3.01431         7.09351
     2019.53456        -0.48157         7.18054
     2019.53730        -1.97183         6.94151
     2019.54004        -5.04009         6.84836
     2019.54184        -5.30896        11.12751
     2019.56587       -12.61435        19.86845
     2019.56741        -2.92168         6.57624
     2019.57015        -5.81194         6.68043
     2019.57289        -6.53720         6.81281
     2019.57563        -1.88546         6.78952
     2019.57837        -6.30372         6.78462
     2019.58110       -11.82198         6.65101
     2019.58384        -3.09424         7.02977
     2019.58658        -2.27050         6.64611
     2019.58834         4.93356        11.83355
     2019.61242         2.92624        21.06602
     2019.61396        -2.65209         6.76500
     2019.61670         0.99665         6.66817
     2019.61943        -3.32261         6.82997
     2019.62211         2.63203         6.86061
     2019.62491        -1.63213         6.59462
     2019.62765         0.25461         6.84223
     2019.63039         2.90935         6.58727
     2019.63312        -3.61391         6.62036
     2019.63586         0.51683         6.63875
     2019.63860         0.51557         6.59585
     2019.64134         2.15032         6.83365
     2019.64407         0.09106         6.62404
     2019.64681        -5.12320         6.64243
     2019.64955         1.56054         6.76500
     2019.65229        -1.28972         6.77358
     2019.65503        -5.69498         6.71475
     2019.65776        -1.14724         6.73681
     2019.66050         0.32150         6.95010
     2019.66324         0.10624         6.67062
     2019.66598         3.57598         6.61178
     2019.66872         2.34972         6.73313
     2019.67145        -1.78754         6.64856
     2019.67419        -1.41080         6.80055
     2019.67693        -5.59706         7.15235
     2019.67967         0.96868         6.88268
     2019.68240        -0.31558         6.69514
     2019.68514         3.41917         6.88881
     2019.68788         4.65091         6.82384
     2019.69062         3.61865         6.84468
     2019.69336         6.22839         6.73068
     2019.69609        10.12913         6.58237
     2019.69883        -3.68013         6.66939
     2019.70157        -0.26339         6.65469
     2019.70431         1.72735         6.62527
     2019.70705        -2.71891         6.73191
     2019.70978        -0.72317         6.69759
     2019.71252         1.41957         6.59953
     2019.71526         5.42231         6.62649
     2019.71800        11.03005         7.00648
     2019.72073        15.68079         7.02364
     2019.72347         3.58853         6.53824
     2019.72621         0.43127         6.58849
     2019.72895         1.81502         6.73681
     2019.73169         3.54476         6.63507
     2019.73442         3.85050         6.55785
     2019.73716         7.17724         6.86307
     2019.73990        13.16198         7.06654
     2019.74264        14.61172         7.14744
     2019.74538         5.83046         6.62894
     2019.74811         2.60420         6.83732
     2019.75085         2.23394         7.16093
     2019.75359         2.50768         6.97829
     2019.75633         1.97242         6.82997
     2019.75878         7.81968         7.93071
     2019.76562         5.27852        15.04383
     2019.76728         1.54338         6.88390
     2019.77002        -1.68088         6.83978
     2019.77275        -1.72813         6.89984
     2019.77549         1.80961         6.84468
     2019.77823        -0.44865         6.78094
     2019.78097         2.13109         6.76500
     2019.78371         1.77783         6.79565
     2019.78644        -0.31743         6.73681
     2019.78918         1.11931         6.76500
     2019.79192         3.95605         6.86674
     2019.79466        13.86279         6.82874
     2019.79739         1.36053         6.81404
     2019.80013         9.51727         6.71475
     2019.80287         7.32701         6.69023
     2019.80561         5.87975         6.77481
     2019.80835         0.92849         6.85081
     2019.81108         1.04123         6.72210
     2019.81382        -0.68802         6.74662
     2019.81656         2.68972         6.78217
     2019.81930         2.18946         6.86919
     2019.82203         1.68520         6.79320
     2019.82477         1.46794         6.71843
     2019.82751        -3.95932         6.67307
     2019.83025         0.23742         6.95500
     2019.83299        -2.58084         6.76010
     2019.83572        -1.46110         6.75765
     2019.83846         2.54464         6.78217
     2019.84120         1.97638         6.76133
     2019.84394        -2.81688         7.00525
     2019.84668        -6.63014         6.73313
     2019.84941        -0.35740         6.82139
     2019.85215         0.54634         6.76868
     2019.85489         0.42308         6.76133
     2019.85763        -0.83317         6.81649
     2019.85928        10.85069        15.46304
     2019.88358        27.58677       145.29008
     2019.88501        10.49423         6.79320
     2019.88774        13.65297         6.89003
     2019.89048        10.37471         6.70126
     2019.89322         5.17245         6.73068
     2019.89596         6.31519         6.76255
     2019.89869         9.33193         6.76010
     2019.90143         7.26768         6.75152
     2019.90417         4.75942         6.73926
     2019.90691         5.75916         6.67920
     2019.90965         7.86290         6.74417
     2019.91238        10.66664         6.75152
     2019.91512         5.64638         6.72823
     2019.91786        15.95912         6.64733
     2019.92060        12.57986         6.84468
     2019.92334         9.91760         6.70984
     2019.92607         6.07434         6.69146
     2019.92881         1.34708         6.69146
     2019.93155         3.66682         6.69514
     2019.93429         5.18256         6.76868
     2019.93702         4.11430         6.72701
     2019.93976         1.66304         6.69881
     2019.94250         0.12478         6.70249
     2019.94524         5.32453         6.81036
     2019.94798        -2.95573         6.83120
     2019.95071         4.01301         6.99055
     2019.95345         6.55075         6.69023
     2019.95619         5.72549         6.67797
     2019.95893        -3.41577         6.70739
     2019.96167         0.29897         6.71597
     2019.96440         2.83771         6.85326
     2019.96675        -1.90922         8.26657
     2019.97650        -7.92035        17.63020
     2019.97809        -0.14059         6.87410
     2019.98083         5.77815         6.70862
     2019.98357         2.62689         6.64365
     2019.98631         2.25963         6.67675
     2019.98904         3.49838         6.70617
     2019.99178         0.95512         6.71597
     2019.99452         0.10986         6.70739
     2019.99726         4.42360         6.67185
     2020.00273         8.42908         6.70739
     2020.00547         4.17082         6.82997
     2020.00821        -5.13944         6.81771
     2020.01095         3.90930         6.90106
     2020.01368        -5.81796         6.93661
     2020.01642         0.75678         6.89126
     2020.01916         0.11152         6.75397
     2020.02190        -1.47974         6.83120
     2020.02464        -1.76100         6.82262
     2020.02737        -3.84226         6.65223
     2020.03011        -2.96652         6.88513
     2020.03285       -14.59477         6.70126
     2020.03559        -0.52603         6.65714
     2020.03833        -4.93429         6.58114
     2020.04106        -2.05955         6.70984
     2020.04380        -2.41481         6.73313
     2020.04654         1.20493         6.56275
     2020.04928        -1.96233         6.62894
     2020.05201        -2.66259         6.71352
     2020.05475        -3.27785         6.69268
     2020.05749        -3.03011         6.63017
     2020.06023        -3.76937         6.58727
     2020.06297         3.85937         6.60565
     2020.06570         3.15811         6.78829
     2020.06844         2.77385         6.67062
     2020.07118         6.19859         6.70494
     2020.07392         2.79633         6.59095
     2020.07666         0.06508         6.74049
     2020.07939         3.54282         6.64978
     2020.08213         1.69956         6.54559
     2020.08487        -1.90470         6.60688
     2020.08761        -4.42396         6.68410
     2020.09034         3.51578         6.57869
     2020.09308         3.60352         6.57378
     2020.09582         7.02626         6.55050
     2020.09856        -0.10300         6.56766
     2020.10130        -3.51126         6.45979
     2020.10403        -5.57752         6.55295
     2020.10677        -2.29278         6.57133
     2020.10951        -5.17004         6.75397
     2020.11225        -0.61330         6.57256
     2020.11498         1.41444         6.49411
     2020.11772        -2.93481         6.57869
     2020.12046        -0.45607         6.63262
     2020.12320        -1.42633         6.56520
     2020.12594        -3.59959         6.52475
     2020.12867        -6.03085         6.57378
     2020.13141        -5.24311         6.57378
     2020.13415        -8.16337         6.63017
     2020.13689        -4.80763         6.58359
     2020.13963        -2.85889         6.57501
     2020.14236        -2.62915         6.48921
     2020.14510         1.34659         6.47082
     2020.14784        -2.92767         6.46959
     2020.15058        -7.02393         6.46101
     2020.15331       -11.67419         6.45856
     2020.15605        -8.61545         6.60565
     2020.15879        -7.83771         6.49779
     2020.16153        -0.00296         6.62894
     2020.16427         4.61778         6.50514
     2020.16700         3.77552         6.45611
     2020.16974        -0.91074         6.47205
     2020.17248         1.00600         6.55662
     2020.17522        -3.78026         6.61424
     2020.17796        -7.07452         6.46714
     2020.18069        -8.32978         6.50146
     2020.18343         6.37096         6.49043
     2020.18617         0.97470         6.43527
     2020.18891        -4.97356         6.56398
     2020.19164        -3.53782         6.56520
     2020.19438        -4.67708         6.51617
     2020.19712        -5.19734         6.58114
     2020.19986        -3.52660         6.54314
     2020.20260         7.93714         6.71352
     2020.20533         0.70089         6.58972
     2020.20807        -2.31937         6.56398
     2020.21081        -6.72063         6.61178
     2020.21355        -4.84389         7.15725
     2020.21629        -8.19715         6.88636
     2020.21902        -8.36141         6.73926
     2020.22176        -7.10967         6.57991
     2020.22450        -5.96893         6.52475
     2020.22724       -10.79119         6.65714
     2020.22997        -8.49345         6.62282
     2020.23271        -1.91771         6.58849
     2020.23545        -1.91497         6.55295
     2020.23819        -6.25923         6.50882
     2020.24093        -5.81849         6.59707
     2020.24366        -5.58875         6.63752
     2020.24640        -3.86001         6.65836
     2020.24914       -10.65526         6.70372
     2020.25188        -8.73152         6.55295
     2020.25462       -10.40778         6.54191
     2020.25735        -5.76904         6.78829
     2020.26009        -1.56630         6.58727
     2020.26283         6.69844         6.67062
     2020.26557         3.08518         6.69759
     2020.26830        -7.97808         6.60811
     2020.27104       -10.15734         6.53579
     2020.27378        -9.21960         6.55908
     2020.27652        -3.14086         6.63140
     2020.27926         0.16188         6.89371
     2020.28199        -6.59538         6.70249
     2020.28473        -7.49864         7.03467
     2020.28747        -8.80690         6.65959
     2020.29021        -8.38216         6.57501
     2020.29295        -9.75941         6.54682
     2020.29568        -3.35267         6.57133
     2020.29842        -4.05493         6.59830
     2020.30116        -1.03219         6.57869
     2020.30390        -4.81645         6.58972
     2020.30663        -8.90471         6.57256
     2020.30937        -7.09397         6.78462
     2020.31211        -4.97023         6.86061
     2020.31485        -8.60249         6.64733
     2020.31759        -3.36875         6.53211
     2020.32032        -9.38601         6.63262
     2020.32282       -12.21868         7.11435
     2020.34896       -20.88143        26.63223
     2020.35044       -10.46486         6.54927
     2020.35291       -11.92359         7.33499
     2020.38426       -24.85329        13.75310
     2020.38603         0.14377         6.61424
     2020.38877        -0.97849         6.68410
     2020.39151         0.38125         6.66694
     2020.39425        -3.49401         6.51495
     2020.39698       -10.09627         6.50882
     2020.39972        -5.94253         6.50146
     2020.40246       -13.07579         6.62159
     2020.40520       -11.29005         6.73436
     2020.40794        -5.96831         6.61914
     2020.41067        -6.21457         6.65223
     2020.41341        -4.33383         6.67062
     2020.41615        -8.11409         6.55050
     2020.41889       -11.47935         6.57501
     2020.42162       -12.74160         6.58972
     2020.42436        -7.08486         6.94274
     2020.42710       -13.11712         7.03835
     2020.42984        -7.95538         6.78829
     2020.43258         1.01736         6.73681
     2020.43531        -4.97990         6.61056
     2020.43805        -7.58416         6.61546
     2020.44079       -11.19442         6.65591
     2020.44353        -8.99768         6.68165
     2020.44621       -15.42703         6.73559
     2020.44900        -4.30020         6.63140
     2020.45174        -1.66446         6.52475
     2020.45448        -3.66772         6.50392
     2020.45722         0.31302         6.50882
     2020.45995         0.88876         6.61178
     2020.46269        -9.20050         6.56520
     2020.46543        -7.81375         6.52230
     2020.46817        -6.13101         6.53211
     2020.47091        -3.61327         6.54069
     2020.47364        -7.88953         6.51127
     2020.47638        -6.25279         6.57011
     2020.47912        -7.05405         6.71352
     2020.48186         2.03769         6.65101
     2020.48459       -12.16657         6.70862
     2020.48733         0.02617         6.75030
     2020.49007         5.55691         6.78829
     2020.49281        15.20565         7.08983
     2020.49555         1.74039         6.72333
     2020.49828         3.53613         6.68165
     2020.50102        -8.36113         6.57991
     2020.50376        -5.24039         6.74171
     2020.50650       -10.55665         6.62772
     2020.50924        -9.12990         6.65714
     2020.51197       -10.40916         6.50637
     2020.51471        -6.48842         6.76623
     2020.51745        -4.32668         6.57746
     2020.52019         0.58006         6.97338
     2020.52292        -6.15520         6.81526
     2020.52566        -7.59746         6.67797
     2020.52840        -9.75872         6.76133
     2020.53114        -6.54598         6.71597
     2020.53388         2.61876         6.71965
     2020.53661        -7.35850         6.66817
     2020.53935        -5.92476         6.70617
     2020.54209        -4.40202         6.73436
     2020.54483        -4.46428         6.70126
     2020.54757        -5.55754         6.80545
     2020.55030        -2.50980         6.71965
     2020.55304        -2.47105         6.74907
     2020.55578        -0.80131         6.78829
     2020.55852         7.83343         6.82997
     2020.56125        -0.98183         6.81894
     2020.56399        -5.54509         6.87287
     2020.56673        -5.47035         6.98197
     2020.56947        -5.62161         6.71720
     2020.57221         3.58713         6.86797
     2020.57494        -3.33213         6.70494
     2020.57768       -10.91339         6.92068
     2020.58038        -8.50272         6.96235
     2020.59782        14.40347        13.60723
     2020.59958        -4.68246         6.84223
     2020.60232        -1.16572         6.71720
     2020.60506        -2.56298         6.73559
     2020.60780        -1.32824         6.72455
     2020.61054         3.53150         6.76746
     2020.61327         1.86724         6.74784
     2020.61601        -1.95902         6.74539
     2020.61779         6.74006        12.84971
     2020.69119        -2.66285        25.79748
     2020.69215        -1.08118         8.47372
     2021.30162       -13.18588        18.76403
     2021.30321         1.27888         6.80423
     2021.30595         4.55362         6.94151
     2021.30869         8.00436         6.97338
     2021.31143         0.74710         6.62036
     2021.31416        11.00384         6.64243
     2021.31690        10.01058         6.75030
     2021.31964        17.37832         6.85939
     2021.32238        -3.00494         6.78584
     2021.32512        -8.85620         6.64733
     2021.32785        -8.49346         6.68410
     2021.33059        -5.02072         6.72823
     2021.33333         4.88503         6.79320
     2021.33607         1.02677         6.67430
     2021.33880        -1.51149         6.80668
     2021.34154        -4.57575         6.78217
     2021.34428        -7.08401         6.86919
     2021.34702       -10.27227         6.79687
     2021.34976         3.28147         6.86184
     2021.35249        -3.32179         6.66939
     2021.35523        -3.84905         6.71720
     2021.35797        -1.65431         6.71230
     2021.36071        -6.08957         6.73681
     2021.36344        -9.74783         6.74294
     2021.36618        -7.69909         6.76010
     2021.36892        -3.20235         6.78952
     2021.37166        -5.27661         6.73559
     2021.37440        -4.34887         6.76991
     2021.37713        -6.93512         6.85203
     2021.37987        -6.26338         6.99055
     2021.38261        -1.49664         7.10332
     2021.38535         5.46410         7.08983
     2021.38809         3.24084         7.13396
     2021.39082         4.88258         6.95377
     2021.39356        -7.94668         7.00280
     2021.39630        -3.10194         6.79933
     2021.39904         1.24780         6.95745
     2021.40177         0.84854         6.86674
     2021.40451        -2.46972         6.96235
     2021.40725         0.93002         6.85571
     2021.40999         3.08376         6.79565
     2021.41273        -3.85150         6.75397
     2021.41546        -6.23876         6.75397
     2021.41820        -5.21702         6.95990
     2021.42094         2.96573         6.89861
     2021.42368         0.31647         6.82629
     2021.42642        -0.49979         6.88268
     2021.42915        11.94695         7.05919
     2021.43189         5.17969         6.84713
     2021.43463        -1.19157         6.85449
     2021.43737        -3.26783         6.88513
     2021.44010         0.10091         6.90964
     2021.44284        -7.59135         7.04448
     2021.44558        -9.60961         6.89248
     2021.44832        -7.25287         7.02609
     2021.45106         1.13987         7.13028
     2021.45379        -3.22539         7.11067
     2021.45653         0.18635         6.94887
     2021.45927         1.42009         6.78952
     2021.46201         0.43783         6.77726
     2021.46748         5.30332         6.89126
     2021.47022        -1.25294         6.95868
     2021.47296         6.16080         7.00403
     2021.47570         0.66554         7.10699
     2021.47843        -1.09972         6.92435
     2021.48117        -0.49198         7.07022
     2021.48391        -5.01524         6.87900
     2021.48665        -0.32250         6.85571
     2021.48939        -5.13476         6.91577
     2021.49212        -3.18202         6.82384
     2021.49486         0.18872         6.94274
     2021.49760        -3.66754         7.13396
     2021.50034         1.45520         7.10577
     2021.50308        -4.28506         6.95500
     2021.50581        -3.26832         6.88390
     2021.50855         3.60543         7.15848
     2021.51129        -3.48783         6.99422
     2021.51403         1.19391         6.85694
     2021.51676         6.95865         6.86674
     2021.51950         3.99139         7.01261
     2021.52224        -3.63687         6.86797
     2021.52498        -0.39313         6.88145
     2021.53045         9.23635         6.95500
     2021.53593         6.86783         7.16828
     2021.53867        12.58557         7.46737
     2021.54141         6.97731         7.11803
     2021.54414        -2.93095         7.00403
     2021.54688        -2.78921         6.77971
     2021.54962        -2.36747         7.06287
     2021.55236         4.10828         6.96235
     2021.55509         8.18202         7.11680
     2021.55783        -3.04624         7.04325
     2021.56057         4.76650         6.79442
     2021.56331         3.19624         6.91823
     2021.56605         2.29598         6.88758
     2021.56878         3.38772         6.92558
     2021.57152        -1.34554         6.81036
     2021.57426         2.84820         6.82752
     2021.57700         8.16294         7.14622
     2021.57974         8.85768         6.91823
     2021.58247        -7.43658         6.83120
     2021.58521         1.38816         6.89248
     2021.58795         2.01890         7.10332
     2021.59069         1.10564         6.93784
     2021.59342         3.79339         6.87777
     2021.59616         8.38813         7.18544
     2021.59890         3.71287         6.84836
     2021.60164        12.11461         6.74171
     2021.60438         7.73835         7.16583
     2021.60711         8.49309         6.82752
     2021.60985        10.39083         6.81404
     2021.61259        -0.43143         6.86552
     2021.61533        -4.87469         6.73804
     2021.61807         7.72605         6.84713
     2021.62080         4.81679         6.93539
     2021.62354         6.55453         6.83365
     2021.62628         1.81227         6.92926
     2021.62902        12.77701         6.84958
     2021.63175        18.10775         6.93416
     2021.63449        16.28149         6.77849
     2021.63723         6.13324         7.10699
     2021.63997        16.09398         7.04938
     2021.64271        11.57672         7.03467
     2021.64544         9.70846         6.72578
     2021.64818         4.99020         6.91332
     2021.65092         1.71794         6.84836
     2021.65366         1.64268         6.85449
     2021.65639         2.54542         6.92313
     2021.65913         1.26816         6.95622
     2021.66187        10.98690         6.79687
     2021.66461         6.89964         6.82997
     2021.66735         4.69538         6.79933
     2021.67008         3.54412         7.17931
     2021.67282        15.43286         7.46614
     2021.67556        10.72160         7.15235
     2021.67830         6.99434         6.94151
     2021.68104         7.98909         6.80178
     2021.68377         5.33283         6.77236
     2021.68651         5.03157         6.89616
     2021.68925         9.49831         6.87655
     2021.69199         7.09605         6.84223
     2021.69472         9.28779         7.06532
     2021.69746        -3.12847         6.94151
     2021.70020         7.80627         6.91700
     2021.70294        11.17601         6.86797
     2021.70568        11.91175         6.74049
     2021.70841        13.24749         6.90597
     2021.71115         7.12423         6.71352
     2021.71389         5.20897         6.91945
     2021.71937        19.47845         6.83365
     2021.72210         1.01919         6.73926
     2021.72758         1.15168         6.78217
     2021.73032         0.47442         7.08493
     2021.73305        10.86116         6.85081
     2021.73579        14.99990         6.71720
     2021.73853        17.40264         6.75030
     2021.74127        22.09238         7.48943
     2021.76865        38.48079         6.75030
     2021.77138        37.62853         6.95990
     2021.83983        33.91704         6.78952
     2021.84257        38.11678         7.01996
     2021.84531        40.80152         6.99913
     2021.85352         4.45574         6.82629
     2021.85626         0.69049         6.70249
     2021.85900         4.42923         6.77971
     2021.86721         3.54045         7.00525
     2021.86995         6.65019         7.04325
     2021.87269         8.41093         6.87655
     2021.87542         8.84267         6.99422
     2021.87816         4.02041         6.75152
     2021.88090         3.38415         6.79810
     2021.88364         1.03089         6.82262
     2021.88637        -1.53937         6.76133
     2021.88911        -4.97363         6.80055
     2021.89185        -2.97389         6.79442
     2021.89459         2.52785         6.79687
     2021.89733        -3.15340         6.77971
     2021.90006        -1.61266         6.82384
     2021.90280        -4.25592         6.79075
     2021.90828         3.74456         6.80178
     2021.91102         7.76430         6.81526
     2021.91375         3.99004         6.80178
     2021.91649         0.15178         6.75152
     2021.91923        -0.98848         6.85694
     2021.92197        -7.86474         7.01874
     2021.92470        -4.08100         6.93048
     2021.92744        11.06774         7.00158
     2021.93018         0.60148         6.80668
     2021.93292         5.61422         6.92926
     2021.93566         6.91396         7.10577
     2021.93839         6.09270         7.02119
     2021.94113        13.46745         7.21118
     2021.94387        14.79919         6.80423
     2021.94661         2.83393         6.75030
     2021.94935         1.93067         6.81281
     2021.95208        -4.33359         6.82016
     2021.95483        10.74816         7.02854
     2021.95756        13.58889         7.03222
     2021.96030         1.58663         6.98319
     2021.96303         5.32737         6.94274
     2021.96577         4.23811         7.00280
     2021.96851         7.46885         7.04448
     2021.97125        12.32859         7.13273
     2021.97399        11.10233         6.95010
     2021.97672         2.94207         7.00403
     2021.97946         4.37881         6.96235
     2021.98220         6.78955         7.01506
     2021.98494        10.76230         7.09719
     2021.99315        10.52952         6.84468
     2021.99589        12.02226         6.82262
     2021.99863         3.28800         6.93539
     2022.00136         3.23474         6.92435
     2022.00410        -4.01452         6.79197
     2022.00684        -2.74078         6.77726
     2022.00958         0.08496         6.82262
     2022.01232         0.11670         6.93661
     2022.01505         4.66244         6.92068
     2022.01779         4.33718         6.99790
     2022.02053         6.01392         6.92803
     2022.02327         4.15366         7.12293
     2022.02600        -6.69660         6.78707
     2022.02874        -5.73085         6.96603
     2022.03148        -2.92311         6.94151
     2022.03422        -4.02737         6.90964
     2022.03696        -3.51163         6.78584
     2022.03969       -10.73189         6.79197
     2022.04243         3.72885         6.90352
     2022.04517        -2.89741         6.96480
     2022.04791         0.49733         6.88881
     2022.05065        -1.45493         6.78707
     2022.05338        -1.77119         6.92926
     2022.05612       -10.85845         6.88758
     2022.05886       -13.30471         6.91455
     2022.06160       -12.59097         6.82997
     2022.06433        -0.48523         6.90964
     2022.06707        -9.56049         6.76133
     2022.06981        -2.75075         6.88268
     2022.07255        -8.01800         6.76133
     2022.07529        -6.84426         6.75397
     2022.07802        -6.48752         6.71720
     2022.08076         0.87922         6.78339
     2022.08350         1.92096         6.77726
     2022.08624        -1.55130         6.73313
     2022.08898         0.01344         6.73436
     2022.09171        -4.66882         6.74171
     2022.09445        -9.39608         6.73436
     2022.09719        -5.62234         6.78094
     2022.09993       -10.95460         6.85571
     2022.10266       -10.98586         6.85571
     2022.10540        -3.36912         6.86552
     2022.10814        -0.36538         6.85939
     2022.11088        -4.50964         6.70249
     2022.11362        -2.46890         6.73681
     2022.11635        -0.71915         6.67430
     2022.11909        -4.93641         6.74662
     2022.12183         0.79333         6.80178
     2022.12457         5.49907         6.94029
     2022.12731        -1.99919         6.74049
     2022.13001        -8.44650         7.60833
     2022.13278         0.16529         6.77726
     2022.13552        -0.62897         6.80178
     2022.13826         3.92177         6.84223
     2022.14099        -4.34049         6.72701
     2022.14373        -1.29375         6.66572
     2022.14647        -2.03001         6.71843
     2022.14921         1.71573         7.02487
     2022.15195        -6.34353         7.07880
     2022.15468        -2.19679         6.75030
     2022.15742        -4.17005         6.71720
     2022.16016        -5.38230         6.70372
     2022.16290        -4.86556         6.75520
     2022.16564        -1.22382         6.74294
     2022.16837         0.99092         6.74171
     2022.17111         1.95366         6.77726
     2022.17385        -0.35760         6.73681
     2022.17659        -2.02186         6.76010
     2022.17932        -3.80112         6.77604
     2022.18206        -8.82038         6.74662
     2022.18480        -2.82364         6.71965
     2022.18754         0.63010         6.79810
     2022.19028        -3.41616         6.83610
     2022.19301        -5.05342         6.74049
     2022.19575         3.31832         6.80178
     2022.19849        -2.22294         6.76500
     2022.20123        -2.52819         6.76010
     2022.20397         3.85955         6.76255
     2022.20670        -2.18171         6.90842
     2022.20944         0.67903         6.84713
     2022.21218         4.49577         6.79687
     2022.21492         0.72551         6.78462
     2022.21765        -4.39375         6.73313
     2022.22039        -4.94801         6.74417
     2022.22313        -6.73227         6.76010
     2022.22587        -2.15953         6.90964
     2022.22861        -4.93279         6.85816
     2022.23134         0.92595         6.76500
     2022.23408         1.78969         6.74417
     2022.23682         4.94043         6.96235
     2022.23956        -0.34483         6.73926
     2022.24230         1.34291         6.77726
     2022.24503         6.59866         6.83855
     2022.24777         7.01340         6.74417
     2022.25051        -4.96186         6.76991
     2022.25325         2.89288         6.77726
     2022.25598         4.66862         6.76133
     2022.25872         0.95936         6.83732
     2022.26146        -1.34890         6.78094
     2022.26420        -3.69516         6.69514
     2022.26694        -1.33742         6.92558
     2022.26967        -0.05468         6.88636
     2022.27241         5.31106         6.75642
     2022.27515         6.50880         6.96235
     2022.27789         2.53054         6.73436
     2022.28062        -2.34572         6.70984
     2022.28336        -1.87398         6.75642
     2022.28610        -9.00024         6.92803
     2022.28884        -2.52449         6.90106
     2022.29158        -2.67775         6.77849
     2022.29431        -8.65801         6.68043
     2022.29705        -0.57527         6.73436
     2022.29979         2.58547         6.75888
     2022.30253        -3.21779         6.91700
     2022.30527         0.17395         6.87287
     2022.30800        -0.09431         6.73804
     2022.31074        -5.47157         6.74294
     2022.31348        -4.28083         6.76133
     2022.31622        -5.33009         6.78952
     2022.31895       -15.51135         7.18054
     2022.32169         5.19639         7.14009
     2022.32443         0.08913         6.70249
     2022.32717        -7.05713         6.80913
     2022.32991        -0.91239         6.75642
     2022.33264        -9.91364         6.99422
     2022.33538       -17.59990         7.19280
     2022.33812        -1.65416         7.03345
     2022.34086        -0.15242         6.80545
     2022.34360        -2.68568         6.84223
     2022.34633        -4.54394         6.86307
     2022.34907         2.69680         6.86184
     2022.35181         2.31954         6.85326
     2022.35455         4.68528         6.71230
     2022.35728        -1.55398         6.70249
     2022.36002         3.28976         6.68288
     2022.36276        -8.14150         6.73559
     2022.36550         0.68024         6.79687
     2022.36824        -0.72302         6.69514
     2022.37097        -0.50828         6.72946
     2022.37371        -5.09354         6.83732
     2022.37645        -0.94379         6.71475
     2022.37919         3.09295         6.89861
     2022.38193        -0.53831         6.84836
     2022.38466        -1.03657         6.65591
     2022.38740       -10.23083         6.68043
     2022.39014        -8.74509         6.71597
     2022.39288        -0.07235         6.77236
     2022.39561        -3.52461         6.69391
     2022.39835        -1.13687         6.74417
     2022.40109        -4.14413         6.91577
     2022.40383        -4.55639         6.67920
     2022.40657         0.47635         6.66694
     2022.40930        -6.06691         6.71597
     2022.41204        -7.37617         6.68533
     2022.41478       -13.86343         6.57133
     2022.41752        -5.17369         6.82139
     2022.42026         1.72906         6.79075
     2022.42299        -0.90620         6.69391
     2022.42573        -6.07946         6.61669
     2022.42847        -3.63072         6.76746
     2022.43121        -3.39398         6.81158
     2022.43394         0.08276         6.72823
     2022.43668        -4.91950         6.66081
     2022.43942        -3.48876         6.60443
     2022.44216         2.07198         6.79810
     2022.44490        -1.27528         7.05429
     2022.44763        -2.91154         6.69268
     2022.45037        -3.26680         6.64611
     2022.45311        -7.82406         6.61178
     2022.45585        -8.21032         6.63507
     2022.45859       -12.69158         6.92435
     2022.46132         0.01216         6.80300
     2022.46406        -2.79909         6.77726
     2022.46680        -0.35435         6.62282
     2022.46954        -4.82561         6.59340
     2022.47227       -19.15587         6.60811
     2022.47501         6.05787         6.78339
     2022.47775        -9.20539         6.93171
     2022.48049       -13.85865         6.75765
     2022.48323        -1.77891         6.66572
     2022.48596         0.26883         6.68533
     2022.48870        -0.35343         6.72946
     2022.49144        -1.37169         6.81036
     2022.49418        -0.23795         6.79197
     2022.49692        -5.74821         6.80300
     2022.49965        -0.22147         6.75275
     2022.50239        -5.96773         6.70004
     2022.50513        -0.88398         6.97093
     2022.50787         5.88576         6.92068
     2022.51060         2.14950         6.77604
     2022.51334        -5.98876         6.67920
     2022.51608        -2.28102         6.74294
     2022.51882        -8.00028         6.73681
     2022.52156        -1.33554         6.63262
     2022.52429        -1.80680         6.62649
     2022.52703         3.47594         6.63630
     2022.52977         8.64568         6.70004
     2022.53251         5.71642         6.93784
     2022.53525        -3.10284         6.90842
     2022.53798         7.69890         7.02364
     2022.54072         2.60764         6.69514
     2022.54346         0.26738         6.68656
     2022.54620        10.38212         6.66449
     2022.54893         0.63187         6.68533
     2022.55167         8.54361         6.81649
     2022.55441         9.07435         6.76746
     2022.55715         9.61409         6.64120
     2022.55989         1.47983         6.60320
     2022.56262         3.63057         6.57256
     2022.56536        -1.32369         6.57746
     2022.56810         1.01805         6.66572
     2022.57084         0.77179         6.70126
     2022.57357        -1.86047         6.90597
     2022.57631         2.25827         6.72823
     2022.57905         2.48101         6.69514
     2022.58179         8.76575         6.57746
     2022.58453        15.77449         6.90964
     2022.58726         1.22723         6.79933
     2022.59000         7.81497         6.75765
     2022.59274        -5.14128         6.60565
     2022.59548        -2.55254         6.58972
     2022.59822        -5.32380         6.67552
     2022.60095       -10.43106         6.53456
     2022.60369        -1.82132         6.60443
     2022.60643         0.23742         6.57869
     2022.60917         7.18116         6.76378
     2022.61190        13.06790         6.77849
     2022.61464        14.41064         6.65714
     2022.61738         1.99238         6.66449
     2022.62012        -1.78688         6.80423
     2022.62286         3.21186         6.64611
     2022.62559         1.34560         6.64120
     2022.62833         4.30334         6.59707
     2022.63107         9.57608         6.64365
     2022.63381         9.15582         6.59340
     2022.63655         8.99457         6.62649
     2022.63928         3.72531         6.77971
     2022.64202        -2.59795         7.33989
     2022.64476         3.26579         7.13886
     2022.64750         6.39753         6.85571
     2022.65023         2.53127         6.93539
     2022.65297        14.05001         6.77113
     2022.65571        20.18075         6.83487
     2022.65845        15.61649         6.68288
     2022.66119        11.18923         6.51985
     2022.66392        10.88197         6.65346
     2022.66666        12.42071         6.61301
     2022.66940         8.23945         6.53579
     2022.67214        14.37719         6.57869
     2022.67488        10.35493         6.53946
     2022.67761        15.15367         6.47205
     2022.68035        12.90542         6.50024
     2022.68309        14.33116         6.55540
     2022.68583        13.60090         6.86552
     2022.68856        17.73564         6.73068
     2022.69130        10.57738         6.58114
     2022.69404        10.95912         6.59095
     2022.69678        12.61386         6.63262
     2022.69952         3.96560         6.67430
     2022.70225        11.92134         6.81404
     2022.70499        15.53908         6.85081
     2022.70773         6.30582         6.67920
     2022.71047        11.23156         6.50024
     2022.71321        17.82430         6.56030
     2022.71594        10.89904         6.57869
     2022.71868        13.43878         6.56030
     2022.72142        13.11552         6.65469
     2022.72416        11.14327         6.83487
     2022.72689        17.17701         6.66204
     2022.72963        13.37375         6.48798
     2022.73237         7.57249         6.52721
     2022.73511         9.42023         6.52598
     2022.73785         9.78097         6.48921
     2022.74058        17.44571         6.70126
     2022.74332        14.99945         6.87532
     2022.74606         7.13919         6.64611
     2022.74880         3.37293         6.56030
