# ================= DQRFIT RESULTS ================
# INPUT FILE: series/IDSS.rad
# OUTPUT: LDETRENDED
# FILTER FUNCTION: f(t)
# f(t)=+line(t)+annual(t)
# line(t)=+P 1+P 2*t
# annual(t)=+P 3*sin(2*pi*t+P 4)
# heav(t)=(t<0?0:1)
# TOTAL OBSERVATIONS MTOT= 2544
# INITIAL TIME INTERVAL= 2012.3966 - 2004.9035 =  7.4932
# TOTAL OBSERVATIONS AFTER PREFILTER M= 2540
# TIME-SPAN= 2012.3966 - 2004.9035 =  7.4932
# OBSERVATIONS: USED M=  2540 REJECTED MTOT-M=     4 %USED=   99.8428
# N=  4 PARAMETERS
# MAXSIG= 175.00000
# MAXRES=  18.05777
# SCALE FACTOR FOR LENGTHS: SCL=  10.00000
# SCALE FACTOR FOR SIGMAS: SCLSIG=   1.00000
# CHI^2=   1983.072 DOF=  2536 CHI^2/DOF=   0.78197
# RMS=      5.084 SDEV=      5.085 MEAN=    0.02262
#  P #       PARAMETER +-    SIGMA %error PARAMETER NAME
# P 1 =      3899.34657 +-   90.490   2.32 YZERO                              
# P 2 =        -1.93571 +-    0.045   2.33 SLOPE                              
# P 3 =         2.70426 +-    0.143   5.27 ANNUAL AMPLITUDE                   
# P 4 =         2.96242 +-    0.073   2.48 ANNUAL PHASE                       
#       T            LDETRENDED       SIG_OBS
     2004.90349         5.66326         4.87774
     2004.90622         0.90255         4.90073
     2004.90896         2.47085         4.85210
     2004.91170         3.10915         4.86094
     2004.91444         7.53245         4.85033
     2004.91718         1.88175         4.98386
     2004.91991         7.95505         5.24030
     2004.92265         3.72235         4.93787
     2004.92539         8.97465         4.92638
     2004.92813        13.87195         5.07936
     2004.93086         8.42025         4.93699
     2004.93360        14.54755         4.98828
     2004.93634        12.48985         5.11650
     2004.93908         5.18515         5.22438
     2004.94182        11.00145         5.10324
     2004.94455         3.67775         5.07229
     2004.94729         6.17805         4.91665
     2004.95003         2.14335         4.94230
     2004.95277         2.57765         4.93611
     2004.95551        -1.55405         4.97767
     2004.95824        -3.25975         5.30309
     2004.96098        -1.52245         4.86006
     2004.96372        -0.47715         4.86448
     2004.96646         0.31215         4.81673
     2004.96919         6.54345         5.04310
     2004.97193         4.37775         5.01746
     2004.97467         1.08605         5.04134
     2004.97741        -4.10465         4.84591
     2004.98015         1.50765         4.81673
     2004.98288         4.07495         5.12092
     2004.98562         8.40625         4.96971
     2004.98836        12.76255         4.99005
     2004.99110         8.12785         5.07317
     2004.99384         7.20314         5.05372
     2004.99657        11.07244         5.02719
     2004.99931         5.65474         5.14215
     2005.00479        -2.06866         5.08290
     2005.00752         5.67464         5.04045
     2005.01026         4.18894         5.05195
     2005.01300         7.33824         5.00066
     2005.01471        10.38556        12.51093
     2005.01745        15.71585         9.37789
     2005.02121         6.91514         5.00773
     2005.02395        -0.86656         4.99182
     2005.02566         2.80575         9.19131
     2005.02943         5.81104         4.93522
     2005.03216         2.44934         5.00066
     2005.03490        -4.37336         5.04841
     2005.03679       -14.15572         7.77025
     2005.04038       -11.72876         5.25003
     2005.04312        -7.50146         5.00154
     2005.04585        -7.28416         5.00154
     2005.04859        -1.37986         5.10766
     2005.05036        -2.14244         8.91983
     2005.05407        -3.60726         5.12269
     2005.05681        -3.51896         4.99712
     2005.05954        -4.92066         4.99624
     2005.06228        -3.58736         5.03780
     2005.06502        -6.67106         5.00685
     2005.06776        -2.70176         5.03072
     2005.06992        -7.60757         7.03453
     2005.07323        -1.98116         4.98739
     2005.07597        -4.65786         5.12711
     2005.07871        -4.23056         5.03691
     2005.08145        -0.57327         4.92726
     2005.08418        -4.78497         4.94406
     2005.08692        -3.90467         4.88305
     2005.08966        -9.67037         5.02100
     2005.09240        -4.23607         4.94672
     2005.09514        -1.26777         4.83441
     2005.09787         1.05953         4.86183
     2005.10067        -5.11106         4.96794
     2005.10335         1.30013         4.87244
     2005.10609        -4.06357         4.95025
     2005.10882         3.76573         4.94672
     2005.11156        -3.38897         4.86536
     2005.11430        -3.29667         4.83441
     2005.11704         0.84663         4.86094
     2005.11978         0.25593         5.04045
     2005.12251        -0.74777         4.84768
     2005.12525        -1.87447         4.87155
     2005.12799        -4.88717         4.86713
     2005.13073        -3.02587         4.97501
     2005.13347        -4.26357         4.88128
     2005.13620        -1.79027         4.85121
     2005.13894        -0.49897         5.01834
     2005.14168        -2.51067         4.89631
     2005.14442        -2.79637         4.89720
     2005.14715        -7.09007         4.97678
     2005.14989        -1.20277         4.97855
     2005.15263        -3.48247         4.99624
     2005.15537        -2.03317         5.06610
     2005.15811         0.70813         5.01746
     2005.16084         2.47743         4.97944
     2005.16358         5.27473         4.97148
     2005.16632         5.06103         5.17398
     2005.16906         4.41132         5.01569
     2005.17185         2.47474         5.12181
     2005.17453        -2.39408         5.19874
     2005.17727        -3.50278         5.04841
     2005.18001        -2.91948         5.03957
     2005.18263        -2.15240         5.28894
     2005.18548        -0.74188         5.10501
     2005.18822         0.90942         5.02365
     2005.19096        -0.70428         5.00773
     2005.19370        -0.86098         5.24207
     2005.19644        -0.29368         5.00066
     2005.19917        -0.65738         5.00154
     2005.20191         3.11192         5.11031
     2005.20465         1.44722         5.07140
     2005.20739         4.45252         4.99005
     2005.21013         0.39082         5.22438
     2005.21286         1.93512         5.18636
     2005.21560        -0.67958         4.94406
     2005.21834         0.06872         4.97413
     2005.22108         3.20802         5.07671
     2005.22381         7.06232         4.98120
     2005.22655         0.22762         4.99447
     2005.22929         4.47392         4.97413
     2005.23117         7.39856         9.34871
     2005.23813         9.71303         7.03276
     2005.24024        15.43112         5.09528
     2005.24298         4.11542         4.97767
     2005.24572         3.77472         5.13153
     2005.25667        14.15891         5.24561
     2005.25941         7.92021         5.05902
     2005.26214        -0.08449         5.10943
     2005.26488         7.79181         5.18990
     2005.26762        12.50211         5.08467
     2005.27036        12.04841         5.03957
     2005.27310         8.59471         5.14480
     2005.27572         4.24279         5.32519
     2005.27851         2.55720         5.22615
     2005.28131        -0.52939         5.08555
     2005.28405        -3.30009         5.32166
     2005.28679         3.58721         5.09262
     2005.28952         3.69751         5.02100
     2005.29226         7.13481         5.14391
     2005.29500         8.24711         4.97413
     2005.29774         2.00241         5.01127
     2005.30047         0.09971         4.97767
     2005.30321         3.13701         5.00331
     2005.30595         0.14331         4.98828
     2005.30869         1.74761         5.05195
     2005.31143         4.04591         5.12181
     2005.31416         7.79821         5.02188
     2005.31690         2.20351         5.00950
     2005.31964        -1.25619         5.12092
     2005.32238         2.56511         5.14922
     2005.32512         1.61541         5.03426
     2005.32785        -5.06629         5.17310
     2005.33059         2.68101         5.02100
     2005.33333         2.08831         5.00066
     2005.33607         4.83561         5.12004
     2005.33880         1.69891         5.37294
     2005.34154         0.85521         5.05106
     2005.34428         3.10150         5.30485
     2005.34702         2.52380         5.00950
     2005.34976         3.89810         5.03161
     2005.35249         6.77140         5.12004
     2005.35523         3.96870         5.19255
     2005.35797       -19.77100         5.35703
     2005.36071        -6.18070         5.14568
     2005.36344        -4.57940         5.20316
     2005.36618         0.38290         5.26771
     2005.36892         5.16520         5.31989
     2005.37166         3.97850         5.23146
     2005.37440         6.17180         5.43308
     2005.37713         7.16910         5.21996
     2005.37987         6.29540         5.20139
     2005.38261         6.37370         5.25887
     2005.38535         4.04400         5.35084
     2005.38809        -6.72270         5.41539
     2005.39082        -2.02540         5.24030
     2005.39356        -2.51110         5.21200
     2005.39630        -1.85880         5.31281
     2005.39904        -3.70550         5.14480
     2005.40177        -5.70420         5.19697
     2005.40451        -2.48590         5.19078
     2005.40725        -4.51960         5.19078
     2005.40999        -2.13730         5.19255
     2005.41273        -6.17200         5.29778
     2005.41546       -14.00770         5.28009
     2005.41820        -4.06140         5.01304
     2005.42094        -3.52710         5.03515
     2005.42368        -4.99480         5.03603
     2005.42642        -1.69850         5.05283
     2005.42915        -4.23620         5.24649
     2005.43189        -3.16791         5.00331
     2005.43457        -2.70972         5.10677
     2005.43737        -1.91331         5.28452
     2005.44010        -4.67901         5.12446
     2005.44284        -5.11071         5.13153
     2005.44558        -4.53141         5.34907
     2005.44832        -9.66811         5.12711
     2005.45106       -12.84781         5.09174
     2005.45368        -9.13473         5.25622
     2005.45653         0.95179         5.16779
     2005.45927        -3.43491         5.18724
     2005.46201        -4.26861         5.00243
     2005.46475        -6.91131         5.04576
     2005.46748       -13.59101         5.06079
     2005.47022       -10.46071         5.07759
     2005.47296       -11.07141         5.11915
     2005.47570        -7.38811         5.18017
     2005.47843        -3.08481         5.15806
     2005.48117       -15.44751         5.09793
     2005.48391         2.76079         5.10589
     2005.48665        -2.85091         5.04134
     2005.48939        -6.34361         5.20581
     2005.49212         1.77469         5.02984
     2005.49486        -3.54301         5.02542
     2005.49760        -4.67171         5.00508
     2005.50034        -9.99141         5.05106
     2005.50308        -4.03911         5.07671
     2005.50581        -4.69181         5.15010
     2005.50855        -7.47351         4.98474
     2005.51129         0.10179         5.07759
     2005.51403        -7.74091         5.01392
     2005.51676         1.43339         4.98297
     2005.51950         4.06468         5.14391
     2005.52224        -0.30302         5.03868
     2005.52498         0.36928         5.09174
     2005.52772        -5.44542         5.02011
     2005.53045        -4.59212         5.25003
     2005.53319         1.98318         4.99270
     2005.53593         0.77048         5.02542
     2005.53867         5.73578         5.07759
     2005.54141         5.55008         5.09793
     2005.54414        -1.00562         5.01039
     2005.54688         2.83568         5.04929
     2005.54962         3.49198         5.03161
     2005.55236         1.56428         5.07229
     2005.55509         1.61658         5.05991
     2005.55783        -6.92412         5.28275
     2005.56057       -10.18282         5.27390
     2005.56331        -3.68452         5.28540
     2005.56605         1.68078         5.40124
     2005.56878         3.66808         5.15541
     2005.57152        -2.01662         5.24119
     2005.57426         1.19068         5.14391
     2005.57700         1.99098         5.24207
     2005.57974         1.86428         5.46049
     2005.58247         1.35058         5.23323
     2005.58521        -4.71112         5.41362
     2005.58795         5.15418         5.49851
     2005.59069        -4.81052         6.05385
     2005.59342        -2.97222         5.11473
     2005.59616         7.99608         5.02984
     2005.59890        12.65038         5.06256
     2005.60164        -2.20432         5.07494
     2005.60438         0.21898         5.26771
     2005.60711         2.97728         5.12446
     2005.60985         1.94957         5.17840
     2005.61259         1.78887         5.28982
     2005.61533         2.64117         5.04222
     2005.61807        -3.43253         5.03957
     2005.62080         7.80877         5.03338
     2005.62354         2.66707         5.28894
     2005.62628         0.06537         5.11562
     2005.62902         2.55567         5.16691
     2005.63175         0.38097         5.05195
     2005.63449         0.27927         5.16337
     2005.63723        -2.40143         5.06167
     2005.63997        -0.97813         5.05902
     2005.64271         3.64517         5.13684
     2005.64544         1.11647         5.22438
     2005.64818         1.15277         5.04310
     2005.65092         2.33707         5.04134
     2005.65366         5.58537         5.22969
     2005.65639         4.02767         5.07759
     2005.65913        -0.62303         5.07494
     2005.66187         3.08227         5.10324
     2005.66461         1.98657         4.99889
     2005.66735         0.78187         5.02542
     2005.67008         7.15417         5.03515
     2005.67282        -4.63753         5.05460
     2005.67556         9.79577         5.13507
     2005.67830         3.98807         4.99093
     2005.68104        -1.74463         4.97590
     2005.68377         1.38967         5.25180
     2005.68651         4.61597         5.04487
     2005.68925         7.08927         5.12800
     2005.69199         5.81157         5.04310
     2005.69472         4.98287         5.12446
     2005.69746         0.27516         5.07671
     2005.70020         5.60246         5.16160
     2005.70294         0.64876         5.15187
     2005.70568        -3.57494         5.15895
     2005.70841         4.00636         5.23500
     2005.71115         1.46466         5.07759
     2005.71389         3.12896         4.98916
     2005.71663         2.88926         5.14215
     2005.71937         2.39656         5.27744
     2005.72210         9.15486         5.17486
     2005.72484         2.08916         4.97944
     2005.72758         2.25646         5.01392
     2005.73032         0.45276         5.33050
     2005.73305         0.03806         5.12534
     2005.73579         1.61936         5.10235
     2005.73853         5.27966         5.32077
     2005.74127         1.16896         5.18636
     2005.74401         4.99926         5.10412
     2005.74674         7.42356         5.01481
     2005.74948         9.97586         4.98828
     2005.75222         0.65616         5.24472
     2005.75496        -0.28054         5.09086
     2005.75770         3.57176         5.05372
     2005.76043         1.16006         4.97501
     2005.76317         3.85936         4.96087
     2005.76597         7.91477         5.09439
     2005.76865        11.13096         4.98120
     2005.77138         6.58226         4.95114
     2005.77412         4.10456         4.93168
     2005.77686         4.96386         5.20228
     2005.77960         3.59816         5.09439
     2005.78234         1.25746         5.33934
     2005.78507         1.99675         4.99358
     2005.78781        13.10205         4.95114
     2005.79055         6.41835         4.96971
     2005.79329         3.86765         5.18548
     2005.79603         5.15795         5.12711
     2005.79876         7.74025         5.14215
     2005.80150        10.22155         5.12534
     2005.80424         6.94585         5.17575
     2005.80698         4.50715         5.03515
     2005.80971         4.64145         5.00862
     2005.81245         3.13775         5.04222
     2005.81519         3.68105         5.27037
     2005.81793         5.44635         5.11562
     2005.82067         8.34865         5.00685
     2005.82340         8.36995         4.99005
     2005.82614         7.53125         4.98386
     2005.82888         4.66955         5.00508
     2005.83162         0.59485         5.44457
     2005.83436         4.24915         5.11739
     2005.83709         2.23745         5.15276
     2005.83983        -3.57725         5.16602
     2005.84257        -0.55595         5.24914
     2005.84531        -4.58965         5.24826
     2005.84804        -0.30935         5.22969
     2005.85078         1.58895         5.19962
     2005.85352         3.21525         5.40832
     2005.85626         1.43555         5.44811
     2005.85900        -1.82415         5.09970
     2005.86173         0.59915         5.35526
     2005.86447         3.65945         5.13153
     2005.86721         3.57075         5.14834
     2005.86995        -5.10495         5.07848
     2005.87269        -3.34566         5.00950
     2005.87542        -7.51736         5.24384
     2005.87816        -3.80606         4.99270
     2005.88090        -4.92976         5.20847
     2005.88364        -1.30946         5.02807
     2005.88637        -5.40716         5.17575
     2005.88911        -6.78286         5.18548
     2005.89185         0.12844         5.15187
     2005.89459        -0.14226         5.01127
     2005.89733        -0.45196         5.04753
     2005.90006         1.06534         5.07052
     2005.90280        10.57564         5.12358
     2005.90554        -0.99606         4.98120
     2005.90828        -1.76676         5.02453
     2005.91102         2.39154         4.98386
     2005.91375        -1.89716         5.18459
     2005.91649        -0.84386         5.07229
     2005.91923        -0.09156         5.04929
     2005.92197         2.29474         4.98739
     2005.92470        -9.60596         5.12888
     2005.92744        -9.02766         4.96794
     2005.93018        -5.04036         5.06433
     2005.93292        -0.59206         6.79311
     2005.93566         0.03524         6.42083
     2005.93839         3.81354         5.00066
     2005.94113         3.70684         4.95998
     2005.94387         4.57814         4.97501
     2005.94661         7.01544         4.96263
     2005.94935         5.96774         4.91577
     2005.95208        -7.50196         4.93257
     2005.95482        -2.61466         5.33227
     2005.95756         1.43364         4.97059
     2005.96030         2.06693         4.93168
     2005.96303         2.32823         4.85829
     2005.96577        -1.50547         5.09881
     2005.96851        -8.37317         5.16072
     2005.97125        -7.00187         5.02100
     2005.97399         2.51543         5.07936
     2005.97672        -7.89327         5.12004
     2005.97946        -1.38697         5.06433
     2005.98220        -1.25967         5.33580
     2005.98494         7.28663         5.01039
     2005.98767         2.15593         5.07140
     2005.99041         1.60523         5.00685
     2005.99315         5.18353         5.08024
     2005.99589         2.36283         5.02719
     2005.99863         7.19813         5.04399
     2006.00410        -2.68227         5.11208
     2006.00684         4.48803         5.10324
     2006.00958        -9.96667         5.06521
     2006.01232       -10.84537         5.01923
     2006.01505       -13.10507         5.33934
     2006.01779        -2.34077         5.12534
     2006.02053        -8.04547         5.20316
     2006.02327       -12.49017         5.18459
     2006.02600       -17.31587         5.27479
     2006.02874       -14.03957         5.05991
     2006.03148        -6.08227         5.09262
     2006.03422        -4.88397         5.05548
     2006.03696        -7.53667         5.20847
     2006.03969        -4.65137         5.03780
     2006.04243       -12.58807         5.02011
     2006.04517       -11.42877         5.16602
     2006.04791        -5.69248         5.20758
     2006.05065        -2.83318         5.09616
     2006.05338        -9.69288         5.08909
     2006.05612        -3.89158         4.95821
     2006.05886       -10.46928         5.07936
     2006.06160        -7.71598         4.95114
     2006.06433        -6.65068         5.11120
     2006.06707       -12.15738         4.93434
     2006.06981        -9.66908         5.06963
     2006.07255       -12.64978         4.84060
     2006.07529       -10.63748         4.84591
     2006.07808        -7.27807         4.95998
     2006.08076        -6.12788         4.86271
     2006.08350        -6.82558         4.91311
     2006.08624        -9.22028         4.88924
     2006.08898        -4.76998         5.21996
     2006.09171        -0.73968         4.88482
     2006.09445        -2.11138         4.90427
     2006.09719        -7.03508         4.90427
     2006.09993       -10.70378         5.06786
     2006.10266       -12.60248         4.92549
     2006.10540       -15.32918         4.96087
     2006.10814        -6.61688         5.01215
     2006.11088       -10.25658         5.37118
     2006.11362       -10.64328         4.95468
     2006.11635       -14.08698         4.96882
     2006.11909        -9.87368         4.93345
     2006.12183        -1.82438         4.96352
     2006.12457        -2.30408         5.11208
     2006.12731        -7.79078         4.98474
     2006.13004        -7.45948         4.97325
     2006.13278        -6.49518         4.95114
     2006.13552        -1.24189         5.12711
     2006.13826         0.13641         4.93787
     2006.14099         4.28771         4.96971
     2006.14373         4.77701         4.93787
     2006.14647         4.71131         4.94406
     2006.14921        -4.74639         4.92107
     2006.15195        -7.64509         5.00596
     2006.15468       -10.56179         4.91754
     2006.15742        -7.85749         4.99358
     2006.16016        -3.92019         5.08378
     2006.16290        -9.00389         5.07229
     2006.16564       -11.06359         4.87332
     2006.16837        -5.81529         5.01569
     2006.17111        -2.79399         4.89278
     2006.17385        -4.13069         4.88040
     2006.17659        -5.19839         4.87509
     2006.17932        -0.18809         4.86006
     2006.18206         1.59021         4.86006
     2006.18480         2.25151         4.91223
     2006.18754         2.37481         4.94141
     2006.19028         0.84611         5.09528
     2006.19301        -1.42359         5.05814
     2006.19575        -3.74429         5.01481
     2006.19849         0.93001         5.03338
     2006.20123        -5.60269         5.08820
     2006.20397       -12.98139         5.25268
     2006.20670        -6.05509         5.20051
     2006.20944        -5.57079         5.08997
     2006.21218        -4.69049         5.04841
     2006.21492        -4.70319         5.02542
     2006.21765        -1.15989         5.06963
     2006.22039        -9.36259         5.13949
     2006.22313       -11.03030         5.12534
     2006.22587       -11.02300         5.15806
     2006.22861         0.75330         5.14568
     2006.23134        -4.28540         5.20581
     2006.23408        -3.62510         5.15010
     2006.23682        -3.74480         5.10324
     2006.23956         0.38150         4.96175
     2006.24230        -1.51020         4.92726
     2006.24503        -4.27990         5.02984
     2006.24777        -4.99860         4.92373
     2006.25051        -5.06030         4.90250
     2006.25325        -1.72100         4.91577
     2006.25598         2.39430         4.95025
     2006.25872         3.90360         4.95114
     2006.26146         1.91990         5.06167
     2006.26420        -2.02680         5.13065
     2006.26694        -2.58950         4.95998
     2006.26967        -1.55720         4.95644
     2006.27241         3.63010         5.13065
     2006.27515         1.60540         5.09086
     2006.27789        -4.63430         5.15364
     2006.28062        -1.97600         4.98828
     2006.28336        -0.50970         4.97855
     2006.28610         7.27160         4.96794
     2006.28884         2.32990         5.03072
     2006.29158        -0.34880         5.17486
     2006.29431        -4.79850         4.99182
     2006.29705        -2.64920         4.99624
     2006.29979        -2.87890         5.08997
     2006.30253        -3.53560         4.95998
     2006.30527         1.16370         4.97590
     2006.30800        -0.04400         4.98828
     2006.31074        -4.83071         4.94937
     2006.31348        -6.39541         5.04045
     2006.31622        -0.39811         4.97148
     2006.32169        -3.68751         5.01834
     2006.32443        -1.86721         5.07229
     2006.32717        -3.06691         4.95998
     2006.32991        -2.93561         4.91754
     2006.33264        -4.33631         4.96352
     2006.33538        -2.92501         4.88305
     2006.33812        -0.53971         4.93611
     2006.34086        -5.63341         4.88570
     2006.34360        -8.24211         4.91135
     2006.34633         0.16419         4.94318
     2006.34907        -9.96251         4.96971
     2006.35181        -5.77621         5.01039
     2006.35455        -6.96491         4.91577
     2006.35728        -5.52361         4.88747
     2006.36002         0.14869         4.96794
     2006.36276        -5.57301         4.94849
     2006.36550       -13.37571         4.95644
     2006.36824        -9.08241         4.93699
     2006.37097        -4.35811         5.01481
     2006.37371        -2.65681         5.11031
     2006.37645        -3.19951         5.03515
     2006.37919        -2.66921         5.07052
     2006.38193        -0.46791         5.14126
     2006.38466        -2.32461         5.03868
     2006.38740        -5.65831         5.02100
     2006.39014         1.48299         5.07140
     2006.39288        -2.55771         5.02277
     2006.39561        -1.59541         5.22704
     2006.39835         3.87888         5.23057
     2006.40109         2.61118         5.03780
     2006.40383        -3.55552         5.02542
     2006.40657        -2.45622         5.03780
     2006.40930        -6.83092         5.01569
     2006.41204        -4.74962         4.98916
     2006.41478        -8.78132         5.03249
     2006.41752        -8.02402         5.22085
     2006.42026         0.69528         5.17929
     2006.42299        -2.00242         5.27214
     2006.42573         0.11788         5.17752
     2006.42847         0.14218         5.17663
     2006.43121         2.68448         5.14038
     2006.43394         8.23778         5.23323
     2006.43668         1.29908         5.07759
     2006.43942        -8.21762         5.10147
     2006.44216         0.55868         5.05814
     2006.44490         1.97898         5.01481
     2006.44763         8.13128         5.09705
     2006.45037         0.18058         5.23853
     2006.45311        -0.47912         5.05372
     2006.45585        -5.03182         5.08113
     2006.45859         2.26948         5.11739
     2006.46132         0.92278         5.25976
     2006.46406         1.11808         5.33669
     2006.46680        -1.04562         5.21024
     2006.46954         2.20068         5.17663
     2006.47227        -1.91002         5.17752
     2006.47501         3.64028         5.17486
     2006.47775        -2.50142         5.15364
     2006.48049        -8.91612         5.14391
     2006.48323       -12.56382         5.23676
     2006.48596        -1.71453         5.17752
     2006.48870         2.23277         5.25976
     2006.49144         0.53107         5.30132
     2006.49418         1.74237         5.24119
     2006.49692         4.11867         5.17575
     2006.49965        -0.14903         5.20935
     2006.50239        -4.32373         5.23853
     2006.50513         3.60657         5.24738
     2006.50787        -0.36413         5.19874
     2006.51060        -2.52583         5.12888
     2006.51334        -8.16853         5.20758
     2006.51608        -3.58523         5.16956
     2006.51882        -1.91393         5.28628
     2006.52156        -2.42263         5.29778
     2006.52429         5.50567         5.15541
     2006.52703         2.14897         5.30220
     2006.52977         2.62527         5.18459
     2006.53251         1.00757         5.09528
     2006.53525         6.48187         5.16956
     2006.53798         5.42917         5.19432
     2006.54072         1.51147         5.34995
     2006.54346         3.36577         5.06167
     2006.54620         0.15407         5.14391
     2006.54893        -6.33363         5.08290
     2006.55167         1.27467         4.97501
     2006.55441         2.97197         4.97590
     2006.55715         3.03127         5.00243
     2006.55989         6.97157         4.95468
     2006.56262         3.77387         5.02719
     2006.56536         3.23917         5.24295
     2006.56810         3.06047         4.96882
     2006.57084         1.13777         4.96706
     2006.57357         6.38906         5.00331
     2006.57631         8.32036         5.02365
     2006.57905         3.00966         4.94318
     2006.58179         0.31496         5.04841
     2006.58453         3.29426         5.06610
     2006.58726         2.77356         5.08732
     2006.59000         2.26786         5.28452
     2006.59274        -2.70884         5.21908
     2006.59548         0.62946         5.14568
     2006.59822        -2.03624         5.30574
     2006.60095        -1.13194         5.09262
     2006.60369         2.09136         5.00773
     2006.60643        -5.01634         5.00685
     2006.60917         5.22796         5.03957
     2006.61190         3.87426         5.01481
     2006.61464         1.00056         5.01127
     2006.61738        -0.17014         5.02011
     2006.62012        12.95516         5.29513
     2006.62286         3.14346         5.09881
     2006.62559        -0.89924         5.01834
     2006.62833        -4.04794         5.04487
     2006.63107         1.22136         4.97236
     2006.63381        -1.21734         4.95114
     2006.63655         2.28696         5.08378
     2006.63928         0.25126         5.01039
     2006.64202         3.52356         5.04753
     2006.64476         2.14586         5.31635
     2006.64750         7.29416         5.19167
     2006.65023         2.37546         5.53389
     2006.65297        -3.60124         5.26771
     2006.65571        -0.66194         5.28894
     2006.65845         2.59936         5.25180
     2006.66119         5.01865         5.22262
     2006.66392         1.47195         5.28805
     2006.66666         1.69125         5.21996
     2006.66940        -4.72945         5.20758
     2006.67214        -0.41115         5.25533
     2006.67488         0.41915         5.35968
     2006.67750         4.09923         5.61436
     2006.68132        -5.64237         9.93323
     2006.68309         8.91805         5.34111
     2006.68583         6.01135         5.38709
     2006.68856         6.27765         5.23323
     2006.69130         4.74995         5.18459
     2006.69404         3.72325         5.10235
     2006.69678         2.69655         5.12800
     2006.69952         6.14685         5.12711
     2006.70225         6.87115         5.26771
     2006.70499         4.87945         5.22438
     2006.70773         4.78975         5.06786
     2006.71047         4.49605         4.98651
     2006.71321         6.51435         4.96440
     2006.71594         4.83065         4.99889
     2006.71868         6.39795         4.98916
     2006.72142         9.87925         5.11120
     2006.72416         0.98555         5.23765
     2006.72689         6.52985         5.07405
     2006.72963        -0.40385         5.14126
     2006.73237         2.90245         4.99270
     2006.73511         2.12275         4.98828
     2006.73785        -0.09695         5.01392
     2006.74058         0.80035         4.96263
     2006.74332         5.58265         5.09351
     2006.74606         5.55295         5.07052
     2006.74880         7.34824         5.12004
     2006.75154         5.18654         5.20316
     2006.75427        -5.58816         5.24561
     2006.75701         4.07814         5.19962
     2006.75975        -1.30756         5.19343
     2006.76249         5.51474         5.21200
     2006.76522        -5.02696         5.33492
     2006.76796        -5.53766         5.20405
     2006.77070        -2.42636         5.12623
     2006.77344        -1.28306         5.10943
     2006.77618         2.81424         5.09793
     2006.77891         2.09354         5.12711
     2006.78165        -0.65116         5.02896
     2006.78439         1.89014         5.04045
     2006.78713         6.27244         5.12358
     2006.78987        10.35874         5.10501
     2006.79260         8.12504         5.05283
     2006.79534        -1.84666         5.07052
     2006.79808         5.84764         5.06610
     2006.81011        -8.64706        12.88233
     2006.81177         1.60214         5.15453
     2006.81451        -0.36856         5.30839
     2006.81724        -3.33026         5.19520
     2006.81998        -2.69296         5.02365
     2006.82272        -2.59866         5.04310
     2006.82546         1.58364         5.03338
     2006.82820        -1.09506         5.06698
     2006.83093         1.45424         5.03957
     2006.83367        -1.16146         5.00420
     2006.83641         0.70783         5.15453
     2006.83915         0.73613         5.05460
     2006.84188        -0.89957         5.27833
     2006.84462        -0.62427         5.11915
     2006.84736         0.32103         5.05106
     2006.85010         1.96233         5.10501
     2006.85284         3.97963         5.30751
     2006.85557        10.31493         5.34199
     2006.85831         2.75923         5.21996
     2006.86105         1.28953         5.28098
     2006.86379        -3.92317         5.37118
     2006.86653         0.60213         5.40655
     2006.87200         5.07373         5.09351
     2006.87474         6.23903         5.09616
     2006.87748         7.45833         5.05902
     2006.88021         3.10963         5.02011
     2006.88295        -1.88707         5.05195
     2006.88569         2.33723         5.08643
     2006.88843         6.79353         5.06698
     2006.89117         3.40683         5.07848
     2006.89390        -4.01587         5.24119
     2006.89664        -3.24957         5.21024
     2006.89938         1.65273         5.05637
     2006.90212         3.57103         5.06786
     2006.90485        12.07633         5.07582
     2006.90759         8.33463         4.99535
     2006.91033         0.39193         5.00331
     2006.91307        -0.02777         5.06079
     2006.91581        -1.12547         5.02365
     2006.91854        -3.36917         5.00243
     2006.92128        -7.57587         5.02011
     2006.92402        -7.36358         5.02807
     2006.92676        -4.90828         5.30043
     2006.92950        -2.42198         5.14391
     2006.93223        -1.34368         5.06610
     2006.93497        -0.87638         5.18901
     2006.93771         4.56092         5.09086
     2006.94045         7.45622         5.07494
     2006.94318         0.03552         5.07405
     2006.94592         3.48982         5.10058
     2006.94866         2.05912         5.06079
     2006.95140        -0.78258         5.06079
     2006.95414         8.68172         5.21024
     2006.95687        14.35402         5.10943
     2006.95961         2.92632         5.08378
     2006.96235         5.89262         5.06698
     2006.96509         3.70492         5.15276
     2006.96783         5.02422         5.07936
     2006.97056         0.73352         5.05018
     2006.97330        -0.96718         5.05018
     2006.97604        -7.24888         5.11120
     2006.97878         2.60742         5.04753
     2006.98151        -0.14828         5.09528
     2006.98425         0.06102         5.07140
     2006.98699        11.66232         5.22262
     2006.98973        -0.78238         5.20935
     2006.99247       -10.10608         5.26771
     2006.99520        -4.62178         5.24561
     2006.99794        -6.31948         5.24119
     2007.00342        -0.47888         5.21289
     2007.00616         3.68442         5.22438
     2007.00889         0.46372         5.25710
     2007.01163         2.02101         5.15895
     2007.01437        -0.46069         5.08820
     2007.01711        -5.05439         5.07052
     2007.01984        -1.61109         5.12092
     2007.02258        -1.88779         5.09793
     2007.02532         1.82451         5.06963
     2007.02806         3.42481         5.11031
     2007.03080         1.54511         4.93699
     2007.03353        -3.20959         4.89366
     2007.03627        -3.16529         5.98841
     2007.03901        -4.34599         5.64884
     2007.04175        -5.12069         4.96882
     2007.04449        -2.65239         4.92992
     2007.04722        -8.45209         4.97767
     2007.04996        -4.37379         4.99889
     2007.05270        -2.31949         5.04929
     2007.05544         4.23881         4.90427
     2007.05817        -5.38089         4.90250
     2007.06091        -4.60959         4.89985
     2007.06365        -4.01329         4.87421
     2007.06639        -4.52499         4.99093
     2007.06913        -1.27669         4.89101
     2007.07186         4.40961         4.90250
     2007.07460         1.47591         4.91400
     2007.07734        -1.11679         4.92992
     2007.08008        -1.10849         4.91223
     2007.08282         1.66981         4.92019
     2007.08555         1.93311         5.00596
     2007.08829         3.83841         5.03338
     2007.09103         1.40371         5.02011
     2007.09377        -0.73299         4.98828
     2007.09650        -1.82669         4.94849
     2007.09924        -2.65740         4.94937
     2007.10198         3.08890         4.91665
     2007.10472        -5.00780         5.11385
     2007.10746         0.41550         5.12888
     2007.11019        -1.13020         4.96706
     2007.11293         7.74010         4.94318
     2007.11567        -6.54460         4.97678
     2007.11841        -3.75730         4.93257
     2007.12115        -3.54500         4.95910
     2007.12388        -5.25170         4.99358
     2007.12662        -6.29940         4.96263
     2007.12936        -0.85210         5.07140
     2007.13210         2.03820         4.92196
     2007.13483        11.65350         4.92461
     2007.13757         5.13580         4.97148
     2007.14031        -2.84290         4.92992
     2007.14305         2.23140         4.87774
     2007.14579         3.47770         4.91754
     2007.14852        -1.70200         4.87686
     2007.15126         2.33130         4.90869
     2007.15400         0.71460         4.90604
     2007.15674         6.68890         4.91754
     2007.15948         9.47720         4.92726
     2007.16221         0.21050         5.10235
     2007.16495         1.90580         5.09439
     2007.16769        -1.46690         4.99182
     2007.17043        -3.62360         5.01834
     2007.17316        -1.59430         5.04045
     2007.17590         1.32600         5.04929
     2007.17864         1.55030         5.03426
     2007.18138         4.11160         5.03338
     2007.18412        -0.39910         5.00154
     2007.18685        -3.06381         5.14568
     2007.18959        -5.19251         5.04310
     2007.19233        -7.24521         5.05814
     2007.19507        -3.74391         5.08732
     2007.19780        -3.01461         4.95468
     2007.20054         1.20569         4.96794
     2007.20328        -6.30201         4.99624
     2007.20602        -4.57671         4.92019
     2007.20876        -6.78141         4.96529
     2007.21149        -2.97411         4.93522
     2007.21423         2.01919         5.00154
     2007.21697        -0.20451         4.98563
     2007.21971        -2.81621         4.91400
     2007.22245        -1.50191         4.89278
     2007.22518         2.37239         4.94760
     2007.22792         8.16769         4.95025
     2007.23066         1.77999         4.96352
     2007.23340         4.08329         4.99712
     2007.23613        -4.39241         4.98297
     2007.23887        -4.52311         4.95379
     2007.24161        -3.18581         4.96882
     2007.24435         0.56249         4.96971
     2007.24709         2.31479         4.96617
     2007.24982        -1.84591         4.96352
     2007.25256        -6.19261         4.98916
     2007.25530        -4.74431         4.99889
     2007.25804        -1.91101         5.11296
     2007.26078        -5.06471         5.10412
     2007.26351         0.73259         4.95202
     2007.26625         7.14289         5.00331
     2007.26899         5.64419         5.02542
     2007.27173         3.48049         5.17398
     2007.27446         3.90379         5.04310
     2007.27720         8.86708         4.99093
     2007.27994         0.92138         4.96706
     2007.28268         6.19268         5.08467
     2007.28542        -0.15402         5.05283
     2007.28815         2.82228         4.98032
     2007.29089         6.05158         5.04134
     2007.29363         8.38788         5.11473
     2007.29637         4.03318         5.01127
     2007.29911         2.00348         5.01039
     2007.30184         4.84178         5.05106
     2007.30458         1.60308         5.02542
     2007.30732         5.82538         5.05372
     2007.31006        -3.40932         5.04399
     2007.31279         0.54998         5.00596
     2007.31553         7.16628         5.02188
     2007.31716         9.62644        12.33319
     2007.32755       -11.90245        11.34898
     2007.32922        -3.44222         5.04134
     2007.33196         2.45908         5.22792
     2007.33470         1.89538         5.19520
     2007.33744         1.80468         4.98916
     2007.34017         0.65698         5.01215
     2007.34291        -1.20572         4.99624
     2007.34565        -1.84942         4.97059
     2007.34839        -3.37012         5.00420
     2007.35112        -2.01282         5.05372
     2007.35386        -3.93852         5.42158
     2007.35660         0.47878         5.32519
     2007.35934         1.23408         5.05460
     2007.36208        -0.45762         5.03072
     2007.36481        -7.25833         5.08997
     2007.36755        -5.58403         5.02277
     2007.37029        -4.80973         5.02011
     2007.37303        -0.85843         5.09970
     2007.37577        -8.32113         5.29071
     2007.37850        -7.38383         5.03161
     2007.38124        -0.02153         5.12269
     2007.38398        -0.82323         5.07052
     2007.38672        -1.20593         5.00685
     2007.38945        -7.00163         4.94849
     2007.39219        -6.93033         5.08820
     2007.39493        -3.31203         5.13153
     2007.39767        -7.55073         5.03161
     2007.40041         0.87257         4.98032
     2007.40314        -4.75213         5.02365
     2007.40588        -6.25583         4.96352
     2007.40862        -6.06353         4.98474
     2007.41136        -5.83123         4.97678
     2007.41410        -0.88993         5.03603
     2007.41683        -0.50563         4.99182
     2007.41957         2.23767         4.97413
     2007.42231        -0.71703         4.96087
     2007.42505        -1.49273         5.16425
     2007.42778         8.89957         5.00596
     2007.43052         1.69787         4.91930
     2007.43326        -2.33483         4.95468
     2007.43600        -4.17653         4.96971
     2007.43874        -0.73923         4.96087
     2007.44147        -4.95593         5.11473
     2007.44421        -1.92063         5.13419
     2007.44695        -5.23033         4.97855
     2007.44969       -11.42003         4.95998
     2007.45243        -9.84274         4.98563
     2007.45516        -3.03344         5.02542
     2007.45790        -4.90514         5.72312
     2007.46064         0.72216         4.94849
     2007.46338        -1.44454         4.95114
     2007.46611        -0.68824         4.97590
     2007.46885         4.45806         4.97678
     2007.47159        -6.27364         5.03249
     2007.47433         1.62066         4.96971
     2007.47707         2.64496         5.07140
     2007.47980        -3.24874         4.98120
     2007.48254        -8.48344         4.97236
     2007.48528        -9.13114         5.10058
     2007.48802        -9.01784         5.00596
     2007.49076         2.67246         5.03603
     2007.49349         5.16776         4.97325
     2007.49623         3.57706         5.05372
     2007.49897         4.85636         5.02630
     2007.50171        -1.40934         5.00154
     2007.50444         0.21196         5.02630
     2007.50718        -1.27174         5.13949
     2007.50992        -2.44744         5.14126
     2007.51266         1.36986         5.17310
     2007.51540        -1.72984         5.23146
     2007.51813         6.55246         4.93964
     2007.52087        -3.83624         5.07759
     2007.52361         0.66306         5.02011
     2007.52635         5.36336         5.00950
     2007.52908         2.14366         4.99447
     2007.53182         5.66396         5.11915
     2007.53456         1.10026         5.12446
     2007.53730         2.34656         5.02188
     2007.54004         3.17785         5.07140
     2007.54277        -0.98785         5.15541
     2007.54551         2.73045         5.08820
     2007.54825        10.65075         4.98651
     2007.55099        -3.80395         5.02719
     2007.55373        -0.15565         4.98209
     2007.55646         4.85365         5.01481
     2007.55920         3.41195         5.16072
     2007.56194         1.66625         5.11208
     2007.56468        -0.53945         5.20847
     2007.56741        -6.33515         5.17310
     2007.57015         6.78115         5.03515
     2007.57289         4.73745         5.09439
     2007.57563         1.71175         5.00066
     2007.57837         8.85505         5.05548
     2007.58110         4.95935         5.10589
     2007.58384        -1.47835         4.96440
     2007.58658         0.85695         5.13507
     2007.58932        -7.10375         5.15895
     2007.59206         5.67755         5.09705
     2007.59479         0.82885         5.17044
     2007.59753        -4.40685         5.12800
     2007.60027         6.09945         4.95468
     2007.60301         9.58075         5.01923
     2007.60574         3.45205         5.00331
     2007.60848         0.41635         4.93964
     2007.61122         1.88065         4.98386
     2007.61396       -14.25005         4.97325
     2007.61670         6.56225         5.33846
     2007.61943         7.38455         5.51885
     2007.62217         2.95185         5.27214
     2007.62491         3.39615         5.26064
     2007.62765         3.72844         5.47552
     2007.63039         0.97174         5.47818
     2007.63312        -3.54196         5.22438
     2007.63586         0.86134         5.15983
     2007.63860         2.34264         5.11473
     2007.64134         3.34394         5.07936
     2007.64407         3.12624         5.33580
     2007.64681        -0.94746         5.14480
     2007.64955         5.20584         5.36322
     2007.65229         3.38914         5.47022
     2007.65503         1.98944         5.21112
     2007.65776         0.77074         5.20051
     2007.66050        -5.58296         5.24030
     2007.66324         2.16034         5.28805
     2007.66598         5.63764         5.23500
     2007.66872         2.35594         5.25976
     2007.67145         1.73824         5.31193
     2007.67419         1.90954         5.31458
     2007.67693        -0.03516         5.67714
     2007.67967         1.35014         5.19078
     2007.68240         7.81544         5.10589
     2007.68514         2.63474         5.59932
     2007.68754         1.84938         7.85780
     2007.69136         3.17977         7.44307
     2007.69336         0.26964         5.16337
     2007.69609         5.24094         5.15276
     2007.69883         5.54224         5.14038
     2007.70157         8.53654         5.18371
     2007.70431         9.60684         5.32342
     2007.70705        -0.13386         5.21554
     2007.70978         6.57544         5.21996
     2007.71252         6.58374         5.19786
     2007.71526        13.34003         4.97413
     2007.71800         7.07033         5.04222
     2007.72073         8.01163         5.01392
     2007.72347         5.87793         4.98297
     2007.72621         8.42923         5.19874
     2007.72895         9.68053         5.00685
     2007.73169         2.98083         5.05372
     2007.73442         4.16813         5.03426
     2007.73716         1.91943         5.07494
     2007.73990         8.31173         5.00862
     2007.74264         6.30703         5.01834
     2007.74538         7.29833         4.97590
     2007.74811         3.90563         5.14745
     2007.75085        10.86393         5.29601
     2007.75359        11.84723         5.09439
     2007.75633         4.95753         5.01923
     2007.75906        10.92183         4.98120
     2007.76180        11.08713         4.99182
     2007.76454        -3.46057         5.01834
     2007.76728         6.85273         5.29336
     2007.77002         2.38003         5.31635
     2007.77275         5.69133         5.17044
     2007.77549         4.87363         5.01746
     2007.77823         6.55493         4.99977
     2007.78097         8.02923         4.99977
     2007.78371         4.78553         4.99535
     2007.78644         6.29283         4.98828
     2007.78918         3.66713         5.05372
     2007.79192         9.81043         5.08820
     2007.79466         7.34973         5.14657
     2007.79739         5.57103         5.05106
     2007.80013        13.52033         5.10677
     2007.80287        -0.13338         4.98651
     2007.80561         0.77392         4.98739
     2007.80835        -0.07078         5.11296
     2007.81108         1.80952         5.10854
     2007.81382         5.92282         5.03249
     2007.81656         1.50212         5.15099
     2007.81930         2.37242         5.02896
     2007.82203        -2.36028         5.05283
     2007.82477        -6.74098         5.06698
     2007.82751        -1.53668         5.10677
     2007.83025         2.11762         5.05106
     2007.83299         0.55192         5.02984
     2007.83572         1.89322         4.92726
     2007.83846         1.58152         4.98474
     2007.84120         0.70982         4.97501
     2007.84394        -3.93188         4.97325
     2007.84668        -3.06158         4.95202
     2007.84941         2.40772         4.96440
     2007.85215        -0.44498         5.07848
     2007.85489        -4.13068         5.12092
     2007.85763         1.36862         5.00508
     2007.86036         6.48392         4.94141
     2007.86310         7.43022         4.92284
     2007.86584         3.01252         4.98563
     2007.86858         5.26182         5.15010
     2007.87132         1.20512         4.97236
     2007.87405         8.09642         4.96175
     2007.87679         6.02072         4.97148
     2007.87953         4.99902         4.97501
     2007.88227         8.48032         4.97590
     2007.88501         0.38962         5.03338
     2007.88774         1.37292         4.97944
     2007.89048        -0.25079         4.99270
     2007.89322         4.82051         5.10766
     2007.89596         8.99681         5.10589
     2007.89869         4.49511         4.98651
     2007.90143         5.09941         5.04310
     2007.90417        -2.26929         5.08378
     2007.90691        -1.42699         5.03780
     2007.90965        -3.80869         5.03426
     2007.91238         2.49961         5.00862
     2007.91512         9.75491         4.99182
     2007.91786         6.97821         4.94495
     2007.92060        -4.24549         5.10235
     2007.92334        -6.30719         5.07671
     2007.92607        11.29211         5.05460
     2007.92881         7.26741         5.07140
     2007.93155         8.51271         5.06786
     2007.93429         1.03001         5.01392
     2007.93702         0.93531         5.04222
     2007.93976        -0.98939         5.01746
     2007.94250        -0.80609         5.01746
     2007.94524        -3.34979         5.15453
     2007.94798         0.19051         5.21112
     2007.95071        -0.43919         5.04134
     2007.95345         2.68111         5.08643
     2007.95619        -0.54959         5.10058
     2007.95893         4.30371         5.17486
     2007.96155         3.50379         5.41097
     2007.96440         1.70931         5.09881
     2007.96714         1.79361         5.09616
     2007.96988         1.75591         5.05548
     2007.97262        -4.44479         5.14657
     2007.97535        -8.08449         5.15718
     2007.97809        -2.34820         5.05018
     2007.98083        -2.21890         5.00596
     2007.98357        -2.00360         4.96440
     2007.98631         1.62670         5.14657
     2007.98904        -6.35100         5.27921
     2007.99178        -3.70070         5.12623
     2007.99452        -3.92140         5.12181
     2007.99726        -2.84310         5.00596
     2008.00000       -13.71980         4.98739
     2008.00273        -7.82450         5.00154
     2008.00547         2.91280         4.95733
     2008.00821         2.24610         4.92638
     2008.01095        15.65340         4.96263
     2008.01368        11.57170         4.89454
     2008.01642         7.55400         4.87863
     2008.01916        -1.95670         4.98386
     2008.02190         3.28160         4.97148
     2008.02464         2.91590         4.94760
     2008.02737        -7.85880         4.95821
     2008.03011        -5.74550         4.94760
     2008.03285        -7.63420         4.93345
     2008.03559        -9.76190         4.93964
     2008.03833        -5.48260         5.04222
     2008.04106         0.18770         5.04841
     2008.04357        -6.25144         5.58960
     2008.40337        -0.61698         8.98085
     2008.40520         0.71356         4.93964
     2008.40794        -0.46214         5.55776
     2008.41067        -4.26084         4.91135
     2008.41341         0.44246         4.91665
     2008.41615        -1.04625         4.91046
     2008.41889         3.94605         4.94583
     2008.42162        -0.11465         4.97590
     2008.42436         8.16565         4.87951
     2008.42710         6.16095         4.90516
     2008.42984        -3.70375         5.05460
     2008.43258         4.18655         5.02277
     2008.43531         0.12885         4.94406
     2008.43782         4.10671         5.45165
     2008.44136         2.51856         6.41994
     2008.44301        -8.74024         6.20241
     2008.45807        11.64591         8.27961
     2008.45995         2.30655         5.00508
     2008.46269         4.14985         5.05195
     2008.46543        -1.38085         5.01658
     2008.46817        -3.53955         5.01304
     2008.47091        -5.01725         4.95998
     2008.47364         1.01605         4.96440
     2008.47638         3.29635         5.02100
     2008.47912        -0.34635         4.93080
     2008.48186         0.13795         4.91665
     2008.48459        -1.68875         5.19167
     2008.48733         7.80755         4.97236
     2008.49007       -10.97615         4.91754
     2008.49281        -4.45385         5.00331
     2008.49555        -0.03755         4.97678
     2008.49828        -1.21625         5.08378
     2008.50102        -1.31895         5.11827
     2008.50376        -0.96666         4.89189
     2008.50650         5.95864         4.86713
     2008.50924         3.30194         4.96706
     2008.51197         6.55724         4.96706
     2008.51425         7.03266         6.30499
     2008.55407        -3.16527         9.01799
     2008.55578        -0.17696         4.98739
     2008.55852         4.11234         5.08467
     2008.56125         0.72464         5.04399
     2008.56399         5.92894         4.99535
     2008.56673         0.71024         5.09439
     2008.56947         9.49554         4.96706
     2008.57221         7.73184         5.10766
     2008.57494         3.99314         5.05372
     2008.57768        11.73644         5.02896
     2008.58042         8.75474         4.94672
     2008.58316         9.07504         4.95379
     2008.58590         9.52434         4.93522
     2008.58863         3.17764         5.06256
     2008.59137         9.20793         4.85475
     2008.59411         8.27823         4.95202
     2008.59685         4.34053         4.98739
     2008.59910        10.71190         6.62156
     2008.60335         3.06612        10.02077
     2008.60506         2.74643         5.09705
     2008.60780         2.81773         5.19255
     2008.61054         0.95803         5.09351
     2008.61327         2.47333         4.97236
     2008.61601         7.73763         4.95202
     2008.61875         4.43193         4.95910
     2008.62149         6.08623         4.95291
     2008.62423         1.87253         5.02365
     2008.62696         2.83583         4.97855
     2008.62970         4.80513         5.03515
     2008.63244        13.43943         5.02630
     2008.63518         9.69273         4.92461
     2008.63791         7.70703         5.03868
     2008.64065         7.87533         5.07052
     2008.64339         1.82563         5.06698
     2008.64613         9.12493         5.05106
     2008.64887        12.56023         4.97059
     2008.65160        10.78853         5.13242
     2008.65434         5.95183         5.11827
     2008.65708         9.57813         5.12004
     2008.65982        10.37143         4.98739
     2008.66256        11.51873         5.00154
     2008.66529         7.54503         5.22438
     2008.66803         6.77633         5.14215
     2008.67077         5.51563         5.04841
     2008.67351        10.18393         5.05637
     2008.67624         8.82423         5.50736
     2008.67898        12.53052         5.06167
     2008.68172         8.09382         5.05283
     2008.68446         8.52012         5.13419
     2008.68720         5.04342         5.03338
     2008.68993         5.78372         5.07671
     2008.69267         0.27302         5.24738
     2008.69541         5.67332         5.03603
     2008.69815        13.08962         5.14303
     2008.70089         7.04792         5.08113
     2008.70362         7.70522         4.98474
     2008.70636         7.73352         5.00773
     2008.70910         5.40182         5.11473
     2008.71184         9.48612         5.11915
     2008.71457         7.80842         4.98209
     2008.71731         3.93872         4.95202
     2008.72005         7.26702         5.06256
     2008.72279         0.04632         4.95556
     2008.72553         1.84162         5.05725
     2008.72826        -0.06208         5.00862
     2008.73100         2.79822         5.03338
     2008.73374         9.10052         4.96529
     2008.73648         4.25182         4.97855
     2008.73921         1.77312         5.02188
     2008.74469         2.64872         4.96617
     2008.74743         6.53202         4.92373
     2008.75017         2.19232         4.96706
     2008.75290         7.45062         5.00862
     2008.75564         8.12292         4.98297
     2008.75838        11.24022         4.93168
     2008.76112         7.04152         4.94141
     2008.76386         6.12782         4.91400
     2008.76659        -0.51089         5.03249
     2008.76933         9.33441         4.99624
     2008.77207         8.10071         4.92196
     2008.77481         8.30201         4.83618
     2008.77754         7.61031         4.83707
     2008.78028         5.52161         4.86625
     2008.78302         0.67191         4.84149
     2008.78576        -1.24579         4.95202
     2008.78850        -5.31849         4.93080
     2008.79123         4.13881         4.94141
     2008.79397        -1.67689         4.95910
     2008.79671         1.18541         4.88570
     2008.79945         0.05271         4.87155
     2008.80219         7.72901         4.95379
     2008.80492         5.96931         4.92903
     2008.80766         0.22461         4.85033
     2008.81040         2.18691         4.93611
     2008.81314         8.26521         4.87332
     2008.81587        14.51851         4.86006
     2008.81861         2.71881         4.84414
     2008.82135        -3.34689         4.85564
     2008.82409        -2.15859         4.93611
     2008.82683         0.03971         5.03868
     2008.82956         0.35501         4.92815
     2008.83230         6.75131         4.93522
     2008.83504        -4.35939         4.89278
     2008.83778        10.15191         4.95114
     2008.84052         3.11521         4.94141
     2008.84325         8.08451         5.00773
     2008.84599         9.16681         4.93080
     2008.84873         6.23411         4.87244
     2008.85147         0.20941         4.96617
     2008.85420         1.99670         4.98916
     2008.85694         9.10400         4.95556
     2008.85968        11.55230         4.90781
     2008.86242         9.83960         4.90516
     2008.86516         6.47990         4.89454
     2008.86789         2.25720         5.02719
     2008.87063         1.73850         5.01127
     2008.87337         1.43280         4.94495
     2008.87611         2.09610         5.00420
     2008.87885        -5.80160         4.90781
     2008.88158        -4.09930         4.92284
     2008.88432        -2.36300         4.92284
     2008.88706        -3.40070         4.99712
     2008.88980        -5.68440         5.05637
     2008.89253         3.26890         4.94406
     2008.89527         0.40420         5.07229
     2008.89801        -1.19850         5.07052
     2008.90075        -3.55820         4.95644
     2008.90349         0.99110         4.96794
     2008.90622        -0.47560         5.01304
     2008.90896         7.33270         4.92903
     2008.91170        -2.37800         4.97059
     2008.91444         8.06030         4.93080
     2008.91718         4.53360         4.91754
     2008.91991         6.61590         4.94495
     2008.92265         3.95420         4.96706
     2008.92539        -4.35150         4.95998
     2008.92813        -2.24320         5.04399
     2008.93086        -0.43690         4.93699
     2008.93360         6.01740         4.92019
     2008.93634         5.16270         4.93964
     2008.93908        -0.62600         4.93787
     2008.94182        -2.99270         4.94053
     2008.94455        -5.57941         5.00331
     2008.94729        -4.72611         4.97767
     2008.95003         1.03019         4.94406
     2008.95277         4.60649         4.86713
     2008.95551         3.64079         4.96529
     2008.95824         6.97509         4.90427
     2008.96098         1.76439         4.92726
     2008.96372         4.74269         4.85564
     2008.96646         5.69099         5.00331
     2008.96919        -5.36171         4.92726
     2008.97193         3.14159         4.87863
     2008.97467         3.36589         4.91223
     2008.97741        -8.86581         5.01746
     2008.98015        -6.38751         4.91135
     2008.98288         5.26579         4.88835
     2008.98562         2.58009         4.95733
     2008.98836         5.54839         4.89985
     2008.99110        -1.05931         4.86890
     2008.99384         5.69299         4.92815
     2008.99657        -4.19971         4.93964
     2008.99931        -1.95941         4.92196
     2009.00479         4.92219         4.92992
     2009.00752         9.00549         4.90869
     2009.01300         8.23909         4.94849
     2009.01574         4.78439         4.97944
     2009.01848         3.50569         4.96175
     2009.02121         4.37299         5.05106
     2009.02395        -4.23071         5.07140
     2009.02669        -8.14741         4.94318
     2009.02943       -10.15911         4.99005
     2009.03216        -7.21482         4.90604
     2009.03490        -9.63152         4.95821
     2009.03764        -7.47022         4.86978
     2009.04038        -7.49792         4.95379
     2009.04312       -10.24262         4.88393
     2009.04585       -10.41432         4.90781
     2009.04859       -10.31302         4.89985
     2009.05133        -7.49772         4.89808
     2009.05407        -8.21442         4.85121
     2009.05681        -3.60812         4.93964
     2009.05954        -2.89582         4.89101
     2009.06228       -12.16652         4.91311
     2009.06502        -7.14722         4.93876
     2009.06776        -6.19692         4.92461
     2009.07049         0.49738         4.87155
     2009.07323         2.45868         4.96882
     2009.07597        -0.18602         4.90781
     2009.07871        -5.01672         4.91046
     2009.08145        -6.52242         4.83707
     2009.08418        -5.94212         4.87597
     2009.08692        -3.06782         4.89012
     2009.08966        -7.42752         4.86094
     2009.09240        -6.55922         4.87155
     2009.09514        -5.45192         4.86183
     2009.09787        -2.41162         4.86802
     2009.10061         7.23568         4.91754
     2009.10335         0.14498         4.86448
     2009.10609         1.13528         4.89454
     2009.10882         1.60358         4.92196
     2009.11156         1.86388         4.86802
     2009.11430         0.54518         4.96794
     2009.11704         4.90048         4.93876
     2009.11978         1.86377         4.87509
     2009.12251         2.58007         4.84679
     2009.12525        -3.86463         4.92992
     2009.12799         0.95367         4.96175
     2009.13073         1.83997         4.99977
     2009.13347        -4.96273         4.94760
     2009.13620        -4.96943         4.89720
     2009.13894        -3.63313         4.91665
     2009.14168        -6.13883         4.89366
     2009.14442        -5.33253         4.95202
     2009.14715       -11.99223         5.02365
     2009.14989       -12.32993         5.04310
     2009.15263        -7.48963         4.98651
     2009.15537        -6.74533         5.07848
     2009.15811        -3.07403         5.12358
     2009.16084        -3.03773         4.92549
     2009.16358        -0.94943         4.91754
     2009.16632        -4.53413         4.89985
     2009.16906        -4.73883         5.07405
     2009.17180         2.79647         4.95910
     2009.17453        -0.96523         4.98120
     2009.17727         7.74207         5.15983
     2009.18001        -1.23163         4.91400
     2009.18275         0.52867         4.96440
     2009.18548        -0.85703         4.99447
     2009.18822        -5.04373         4.99712
     2009.19096        -1.18843         5.01834
     2009.19370         0.22887         4.97236
     2009.19644        -2.26283         4.91754
     2009.19917         0.71847         4.92726
     2009.20191        -1.47523         4.88305
     2009.20465        -3.91493         4.95025
     2009.20739         0.31036         4.94230
     2009.21052        -5.08856         5.97603
     2009.21286        -0.87104         4.88570
     2009.21560         1.98026         4.97148
     2009.21834        -7.93644         4.91754
     2009.22108         8.13086         4.94583
     2009.22381         1.47916         4.99093
     2009.22655        -0.88354         4.91311
     2009.22929        -3.36824         4.96706
     2009.23203        -1.40694         4.90958
     2009.23477         1.52636         4.93345
     2009.23733         0.56033         5.24649
     2009.24372        -0.77230         7.37940
     2009.24572         0.29756         4.95998
     2009.24846         7.99986         4.92726
     2009.25119         0.76316         5.04045
     2009.25393         3.13346         5.06167
     2009.25667         3.02176         4.91754
     2009.25941        -5.62694         4.94141
     2009.26214        -5.40764         4.95114
     2009.26488        -3.62434         4.91842
     2009.26762         3.29896         4.95644
     2009.27036        -0.36274         4.92549
     2009.27310        -2.21544         4.97325
     2009.27583         0.49886         4.97944
     2009.27857        -3.38384         5.05725
     2009.28131        -2.74454         4.89012
     2009.28405        -4.36424         4.90781
     2009.28679         1.62106         4.95644
     2009.28952        -3.16464         4.92638
     2009.29226        -7.09834         4.92196
     2009.29500        -8.86305         4.90604
     2009.29774       -11.34175         4.96263
     2009.30047       -11.61045         4.93522
     2009.30321        -9.77615         4.92726
     2009.30595        -6.06085         4.94230
     2009.30869        -0.68555         4.93964
     2009.31143        -7.03725         4.88659
     2009.31416        -1.92095         4.89278
     2009.31690        -3.01365         4.88924
     2009.31964        -7.15935         4.88924
     2009.32238        -3.57905         4.95291
     2009.32512       -15.24975         5.03780
     2009.32785        -7.21745         4.99624
     2009.33059        -4.55315         4.94318
     2009.33333        -6.47485         4.92726
     2009.33607        -6.45655         4.94760
     2009.33880        -4.77825         4.98563
     2009.34154        -8.45695         4.99358
     2009.34428        -9.12465         4.94760
     2009.34702       -12.19835         5.01481
     2009.34976       -11.86505         4.98739
     2009.35249        -8.89375         4.94672
     2009.35523        -6.75545         4.96529
     2009.35797        -5.86715         4.93611
     2009.36071        -1.56785         5.02365
     2009.36344        -6.45355         4.92992
     2009.36618        -2.65925         4.96794
     2009.36892        -4.82695         5.05018
     2009.37166        -6.68265         4.97767
     2009.37440        -8.83535         4.94849
     2009.37713        -8.02405         4.95556
     2009.37987        -7.98575         5.10501
     2009.38261        -4.89646         5.00862
     2009.38535        -9.35716         5.00508
     2009.38809        -5.71986         4.99801
     2009.39082        -6.70556         4.95821
     2009.39356        -9.55126         4.98916
     2009.39630       -10.55896         4.97944
     2009.39904        -9.79466         4.99624
     2009.40177        -1.11236         4.94849
     2009.40451        -1.08906         4.95202
     2009.40725        -7.80576         5.02719
     2009.40999        -2.67646         5.05106
     2009.41273        -0.65016         5.00420
     2009.41546        -1.00186         5.02807
     2009.41820        -1.89356         5.05548
     2009.42094       -12.13526         5.11296
     2009.42368       -10.97896         5.05725
     2009.42642        -6.79966         5.13684
     2009.42915        -2.80336         5.13065
     2009.43189        -1.30406         5.04576
     2009.43463        -8.22576         5.11208
     2009.43737        -2.50846         5.02365
     2009.44010        -3.02716         5.03780
     2009.44284        -5.72386         4.97944
     2009.44558        -1.63956         5.03426
     2009.44832        -2.59626         4.98828
     2009.45106        -2.58896         5.03691
     2009.45379         1.48934         4.95644
     2009.45653        -0.12636         5.02365
     2009.45927        -7.97306         5.06875
     2009.46201         1.68124         5.06786
     2009.46475        -0.98846         5.02100
     2009.46748        -3.60416         5.08820
     2009.47022        -6.68287         5.01039
     2009.47296        -1.62657         4.95291
     2009.47570        -2.72127         4.93434
     2009.47843        -2.05597         4.93787
     2009.48117        -4.50067         5.00154
     2009.48391        -6.39537         5.14303
     2009.48665        -5.41007         5.05637
     2009.48939       -10.09377         5.01304
     2009.49212        -4.57847         5.10235
     2009.49486        -4.30817         5.33315
     2009.49760        -0.85687         5.14126
     2009.50034       -13.16157         5.06698
     2009.50308        -8.50627         5.10854
     2009.50581       -11.82397         5.15099
     2009.50855        -7.30667         5.16248
     2009.51129         5.83163         5.22085
     2009.51403         5.39593         5.04134
     2009.51676         3.80923         5.05283
     2009.51950        -5.66047         5.01215
     2009.52224        -6.21117         4.99182
     2009.52378       -13.47319        16.17189
     2009.52772        -4.71457         5.00862
     2009.53045       -10.06427         5.17044
     2009.53319        -9.12997         4.92549
     2009.53593        -5.06367         4.95556
     2009.53867         2.31663         4.94406
     2009.54141        -5.29807         4.93257
     2009.54414        -4.10577         4.96882
     2009.54688        -4.42047         4.99447
     2009.54962        -6.82117         5.01392
     2009.55236        -5.63987         4.95025
     2009.55509         1.39743         5.04664
     2009.55783         0.94672         4.98386
     2009.56057         2.48302         5.18990
     2009.56331         4.20232         5.11915
     2009.56605        -8.68138         5.19255
     2009.56878        -3.38908         5.03957
     2009.57152        -1.96878         4.96175
     2009.57426        -5.39048         4.96617
     2009.57700         2.00882         5.17752
     2009.57974        -2.92388         5.10677
     2009.58247        -1.86258         4.95379
     2009.58521         1.22972         5.00950
     2009.58795         1.83302         4.98651
     2009.59069         2.01532         4.95025
     2009.59342       -10.40238         5.18990
     2009.59616         7.24992         5.25003
     2009.59890         4.72122         5.04576
     2009.60164         0.97752         4.91488
     2009.60438        -1.30018         4.87509
     2009.60711        -3.54788         4.89189
     2009.60985        -3.59058         4.91311
     2009.61259         0.32772         5.00596
     2009.61533         3.68702         5.01127
     2009.61807        -3.95868         5.00331
     2009.62080         3.33262         4.95644
     2009.62354        -2.15608         4.95114
     2009.62628        -2.43878         4.96175
     2009.62902         5.34352         4.96175
     2009.63175         2.14682         4.93434
     2009.63449        -0.25488         4.95114
     2009.63723         5.82842         5.00596
     2009.63997        -3.74728         5.05725
     2009.64271         2.61902         5.17310
     2009.64544        11.26031         5.19520
     2009.64818        -5.47439         5.04487
     2009.65092        -4.07409         5.06433
     2009.65366        -3.06679         5.05548
     2009.65639        -2.51649         4.97855
     2009.65913        -3.43519         5.01304
     2009.66187         7.49911         4.95379
     2009.66461        -1.61459         5.01127
     2009.66735         3.03471         5.02630
     2009.67008        -1.23399         4.99712
     2009.67282        -1.41069         4.95468
     2009.67556         1.52561         4.96882
     2009.67830         1.81491         5.02542
     2009.68104        -0.65479         5.04753
     2009.68377        -2.74549         4.97590
     2009.68651         2.73581         4.96794
     2009.68925        -1.60789         4.98739
     2009.69193         1.42230         5.12800
     2009.69472        -3.69029         4.93168
     2009.69746         0.65601         4.93611
     2009.70020         1.35931         5.02011
     2009.70294         0.19461         5.07405
     2009.70568        -2.90409         4.92461
     2009.70841        -1.92279         4.91400
     2009.71115        -3.83849         4.93345
     2009.71389        -3.44019         5.11562
     2009.71657        -5.37800         4.98297
     2009.71937        -7.36659         5.05106
     2009.72210        -7.59729         4.95910
     2009.72484        -8.79199         4.97590
     2009.72758        -5.69069         4.97944
     2009.73032        -5.35239         4.97148
     2009.73305        -0.49810         5.12004
     2009.73579        -0.72180         4.96440
     2009.73853         4.90050         4.94849
     2009.74127         3.05480         4.99093
     2009.74401         4.83710         5.08113
     2009.74674        -2.67660         5.11208
     2009.74948        -6.83530         4.96706
     2009.75222        -3.55300         4.91754
     2009.75496         3.89530         4.88835
     2009.75770         1.57260         4.96794
     2009.76043        -0.81010         4.96971
     2009.76317         1.32020         4.96529
     2009.76591         0.14150         4.97855
     2009.76865        -0.08420         5.00066
     2009.77138         0.06810         4.91842
     2009.77412         3.54140         4.95556
     2009.77686        -0.72930         4.97855
     2009.77960         2.44100         4.96175
     2009.78211         5.61686         5.31458
     2009.78507         2.45560         4.98651
     2009.78775        -1.65321         5.14480
     2009.79089        -5.32114         6.00344
     2009.79329        -4.21750         5.09262
     2009.79603        -2.65620         5.10324
     2009.79876         6.27810         5.14391
     2009.80150         0.69740         5.08024
     2009.80424        -3.47630         5.13949
     2009.80698         4.50600         5.17752
     2009.80971         8.34230         5.11208
     2009.81245        11.11960         5.27214
     2009.81519         8.27590         5.08201
     2009.81793        -3.10880         5.19697
     2009.82067         1.38349         5.25180
     2009.82340         8.04679         7.36879
     2009.82614         3.02809         5.07848
     2009.82871         0.99606         5.56484
     2009.83270        17.89279        14.71547
     2009.83441        -2.24590         5.28363
     2009.83709        -8.55571         5.11650
     2009.83983        -4.09041         5.10766
     2009.84257        -5.61211         5.10766
     2009.84531        -1.48281         5.14303
     2009.84804         2.36149         5.17398
     2009.85078         1.53779         5.09528
     2009.85352         3.05209         5.12534
     2009.85626        -1.19761         5.12534
     2009.85900        -8.60131         5.15453
     2009.86173        -8.83801         5.09262
     2009.86447        -1.19171         5.47729
     2009.86721         6.74259         5.50824
     2009.86995         2.72289         5.10766
     2009.87269         1.46919         5.08467
     2009.87542        -4.77351         5.06167
     2009.87816         0.71879         5.13684
     2009.88090         3.16209         5.19343
     2009.88364         1.12639         5.07140
     2009.88636         3.17266         5.12446
     2009.89567         4.36968        11.67793
     2009.89733        -6.66911         5.01127
     2009.90006        -4.14081         4.96263
     2009.90280         0.22449         4.96794
     2009.90554         8.00379         4.92461
     2009.90828         3.46108         4.97767
     2009.91102        -3.20062         5.00685
     2009.91375         0.03368         4.97148
     2009.91649        -0.32902         4.99535
     2009.91923        -4.42672         4.95733
     2009.92197        -3.88642         4.96882
     2009.92470        -3.25612         5.02011
     2009.92744        -0.07682         4.96794
     2009.93018        -1.88952         4.92903
     2009.93292         1.75478         5.00154
     2009.93566         4.02008         4.96706
     2009.93839         5.96638         5.16867
     2009.94113         2.99668         7.10350
     2009.94387         1.52198         6.16615
     2009.94661         0.95028         5.09528
     2009.94935        -0.90242         4.97059
     2009.95208       -16.17212         5.04399
     2009.95756       -14.55852         4.96706
     2009.96030        -3.85822         4.97855
     2009.96303        -4.31992         4.99182
     2009.96577        -4.13162         5.04222
     2009.96851        -5.69732         5.04310
     2009.97125        -1.39202         5.07582
     2009.97399         0.88528         5.12004
     2009.97672        -3.31542         5.03426
     2009.97946        -9.24212         5.05725
     2009.98220        -6.33082         4.99535
     2009.98494        -5.77152         5.00950
     2009.98767        -2.82122         5.01746
     2009.99041        -3.05392         4.99977
     2009.99315        -7.31962         5.04576
     2009.99589        -4.89833         5.02719
     2009.99863       -12.55003         4.96087
     2010.00410        -5.99443         4.99093
     2010.00684        -7.21913         4.99093
     2010.00958        -2.76283         4.95644
     2010.01232        -3.44053         4.96706
     2010.01505       -11.94523         4.95379
     2010.01779        -5.64693         5.14391
     2010.02053        -5.88963         4.95202
     2010.02327        -9.28733         4.99358
     2010.02600        -8.14503         4.97855
     2010.02874        -7.03973         5.02807
     2010.03148        -4.06443         5.03426
     2010.03422        -6.86913         5.06521
     2010.03696        -4.75583         5.25887
     2010.03969        -0.69753         5.10589
     2010.04243         2.71877         4.98386
     2010.04517         7.10007         5.00508
     2010.04791         8.13337         4.95291
     2010.05065         0.36167         5.06521
     2010.05338         3.16097         5.17398
     2010.05612         7.57527         5.00420
     2010.05886         7.66957         4.94760
     2010.06160        -0.05913         4.90692
     2010.06433        -7.54683         4.83176
     2010.06707        -7.39953         4.91930
     2010.06981        -4.62823         5.06610
     2010.07255        -2.82493         5.03072
     2010.07529        -2.45063         5.02453
     2010.07802        -2.32633         5.01746
     2010.08076        -3.33403         4.92992
     2010.08350         0.74226         4.95379
     2010.08624        -4.11744         4.91488
     2010.08898         6.13386         5.08467
     2010.09171         2.98316         4.88482
     2010.09445         5.08946         4.97767
     2010.09719         0.76076         5.04841
     2010.09993        -6.17494         4.98120
     2010.10266         3.03136         4.91930
     2010.10540        -3.06234         5.03072
     2010.10814         1.81196         4.99447
     2010.11088        -4.87674         5.01392
     2010.11362        -1.39944         4.95379
     2010.11635        -2.49914         4.93787
     2010.11909         2.33916         4.90604
     2010.12183        -3.72854         4.91930
     2010.12457        -0.13924         4.89808
     2010.12731        -1.63494         5.04929
     2010.13004        -3.36464         5.02453
     2010.13278        -3.20634         5.00066
     2010.13552         0.06296         5.06079
     2010.13826        -1.18774         5.06610
     2010.14099        -0.40644         4.96794
     2010.14373        -0.97614         5.16425
     2010.14647        -3.82384         5.15010
     2010.14921        -2.20454         5.01923
     2010.15195        -4.10124         4.95468
     2010.15468        -2.37094         4.98651
     2010.15742         1.02636         4.94053
     2010.16016         2.95666         5.01392
     2010.16290        -1.35304         4.92019
     2010.16564        -4.63074         4.93257
     2010.16837         3.63156         4.92196
     2010.17077         2.89419         5.86461
     2010.20397        -7.11955         5.00331
     2010.20670        -6.57725         5.00331
     2010.20944        -3.32895         4.93168
     2010.21218        -4.67865         4.92992
     2010.21492        -8.76135         4.92815
     2010.21765        -6.01805         4.98209
     2010.22039        -0.43375         4.97413
     2010.22313       -11.61345         4.90250
     2010.22587        -7.63615         4.98739
     2010.22861        -4.94585         5.02719
     2010.23134        -3.57155         5.05283
     2010.23408       -10.41025         4.99270
     2010.23956         2.33935         5.03957
     2010.24230         7.66465         5.20316
     2010.24503         2.48895         5.08113
     2010.24777        -0.66675         5.06167
     2010.25051        -2.49545         5.11473
     2010.25325        -4.44715         5.01481
     2010.25598         0.05915         4.97236
     2010.25872         2.73344         5.00154
     2010.26146         3.30774         5.04045
     2010.26420         0.35204         5.12623
     2010.26694         3.29234         5.10854
     2010.26967         0.05964         5.09705
     2010.27241        -5.18706         5.13153
     2010.27515        -2.93276         5.04134
     2010.27789        -1.92346         5.02277
     2010.28062        -2.50216         5.05372
     2010.28336        -7.26886         5.13949
     2010.28610        -5.66456         5.07848
     2010.28884        -8.27326         5.00154
     2010.29158        -2.23996         5.06875
     2010.29431         0.72334         5.08378
     2010.29705        -4.60836         4.99977
     2010.29979        -3.41806         5.08201
     2010.30253         5.47224         5.14126
     2010.30527         4.28854         5.12888
     2010.30800         3.45084         4.99889
     2010.31074        -4.73086         5.07229
     2010.31348         2.71444         4.97855
     2010.31622        -2.75726         4.94583
     2010.31895        -4.73796         5.18459
     2010.32169         1.43334         5.11915
     2010.32443         5.80164         5.05902
     2010.32717         1.70794         5.00154
     2010.32991         4.40024         4.94937
     2010.33264        -0.30546         4.98386
     2010.33538        -0.91716         5.11562
     2010.33812        -3.89986         5.11031
     2010.34086        -4.68556         4.99889
     2010.34360        -7.25126         5.00950
     2010.34633        -3.58997         5.02100
     2010.34907        -0.63167         4.95291
     2010.35181        -0.17437         4.90958
     2010.35455        -1.46907         4.97944
     2010.35728        -0.62977         4.99270
     2010.36002        -0.43247         4.98032
     2010.36276         0.65683         4.91311
     2010.36550        -5.69387         5.03249
     2010.36824        -7.45657         5.07494
     2010.37097        -2.00827         4.94406
     2010.37371         0.79203         4.93345
     2010.37645         1.84933         4.98651
     2010.37919         4.41363         5.13330
     2010.38193        -2.72507         5.18813
     2010.38466         4.50823         5.10324
     2010.38740        -9.49547         5.07405
     2010.39014         3.50883         5.02542
     2010.39288        -0.45887         5.02542
     2010.39561        -3.84557         5.12977
     2010.39835        -4.77627         4.93964
     2010.40109        -2.39497         4.93434
     2010.40383        -3.26267         4.96882
     2010.40657         2.18863         4.91135
     2010.40930        -2.53307         4.91400
     2010.41204        -1.66077         4.90604
     2010.41478         1.30353         4.89189
     2010.41752         2.69683         4.89012
     2010.42026         0.81513         4.92726
     2010.42299        -1.76757         4.93522
     2010.42573        -0.63627         4.91930
     2010.42847        -6.67597         4.97855
     2010.43121        -6.21367         4.90869
     2010.43394        -2.98138         4.96971
     2010.43668        -3.24008         4.92815
     2010.43942         3.16522         5.01127
     2010.44216        -5.93848         4.92903
     2010.44490        -0.20418         4.89366
     2010.44763        -1.40588         4.89897
     2010.45037        -7.10658         4.93964
     2010.45311         0.48672         4.89454
     2010.45585        -0.37798         5.01834
     2010.45859         1.41232         4.97236
     2010.46132         1.92262         4.97501
     2010.46406        -7.60408         4.94583
     2010.46680        -9.02978         4.95733
     2010.46954        -3.52248         4.93699
     2010.47227        -9.99618         4.93080
     2010.47501        -5.99888         4.90073
     2010.47775        -4.56358         5.07759
     2010.48049        -7.21028         5.13419
     2010.48323         3.21102         4.98297
     2010.48596        -3.77968         4.92638
     2010.48870        -5.84238         4.88835
     2010.49144        -1.94408         4.98032
     2010.49418        -3.50778         4.97590
     2010.49692        -2.86148         4.97944
     2010.49965        -0.68918         4.94318
     2010.50239         1.36112         4.92107
     2010.50513        -1.66358         4.93168
     2010.50787        -0.53028         4.94583
     2010.51060        -1.10798         4.90339
     2010.51334        -2.22068         4.94053
     2010.51608        -8.64138         4.88924
     2010.51882        -2.03608         4.90162
     2010.52156        -0.72779         4.98828
     2010.52429         0.90651         5.02100
     2010.52703        -0.02319         4.98386
     2010.52977         3.24711         5.00596
     2010.53251         3.35441         4.95114
     2010.53525        -3.11429         4.95114
     2010.53798        -6.09799         4.94760
     2010.54072        -2.37969         4.96529
     2010.54346        -5.86939         5.15099
     2010.54620         3.95391         4.95733
     2010.54893        -1.96579         4.94849
     2010.55167        -3.88649         5.09793
     2010.55441         1.30081         4.98651
     2010.55715         4.06111         4.97855
     2010.55989         1.48641         4.93964
     2010.56262         2.37071         4.94053
     2010.56536        -2.87299         4.95910
     2010.56810        -8.12369         5.00420
     2010.57084        -4.69739         4.98474
     2010.57357        -1.81609         5.16867
     2010.57631        -4.79079         5.19697
     2010.57905         1.91651         5.14657
     2010.58179         7.36681         5.16160
     2010.58453        -4.31189         4.96175
     2010.58726         4.83841         5.30132
     2010.59000        -0.49429         5.11827
     2010.59274         1.03001         4.99270
     2010.59548         0.24831         5.15983
     2010.59822        -3.04639         5.17044
     2010.60095         5.17091         5.04487
     2010.60369         7.43721         5.15718
     2010.60643         5.98151         4.94141
     2010.60917         3.27581         5.03161
     2010.61190         2.74010         4.99447
     2010.61464         4.84140         4.96352
     2010.61738         0.85170         5.00243
     2010.62012         0.81000         4.97325
     2010.62286        -7.99970         5.08201
     2010.62559         1.34860         4.94583
     2010.62833        -0.26410         4.98386
     2010.63107       -11.09480         5.38090
     2010.63381         1.54550         4.97501
     2010.63655        -1.91320         5.05018
     2010.63928         2.49510         5.10766
     2010.64202         0.10840         5.02984
     2010.64476        -6.49530         5.01215
     2010.64750        -3.96200         4.94849
     2010.65023         1.19230         5.02542
     2010.65297         3.07560         5.25887
     2010.65571        10.33390         5.16956
     2010.65845         1.88820         5.01569
     2010.66119         3.81550         4.95910
     2010.66392         2.42380         4.98297
     2010.66666         3.42910         4.90162
     2010.66940        -3.72260         4.89012
     2010.67214        -1.50630         4.86006
     2010.67488         0.30800         4.91400
     2010.67761         5.66530         4.93257
     2010.68035         2.53860         4.94230
     2010.68309         7.48290         4.88482
     2010.68583        12.54520         4.95202
     2010.68856         9.11050         4.89720
     2010.69130         2.73680         4.83883
     2010.69404        -3.16490         4.95468
     2010.69678        -4.21560         4.89454
     2010.69952         1.91069         4.87067
     2010.70225        -1.98001         4.93699
     2010.70499         1.88629         4.85917
     2010.70773         0.33759         4.84414
     2010.71047         7.65789         4.87155
     2010.71321         3.42419         4.88305
     2010.71594         9.20549         4.88924
     2010.71868         6.70379         4.86890
     2010.72142         5.72409         4.93522
     2010.72416        10.80539         5.07494
     2010.72689         7.33069         4.97767
     2010.72963         0.63299         4.85829
     2010.73237         7.05129         4.83088
     2010.73511         5.74759         4.79904
     2010.73785         5.92689         4.93345
     2010.74058         4.17419         4.92107
     2010.74332         2.96649         4.86625
     2010.74606         5.74679         4.89278
     2010.74880         2.45809         4.92284
     2010.75154         5.42939         4.88216
     2010.75427         7.73369         4.93168
     2010.75701         6.86799         5.01392
     2010.75975         7.47829         4.85475
     2010.76249        11.74359         4.89278
     2010.76522        10.78889         4.97678
     2010.76796         9.70519         4.94760
     2010.77070         1.31449         4.89454
     2010.77344         1.68679         4.97590
     2010.77618         5.96309         4.89808
     2010.77891         2.96139         4.87067
     2010.78165         0.93969         4.92196
     2010.78439         4.81199         4.96175
     2010.78713         8.75128         4.96352
     2010.78987         5.60458         4.88216
     2010.79260         7.03088         4.87421
     2010.79534         0.90318         4.85564
     2010.79808         4.41848         4.88216
     2010.80082         5.55978         4.84502
     2010.80355         2.82908         4.83530
     2010.80629         6.39038         4.85121
     2010.80903         5.58268         4.88835
     2010.81177         6.78498         4.80788
     2010.81451        11.45428         4.82380
     2010.81724         8.20458         4.82115
     2010.81998         6.64888         4.80788
     2010.82272        -3.10582         4.80346
     2010.82546        -0.11352         4.80700
     2010.82820        13.07378         4.78047
     2010.83093         6.86408         4.93168
     2010.83367         4.51138         4.94053
     2010.83641        -1.80232         4.81054
     2010.83915        -3.31902         4.80877
     2010.84188         3.34828         4.81231
     2010.84462         3.44158         4.75040
     2010.84736         0.27588         4.83176
     2010.85010        11.82218         4.84060
     2010.85284         7.84048         4.80700
     2010.85557         9.21478         4.74156
     2010.85831         5.04808         4.77163
     2010.86105         2.09338         4.71061
     2010.86379         0.89168         4.75394
     2010.86653        -1.30602         4.76278
     2010.86926         4.46328         4.79462
     2010.87200         3.96758         4.77516
     2010.87474        -3.95613         4.89720
     2010.87748         2.79217         4.85298
     2010.88021         3.81647         4.83972
     2010.88295         9.17777         4.90958
     2010.88569         5.66907         4.76455
     2010.88843         2.92637         4.95202
     2010.89117         4.85767         4.98828
     2010.89390        -0.12003         4.79020
     2010.89664        -0.15073         4.78047
     2010.89938         1.21157         4.77340
     2010.90212        -1.61713         4.79727
     2010.90485        -2.08083         4.78489
     2010.90759         5.05547         4.74156
     2010.91033         5.73077         4.79374
     2010.91307        -8.46293         4.75659
     2010.91581        -1.80663         4.71680
     2010.91854        -0.95933         4.75394
     2010.92128        -5.00703         4.77163
     2010.92402        -3.04373         4.74952
     2010.92676        -1.35043         4.79639
     2010.92950        -3.56013         4.79374
     2010.93223        -5.44083         4.79374
     2010.93497        -3.51753         4.79108
     2010.93771        -4.63623         4.79727
     2010.94045       -11.35293         4.93876
     2010.94318        -1.62363         4.81850
     2010.94592         4.75367         4.83441
     2010.94866         1.46597         4.79374
     2010.95140        -2.45773         5.21731
     2010.95414         2.79857         4.87774
     2010.95687        -0.44713         4.81673
     2010.95961        -4.50283         4.86094
     2010.96235        -2.37154         4.76102
     2010.96509         1.08476         4.80877
     2010.96783         3.15206         4.82026
     2010.97056        -7.03564         4.84591
     2010.97330        -5.55334         4.83618
     2010.97604        -0.18404         4.80081
     2010.97878        -0.98274         4.78489
     2010.98151        -1.15244         4.83264
     2010.98425        -0.76714         4.85564
     2010.98699        -0.70684         4.82026
     2010.98973        -0.11754         4.91135
     2010.99247        17.19676         4.93876
     2010.99520        11.42806         4.85121
     2010.99794         1.86436         4.84060
     2011.00342         2.67196         4.84502
     2011.00616         0.45526         4.76013
     2011.00889         3.84756         4.82734
     2011.01163         1.76586         4.78843
     2011.01437        -2.10484         4.76190
     2011.01711        -1.34654         4.89543
     2011.01984        -0.74824         4.82557
     2011.02258        -1.67994         4.81142
     2011.02532        -3.38564         4.86094
     2011.02806        -5.82434         4.97325
     2011.03080       -12.05004         4.78931
     2011.03353         0.10726         4.79108
     2011.03627        -4.71744         4.76986
     2011.03901        -0.51314         4.79020
     2011.04175         1.95916         4.81407
     2011.04449        -8.38954         4.79020
     2011.04722         2.33776         4.82203
     2011.04996        -0.58995         4.84945
     2011.05270        -6.37365         4.74952
     2011.05544        -0.02435         4.77340
     2011.05817         1.98695         4.79904
     2011.06091         3.21325         4.75748
     2011.06365        -0.32045         4.76102
     2011.06639        -3.42115         4.77251
     2011.06913       -15.60385         5.03161
     2011.07186        -9.40555         4.79639
     2011.07460        -7.96725         4.75040
     2011.07734        -6.51295         4.73891
     2011.08008        -1.32265         4.76632
     2011.08282        -3.77435         4.76721
     2011.08555        -3.23205         4.77074
     2011.08829        -5.84675         4.76897
     2011.09103        -4.71145         4.75748
     2011.09377        -0.77115         4.78312
     2011.09650         1.59015         4.80523
     2011.09924        -1.67755         4.80169
     2011.10198        -5.88025         4.83088
     2011.10472         4.92305         4.79550
     2011.10746         0.84335         4.75040
     2011.11019         3.61965         4.79727
     2011.11293         1.01495         4.82999
     2011.11567        -0.28775         4.82292
     2011.11841         1.17955         4.86359
     2011.12115        -0.33915         4.79462
     2011.12388         0.31115         4.90869
     2011.12662         2.68345         4.95910
     2011.12936        -7.54325         4.82380
     2011.13210         0.10005         4.81938
     2011.13483        -2.09665         4.78754
     2011.13757         1.09664         4.77340
     2011.14031         2.35494         4.76455
     2011.14305        -1.79176         4.85387
     2011.14579        -4.46246         4.87244
     2011.14852        -3.08716         4.74421
     2011.15126         2.64814         4.74775
     2011.15400         6.12144         4.73979
     2011.15674         4.11774         4.75748
     2011.15948         2.71604         4.75129
     2011.16221        -0.69666         4.76897
     2011.16495        -5.49436         4.73183
     2011.16769        -6.29206         4.73802
     2011.17043        -6.30576         4.74245
     2011.17316       -12.99046         4.74775
     2011.17590        -8.11316         4.73802
     2011.17864         1.31014         4.73360
     2011.18138        -1.08156         4.71503
     2011.18412        -8.63926         4.73802
     2011.18685        -3.68996         4.76102
     2011.18959        -3.79066         4.82734
     2011.19233        -1.74636         4.71769
     2011.19507        -0.75706         4.83530
     2011.19780        -5.06276         4.82026
     2011.20054        -2.07346         4.74775
     2011.20328         2.27084         4.90516
     2011.20602        -2.26186         4.90604
     2011.20876        -3.50156         4.75925
     2011.21149        -3.91726         4.74333
     2011.21423        -4.74596         4.74864
     2011.21697         2.51834         4.85740
     2011.21971        -3.12936         4.89808
     2011.22245        -4.46306         4.76809
     2011.22518        -1.94577         4.74421
     2011.22792        -0.84747         4.76721
     2011.23066        -2.26817         4.75748
     2011.23340        -1.63687         4.78135
     2011.23613        -1.80057         4.77693
     2011.23887        -5.61527         4.74245
     2011.24161        -3.06497         4.77516
     2011.24435         3.13033         4.82911
     2011.24709        -5.42637         4.81584
     2011.24982         1.42893         4.80435
     2011.25256         2.41523         4.80788
     2011.25530        -1.05847         4.85475
     2011.25804        -2.35917         4.95998
     2011.26078        -4.71187         4.97059
     2011.26351        -4.15257         4.80877
     2011.26625        -3.34327         4.76986
     2011.26899         1.11003         4.82822
     2011.27173        -1.73867         4.92107
     2011.27446        -4.67737         4.96175
     2011.27720       -11.22207         4.98916
     2011.27994        -3.99877         4.76278
     2011.28268         0.67353         4.77605
     2011.28542        -1.74617         4.76897
     2011.28815        -6.02987         4.76809
     2011.29089        -3.96057         4.76632
     2011.29363        -8.36327         4.78312
     2011.29637        -1.73397         4.75217
     2011.29911        -3.96667         4.74510
     2011.30184         1.73663         4.94230
     2011.30458        -1.57807         4.77340
     2011.30732        -3.45777         4.75394
     2011.31006        -0.24547         4.74598
     2011.31279        -4.98418         4.73979
     2011.31553        -1.82988         4.78489
     2011.31827        -0.01358         4.74687
     2011.32101        -4.93128         4.74068
     2011.32375        -1.90698         4.76721
     2011.32648        -5.71168         4.73272
     2011.32922        -8.04538         4.74068
     2011.33196        -9.29108         4.77516
     2011.33470       -11.99978         4.91754
     2011.33744        -8.03748         4.88216
     2011.34017        -4.55318         4.92019
     2011.34291        -4.10088         4.94230
     2011.34565         1.40442         4.89454
     2011.34839        -4.29528         4.94053
     2011.35112         0.20602         4.88305
     2011.35386        -8.77868         4.88835
     2011.35660        -7.68638         4.81319
     2011.35934       -14.10708         4.80169
     2011.36208        -9.87878         4.87067
     2011.36481        -8.94048         4.92373
     2011.36755       -11.69618         4.88835
     2011.37029        -7.97688         4.83088
     2011.37303        -2.53758         4.83618
     2011.37577         0.03472         4.80965
     2011.37850        -3.13098         4.80700
     2011.38124        -8.20068         4.82734
     2011.38398        -7.23338         4.82734
     2011.38672        -6.36008         4.86978
     2011.38945        -6.17778         4.83353
     2011.39219        -4.90048         4.84149
     2011.39493       -10.55518         4.86183
     2011.39767        -9.76588         4.87686
     2011.40041        -4.05759         4.84149
     2011.40314        -9.20829         4.85740
     2011.40588        -2.07999         4.82469
     2011.40862        -6.40669         4.83883
     2011.41136        -8.77139         4.85121
     2011.41410       -12.78309         4.85475
     2011.41683       -13.97079         4.86094
     2011.41957        -7.91149         4.80346
     2011.42231       -10.67219         4.80435
     2011.42505        -5.68189         4.86713
     2011.42853         2.10885         7.18485
     2011.43052        -4.31629         4.97325
     2011.43326       -10.87599         4.84326
     2011.43874        -7.68839         4.85829
     2011.44147        -7.51009         4.86536
     2011.44421        -8.27879         4.86890
     2011.44695       -12.46049         4.93345
     2011.44969       -12.43619         4.96617
     2011.45243       -14.25789         4.96529
     2011.45516        -8.98659         4.93080
     2011.45790       -10.10629         4.87951
     2011.46064       -10.46399         4.87509
     2011.46338        -7.37069         4.84502
     2011.46611        -3.79039         4.79639
     2011.46885        -6.94209         4.87332
     2011.47159        -6.36379         4.88924
     2011.47433       -12.18949         4.97413
     2011.47707        -2.70219         4.90427
     2011.47980        -1.06489         4.85475
     2011.48254        -6.27059         4.84591
     2011.48528       -14.26229         4.89985
     2011.48802        -1.08700         4.88747
     2011.49076        -8.83570         4.94849
     2011.49349        -6.06040         4.92107
     2011.49623        -8.44610         4.81761
     2011.49897        -3.59880         4.83707
     2011.50171        -3.60250         4.92815
     2011.50444        -0.63220         4.88482
     2011.50718        -6.93490         5.09086
     2011.50992        -1.30860         4.87863
     2011.51266        -8.64630         4.94495
     2011.51540        -5.05500         5.08201
     2011.51813        -5.11670         5.10235
     2011.52087        -7.79940         5.06256
     2011.52361        -0.33510         5.00331
     2011.52635        -4.18980         4.92461
     2011.52908         1.76050         4.95202
     2011.53182        -5.36020         4.92373
     2011.53456        -3.49190         4.88924
     2011.53730        -0.13060         4.96263
     2011.54004        -4.66230         4.91311
     2011.54277         5.80700         4.97590
     2011.54551         2.37230         5.10412
     2011.54825        -4.69440         4.96087
     2011.55099        -4.72510         4.91842
     2011.55373         1.93320         4.89808
     2011.55646        -0.42050         4.92992
     2011.55920        -1.54520         4.91754
     2011.56194        -1.61690         5.03691
     2011.56468        14.99340         5.28805
     2011.56741         7.64170         4.99624
     2011.57015         3.72500         5.03338
     2011.57289        -8.58370         4.93345
     2011.57563         7.75659         5.03249
     2011.57837        -0.67311         4.98651
     2011.58110        -1.93181         4.97944
     2011.58384         0.85849         4.99093
     2011.58658        -0.60121         5.22969
     2011.58932        -5.75891         4.96175
     2011.59206       -10.91061         5.22350
     2011.59479         1.60669         4.93787
     2011.59753        -0.71501         5.00508
     2011.60027         9.18129         4.91930
     2011.60301         1.12759         4.95910
     2011.60574         2.29189         4.85564
     2011.60848         8.79919         5.14745
     2011.61122         5.85049         5.11385
     2011.61396         2.71279         4.94760
     2011.61670        -1.73191         5.19167
     2011.61943         0.25439         5.08467
     2011.62217         4.12869         4.99358
     2011.62491        -2.00601         5.02896
     2011.62765         1.17829         4.88393
     2011.63039         5.69959         4.84856
     2011.63312         5.54389         4.90958
     2011.63586         6.76619         4.97413
     2011.63860         5.75849         4.95379
     2011.64134         5.23079         5.06875
     2011.64407         4.56009         4.98297
     2011.64681         5.20039         4.89366
     2011.64955         5.25469         5.07582
     2011.65229        -3.13401         5.00331
     2011.65503         1.41429         5.03426
     2011.65776         3.01359         5.25976
     2011.66050         0.94789         5.10766
     2011.66324         7.72618         5.17133
     2011.66598         7.75548         5.06433
     2011.66872         3.12178         5.07052
     2011.67058        12.30340         8.05411
     2011.68326         1.23094         8.53074
     2011.68514         1.33058         5.00331
     2011.68788         4.86588         4.98739
     2011.69062         4.24418         4.93434
     2011.69336         4.22748         4.99270
     2011.69609         0.52278         4.98297
     2011.69883         4.51208         4.97236
     2011.70157         2.26238         4.95114
     2011.70431         6.97368         4.92549
     2011.70705        -0.22602         5.05548
     2011.70978         2.67928         4.95910
     2011.71252         4.22158         4.92726
     2011.71526         4.67588         5.64265
     2011.71800        10.01418         6.36247
     2011.72073        10.22148         6.25900
     2011.72347         3.45578         6.44647
     2011.72621         7.68608         6.82230
     2011.72895         6.94338         6.64455
     2011.73169        10.94068         6.51545
     2011.73442        12.01598         6.48627
     2011.73716         1.31128         6.46416
     2011.73990         8.01858         6.47477
     2011.74264         5.58688         6.42260
     2011.74538         5.63618         6.53402
     2011.74811         8.50848         6.77278
     2011.75085        18.06777         6.88420
     2011.75359         9.51407         6.81787
     2011.75633         3.01337         6.78250
     2011.75906        13.87367         6.77189
     2011.76180         8.72397         6.39253
     2011.76454         7.12927         6.49069
     2011.76728         2.99357         6.13520
     2011.77002         0.10787         6.35274
     2011.77275         4.17117         6.47389
     2011.77549         7.70047         6.49157
     2011.77823        -2.81823         6.40137
     2011.78097         2.73707         6.52960
     2011.78371         7.25237         6.33417
     2011.78644         4.79767         6.48803
     2011.78918         6.81397         6.29968
     2011.79192         8.45127         6.64013
     2011.79466        -5.36243         6.26873
     2011.79739         3.54787         6.41906
     2011.80013        10.15017         9.91908
     2011.80287         0.77347         4.99447
     2011.80561        -0.39123         4.94230
     2011.80835         3.43907         4.91930
     2011.81108        -2.64563         4.88835
     2011.81382        -5.47833         5.08113
     2011.81656         0.92697         4.89278
     2011.81930         4.31127         4.88835
     2011.82203         4.10257         4.99270
     2011.82477         2.09887         5.06433
     2011.82751         4.33417         4.88040
     2011.83025         1.60647         4.92726
     2011.83202         2.44989         8.91453
     2011.83664        -2.97117         9.23022
     2011.83846         0.73536         4.96706
     2011.84120         8.43566         4.97944
     2011.84394         9.52496         4.90692
     2011.84668         9.84226         4.96352
     2011.84941         1.66456         4.95821
     2011.85215        -0.84314         4.97590
     2011.85489        -3.56184         5.00154
     2011.85763        -3.77254         5.12092
     2011.86036         5.76976         4.94849
     2011.86310         4.03606         4.99535
     2011.86584         7.50736         4.97855
     2011.86858         1.18466         4.96617
     2011.87132         8.85596         4.90869
     2011.87405         1.56226         4.90781
     2011.87679         3.04956         4.94672
     2011.87953         2.29286         5.04841
     2011.88227        -3.23984         5.00508
     2011.88501        -0.66554         4.89631
     2011.88774        -1.12724         4.98916
     2011.89020         0.17951         5.58783
     2011.91621         4.23185        10.38952
     2011.91786         6.35106         4.95291
     2011.92060         0.22436         4.95644
     2011.92334        -2.09634         4.97413
     2011.92607        -8.19605         5.05106
     2011.92881        -1.97275         4.94406
     2011.93155        -1.62145         4.94849
     2011.93429        -0.43815         4.94760
     2011.93702        -0.47985         4.93257
     2011.93976        -2.42155         4.92992
     2011.94250         4.04775         4.92726
     2011.94524         1.78005         4.93522
     2011.94798         5.23835         4.91311
     2011.95071         4.50765         4.91223
     2011.95345         5.74895         4.99624
     2011.95619        -1.72475         5.02630
     2011.95893        -2.40145         4.81496
     2011.96167         2.52485         4.81584
     2011.96440         4.88715         4.91577
     2011.96714         4.14645         4.92903
     2011.96988         7.25275         4.80700
     2011.97262        -0.57695         4.78135
     2011.97535         0.23035         4.79462
     2011.97809        -1.03435         4.77782
     2011.98083         0.29395         4.74156
     2011.98357         9.70625         4.75659
     2011.98631         6.91755         4.76102
     2011.98904         5.09885         4.77959
     2011.99178        -0.86885         4.79904
     2011.99452         9.82045         4.82734
     2011.99726         9.21975         4.81142
     2012.00273         0.70535         4.77605
     2012.00547        -1.31035         4.81496
     2012.00821         2.84295         4.78224
     2012.01095         3.60625         4.79020
     2012.01368        10.23554         4.75129
     2012.01642        11.25584         4.76986
     2012.01916         7.61414         4.73449
     2012.02190         5.63244         4.74245
     2012.02464         6.39574         4.76278
     2012.02737         6.39304         4.73183
     2012.03011         9.12334         4.73979
     2012.03285         4.54264         4.76367
     2012.03559         4.55194         4.74156
     2012.03833         8.03824         4.76102
     2012.04106         7.34754         4.79108
     2012.04380         5.27084         4.76013
     2012.04654         7.06114         4.78135
     2012.04928        11.38844         4.78047
     2012.05201        12.37074         4.79993
     2012.05749        10.63234         4.79197
     2012.06023        10.24864         4.84856
     2012.06297         1.95894         4.87332
     2012.06570        -0.55176         4.86802
     2012.06844         7.70354         4.87067
     2012.07118         4.12584         4.84502
     2012.07392         3.52014         4.79374
     2012.07666         1.67144         4.81761
     2012.07939         6.07574         4.80965
     2012.08213         6.82604         4.79285
     2012.08487         2.48334         4.81231
     2012.08761         3.48864         4.81673
     2012.09034         2.28094         4.77870
     2012.09308         3.05724         4.79374
     2012.09582         2.85654         4.79197
     2012.09804         3.93484         6.25281
     2012.10677        -0.31127         4.86713
     2012.10951         6.06203         4.85475
     2012.11225         2.50433         4.86802
     2012.11498         4.15463         4.88570
     2012.11772         6.65193         4.86890
     2012.12046        13.88323         4.86359
     2012.12320         6.00753         4.83883
     2012.12594        -0.11717         4.83707
     2012.12867         0.50813         4.85475
     2012.13141        -1.29157         4.87686
     2012.13415         8.36873         4.86359
     2012.13689         5.21603         4.87244
     2012.13963         3.38433         4.89808
     2012.14236        -2.24437         4.89366
     2012.14510         4.67093         4.88747
     2012.14784        -0.23577         4.76809
     2012.15058         1.44253         4.79639
     2012.15331        -1.03417         4.72653
     2012.15605         2.16613         4.80877
     2012.15879         1.39543         4.84237
     2012.16153         6.25073         4.82292
     2012.16427         4.66903         4.84591
     2012.16700         2.75633         4.88659
     2012.16974        -6.77337         4.73095
     2012.17248        -2.00107         4.71415
     2012.17522         0.45323         4.74333
     2012.17796         2.06353         4.82734
     2012.18069         2.44983         4.81142
     2012.18343        -3.92287         4.74687
     2012.18617        -6.48557         4.76278
     2012.18891         2.46672         4.74598
     2012.19164         2.47702         4.77782
     2012.19438         0.42532         4.78401
     2012.19712         5.33862         4.79108
     2012.19986         0.63692         4.82380
     2012.20260         2.75122         4.75217
     2012.20533         5.80152         4.78666
     2012.20807         3.41382         4.78843
     2012.21081        13.35612         4.80081
     2012.21355         6.00742         4.76986
     2012.21629         4.08672         4.76632
     2012.21902         0.63202         4.71857
     2012.22176        -0.40568         4.75394
     2012.22450        -2.40738         4.77782
     2012.22724        -2.89508         4.79108
     2012.22997        -0.85678         4.76897
     2012.23271        14.70852         4.78843
     2012.23545        -5.26718         4.78931
     2012.23819        -1.71788         4.76986
     2012.24093         0.33542         4.77605
     2012.24366         5.27872         4.75925
     2012.24640        -1.74598         4.81496
     2012.24914         5.99532         4.75394
     2012.25188         3.88262         4.72122
     2012.25462        -3.63808         4.76013
     2012.25735         3.17222         4.75659
     2012.26009        -1.17748         4.78047
     2012.26283        -0.69018         4.77782
     2012.26557        -1.22388         4.75483
     2012.26830        -2.85058         4.77340
     2012.27104        -5.15428         4.88835
     2012.27378        -1.91798         4.75040
     2012.27652         1.31132         4.78047
     2012.27926        -0.33439         4.85298
     2012.28199         3.56791         4.77163
     2012.28473         5.60921         4.79904
     2012.28747         2.21251         4.79108
     2012.29021        -0.09819         4.75659
     2012.29295        -2.48689         4.79020
     2012.29568         1.89341         4.79993
     2012.29842        -2.05129         4.83972
     2012.30116        -9.61199         4.88216
     2012.30390        -2.88469         4.85121
     2012.30663        -7.14739         4.85652
     2012.30937        -2.41109         4.82999
     2012.31211         4.97221         4.93434
     2012.31485        -2.95049         4.92461
     2012.31759         4.15881         4.86359
     2012.32032         1.56311         4.92903
     2012.32306        -0.61659         4.77163
     2012.32580        -0.31629         4.76986
     2012.32854         2.20301         4.83353
     2012.33128         4.54531         4.89366
     2012.33401         3.53961         4.88924
     2012.33675         0.79191         4.79020
     2012.33949        -0.89979         4.78224
     2012.34223        -7.35649         4.84679
     2012.34496        -7.77919         4.76632
     2012.34770        -4.46689         4.85387
     2012.35044        -2.94959         4.77693
     2012.35318         4.30171         4.75659
     2012.35592         3.67801         4.78754
     2012.35865        -0.87969         4.78666
     2012.36139        -1.07339         4.75748
     2012.36413        -5.64209         4.76367
     2012.36687        -3.97080         4.74952
     2012.36961        -0.26750         4.78489
     2012.37234         1.86580         4.75571
     2012.37508         6.77210         4.81584
     2012.37782         0.86440         4.86359
     2012.38056         2.32670         4.82999
     2012.38329         1.59200         4.82292
     2012.38603         1.44730         4.85829
     2012.38877        -3.40840         4.94849
     2012.39151         3.39790         4.88128
     2012.39425        -0.65780         4.91400
     2012.39664         8.97884         5.69748
