# ================= DQRFIT RESULTS ================
# INPUT FILE: series/INW1.rad
# OUTPUT: LDETRENDED
# FILTER FUNCTION: f(t)
# f(t)=+line(t)+annual(t)+jumps(t)
# line(t)=+P 1+P 2*t
# annual(t)=+P 3*sin(2*pi*t+P 4)
# jumps(t)=+P 5*heav(t-2008.5640  )
# heav(t)=(t<0?0:1)
# TOTAL OBSERVATIONS MTOT= 1759
# INITIAL TIME INTERVAL= 2012.4735 - 2006.6010 =  5.8726
# TOTAL OBSERVATIONS AFTER PREFILTER M= 1758
# TIME-SPAN= 2012.4735 - 2006.6010 =  5.8726
# OBSERVATIONS: USED M=  1758 REJECTED MTOT-M=     1 %USED=   99.9431
# N=  5 PARAMETERS
# MAXSIG= 175.00000
# MAXRES=  26.01319
# SCALE FACTOR FOR LENGTHS: SCL=  10.00000
# SCALE FACTOR FOR SIGMAS: SCLSIG=   1.00000
# CHI^2=   2058.112 DOF=  1753 CHI^2/DOF=   1.17405
# RMS=      6.167 SDEV=      6.169 MEAN=    0.02627
#  P #       PARAMETER +-    SIGMA %error PARAMETER NAME
# P 1 =      1824.49095 +-  323.988  17.76 YZERO                              
# P 2 =        -0.90445 +-    0.161  17.84 SLOPE                              
# P 3 =         5.26709 +-    0.209   3.97 ANNUAL AMPLITUDE                   
# P 4 =         3.02748 +-    0.056   1.84 ANNUAL PHASE                       
# P 5 =        -1.97168 +-    0.553  28.04 OFFSET 2008.5640                   
#       T            LDETRENDED       SIG_OBS
     2006.60095        -3.64449         6.10031
     2006.60369         4.98598         6.18158
     2006.60643         3.54346         6.15557
     2006.60917         1.43394         6.18483
     2006.61190        -1.47559         6.07972
     2006.61464         3.21489         6.10465
     2006.61738         4.90336         6.16749
     2006.62012         8.93584         6.23359
     2006.62286         2.58932         6.10573
     2006.62559         1.33079         6.04938
     2006.75975         8.18613         6.16099
     2006.76249        12.46161         6.20000
     2006.76522         6.04108         6.27368
     2006.76796         0.73756         6.25526
     2006.77070        -2.52497         6.11115
     2006.77344        -3.13149         6.15124
     2006.77618         4.22599         6.25309
     2006.77891        12.30746         6.08622
     2006.78165         9.33694         6.30727
     2006.78439         2.99442         6.08189
     2006.78713        12.09789         6.22383
     2006.78987        23.45737         6.11115
     2006.79260        10.88884         6.05155
     2006.79534         5.70232         6.18266
     2006.79808         9.63280         6.11006
     2006.80082         9.98227         6.34194
     2006.80355         0.06775         6.07647
     2006.80629         2.85923         6.11765
     2006.80903         8.93770         6.17941
     2006.81177         5.85818         6.21192
     2006.81451         3.39065         6.38203
     2006.81724        -0.65587         6.22492
     2006.81998         1.80161         6.09814
     2006.82272         2.68008         6.09706
     2006.82546        11.67956         6.13932
     2006.82820         7.68004         6.01146
     2006.83093         2.92351         6.07214
     2006.83367         5.41699         6.03855
     2006.83641         1.65746         6.15774
     2006.83915        22.77394         6.18049
     2006.84188        11.36842         6.48388
     2006.84462         8.99889         6.34844
     2006.84736         3.67737         6.15665
     2006.85010         6.22185         6.27584
     2006.85284         9.01232         6.46113
     2006.85557         7.34180         6.77860
     2006.85831        17.27127         6.41779
     2006.86105        12.37975         6.46655
     2006.86379        -0.03877         6.42320
     2006.86653         7.01670         6.65617
     2006.86926         7.73518         6.10681
     2006.87200         5.23166         6.17291
     2006.87474        11.93713         6.25959
     2006.87748         6.92261         6.18483
     2006.88021         1.59908         6.12632
     2006.88295         1.44356         6.14907
     2006.88569        16.65004         6.34519
     2006.88843         4.89551         6.15557
     2006.89117        -0.09301         6.12307
     2006.89390        -3.14453         6.79811
     2006.89664         1.62394         6.41454
     2006.89938         2.06542         6.22167
     2006.90212         3.18589         6.06780
     2006.90485        11.87037         6.18374
     2006.90759         7.67885         6.01796
     2006.91033        -2.05268         6.11115
     2006.91295         1.34270         6.24334
     2006.91581        -4.01572         6.07972
     2006.91854       -11.42825         6.10139
     2006.92128        -8.44477         6.10031
     2006.92402        -5.73430         6.16207
     2006.92676        -3.37582         6.11548
     2006.92950        -6.31134         6.28885
     2006.93223        -4.06687         6.13823
     2006.93497        -4.09239         6.37770
     2006.93771         4.76109         6.08297
     2006.94045        10.09356         6.16424
     2006.94318        12.56904         6.24984
     2006.94592         0.18751         6.22925
     2006.94866        10.57799         6.19566
     2006.95140         4.17147         6.09706
     2006.95414        10.58194         6.64316
     2006.95687         4.35542         6.21300
     2006.95961         0.08690         6.17182
     2006.96235        -0.15563         6.13607
     2006.96509        -0.09015         6.29210
     2006.96783        -3.35268         6.16207
     2006.97056         0.28180         6.20541
     2006.97330        -3.35072         6.18374
     2006.97604        -0.13725         6.12848
     2006.97878        -4.53977         6.12415
     2006.98151        10.02770         6.15340
     2006.98425         7.37218         6.44054
     2006.98699        15.72466         6.41670
     2006.98973        -5.15887         6.29643
     2006.99794        -7.14544         6.32569
     2007.00342         3.03351         6.37120
     2007.00616         2.75899         6.38095
     2007.00889        -3.74053         6.34302
     2007.01163        -0.93706         6.38528
     2007.01437        -0.11958         6.24334
     2007.01711        -8.19110         6.24659
     2007.01984       -17.95763         6.21733
     2007.02258        -5.54715         6.21517
     2007.02504        -4.73093         7.26728
     2007.05544        -1.59544         5.87277
     2007.05817        -9.97696         6.18808
     2007.06091        -5.59748         6.01905
     2007.06365        -8.98601         5.97245
     2007.06639        -6.17953         6.11331
     2007.06913       -10.77606         5.92911
     2007.07186        -8.02058         5.93995
     2007.07460       -12.16910         5.92153
     2007.07734        -9.29763         5.91178
     2007.08008        -9.56215         5.95078
     2007.08282        -7.86567         5.91286
     2007.08555        -8.58220         6.07864
     2007.08829       -10.91172         6.01688
     2007.09103        -2.65225         6.01688
     2007.09377         1.52423         5.98437
     2007.09650         0.61371         6.06672
     2007.09924        -4.71782         6.10248
     2007.10198       -13.05634         5.99737
     2007.10472        -3.16286         6.12090
     2007.10746        -3.66339         6.13932
     2007.11019         1.44309         6.01580
     2007.11293         2.36556         6.03747
     2007.11567        -4.59596         6.11223
     2007.11841       -11.02048         6.04613
     2007.12115        -7.98501         5.97570
     2007.12388        16.25547         6.37011
     2007.12662        -7.89905         6.08406
     2007.12936        -7.10058         6.20108
     2007.13210        -5.82510         6.14690
     2007.13466        -6.11278         6.43946
     2007.13757        -2.61215         6.00388
     2007.14031        -0.94867         5.93561
     2007.14305        -5.83220         5.88144
     2007.14579         1.24828         5.97787
     2007.14852        -2.38524         5.97245
     2007.15126         3.72523         5.93345
     2007.15400         4.91571         5.97137
     2007.15674         3.92418         5.99521
     2007.15948         0.70666         5.94753
     2007.16221        -1.74286         6.18158
     2007.16495        -4.90439         6.13065
     2007.16769        -4.68191         6.11981
     2007.17043        -8.93543         6.12848
     2007.17316        -8.97996         6.08731
     2007.17590        -8.93848         6.11873
     2007.17864        -1.96201         6.20433
     2007.18138         5.00247         6.17182
     2007.18412         2.17295         6.11656
     2007.18685        -3.37558         6.11440
     2007.18959        -4.43810         6.15991
     2007.19233       -10.26262         6.16857
     2007.19507       -10.66115         6.08622
     2007.19780        -6.63367         5.95078
     2007.20054        -7.24120         6.04505
     2007.20328        -3.04872         6.02555
     2007.20602        -9.48824         5.98546
     2007.20876       -11.17377         5.99412
     2007.21149        -4.43729         5.97679
     2007.21423         1.86719         6.05914
     2007.21697        -6.89534         6.02988
     2007.21971        -8.22086         5.96053
     2007.22245        -0.05739         6.01688
     2007.22518         8.19109         5.94428
     2007.22792         4.72857         5.96487
     2007.23066        -3.05396         5.94645
     2007.23340         3.69052         6.12740
     2007.23613        -4.22800         6.08406
     2007.23887       -13.55153         5.93453
     2007.24161        -9.35005         5.92911
     2007.24435        -1.50258         5.97354
     2007.24709        -2.99110         6.01905
     2007.24982        -5.74562         6.00929
     2007.25256        -8.19315         5.97029
     2007.25530       -10.07667         5.99954
     2007.25804       -11.47519         6.03855
     2007.26078        -9.22572         6.09814
     2007.26351        -6.36224         6.15774
     2007.26625        -5.38677         6.10356
     2007.26899         4.31471         6.08189
     2007.27173         0.66919         6.12957
     2007.27446         3.55266         6.15015
     2007.27720        -2.71286         6.08622
     2007.27994        -4.71538         6.12090
     2007.28268        -1.31691         6.29751
     2007.28542         4.66657         6.24550
     2007.31553        -2.50119         6.04505
     2007.31827        -0.34572         6.15557
     2007.32101        -5.75224         6.13498
     2007.32375       -10.11076         6.12198
     2007.32648        -3.47129         6.33219
     2007.32922        -1.69281         6.08297
     2007.33196         2.45466         6.27151
     2007.33470        -4.15086         6.35061
     2007.33744        -5.65138         6.04938
     2007.34017        -6.30191         6.10248
     2007.34291       -10.47943         6.15124
     2007.34565       -10.59195         6.14365
     2007.34839        -7.10048         6.20108
     2007.35112        -8.73600         6.19133
     2007.35386        -7.39253         6.53589
     2007.35660       -10.14505         6.58357
     2007.35934        -2.72957         6.16532
     2007.36208        -7.58710         6.10465
     2007.36481        -9.05762         6.38420
     2007.36755        -9.33814         6.09381
     2007.37029        -0.82067         6.13173
     2007.37303        -1.62519         6.35169
     2007.37577        -9.88872         6.35277
     2007.37850        -1.34624         6.24117
     2007.38124        -4.78476         6.21625
     2007.38398        -2.16529         6.16316
     2007.38672         6.39319         6.34844
     2007.38945       -14.45133         6.21950
     2007.39219        -8.15286         6.37986
     2007.39493        -7.95338         6.10356
     2007.39767        -9.86391         6.09273
     2007.40041        -6.30743         6.36469
     2007.40314        -0.77295         6.19675
     2007.40588       -11.34348         6.19133
     2007.40856        -8.29205         6.33761
     2007.41136       -10.79352         6.14690
     2007.41410        -7.38405         6.10248
     2007.41683        -5.95857         6.22167
     2007.41957        -2.14110         6.16532
     2007.42231        -6.51062         6.24984
     2007.42505         0.20386         6.38528
     2007.42778         4.65033         6.06997
     2007.43052         0.67381         6.08839
     2007.43326        -2.10671         6.05697
     2007.43600        -5.37724         6.09273
     2007.43874         8.70524         6.48605
     2007.44147        -0.95329         6.18808
     2007.44421        -6.02381         6.22492
     2007.44695       -14.76233         6.16857
     2007.44969       -11.21586         6.18808
     2007.45243        -6.72938         6.16532
     2007.45516        -8.58290         6.16641
     2007.45790         0.37757         6.16966
     2007.46064        -0.59395         6.07972
     2007.46338        -4.26048         6.15015
     2007.46611        -4.41800         6.06672
     2007.46885        -2.26752         6.11440
     2007.47165        -3.34700         6.15340
     2007.47456         0.03564         6.81436
     2007.47707        -4.46209         6.29535
     2007.47980       -14.69562         6.21083
     2007.48254       -14.47014         6.08081
     2007.48528       -11.41667         5.98004
     2007.48802        -6.56919         5.99954
     2007.49076        -1.75071         6.15124
     2007.49378        -3.43998         6.96714
     2007.49623        -5.48176         6.19783
     2007.49897        -4.88228         6.05697
     2007.50171        -9.67581         6.00171
     2007.50444        -9.24433         6.06347
     2007.50718        -7.11586         6.02988
     2007.50992        -7.49838         6.05264
     2007.51266        -8.47590         6.19675
     2007.51540         1.35857         6.03530
     2007.51813        -2.56495         5.96379
     2007.52087        -5.34747         6.11223
     2007.52350        -4.97510         6.37011
     2007.52635        -2.42552         6.07322
     2007.52908        -8.30805         6.30727
     2007.53182         0.23143         6.28018
     2007.53456        -3.63509         6.17507
     2007.53730         1.72938         6.18266
     2007.54004         3.75686         6.37661
     2007.54277        -4.50166         6.19133
     2007.54551         9.27881         6.36361
     2007.54825        -4.74371         6.06239
     2007.55099         1.32276         6.21192
     2007.55373         1.95724         6.15774
     2007.55646        -4.54228         6.19458
     2007.55920       -11.03381         6.27801
     2007.56194        -1.93233         6.08622
     2007.56468         2.28315         6.10898
     2007.56741        -0.30938         6.11006
     2007.57015         6.56410         6.20975
     2007.57289         2.44957         6.14365
     2007.57563        -4.25995         6.06997
     2007.57837        -1.17447         6.13390
     2007.58110         6.53100         6.03313
     2007.58384         4.54048         6.10248
     2007.58658         3.53096         6.43404
     2007.58932        -2.03457         6.03096
     2007.59206        -3.79609         6.08731
     2007.59469        10.63329         6.47738
     2007.59754         0.03387         6.31593
     2007.60027        12.35834         6.11656
     2007.60301        -0.39419         6.08622
     2007.60574         8.14529         6.04397
     2007.60848         2.73777         5.98112
     2007.61122         9.22924         5.98546
     2007.61396        -1.70628         6.06997
     2007.61670        -2.21081         6.43296
     2007.61943        -1.06233         6.38853
     2007.62217         8.48415         6.28668
     2007.62491         1.83762         6.33435
     2007.62765         8.10110         6.40370
     2007.63039         8.58558         6.54131
     2007.63312         7.53405         6.27368
     2007.63586         2.60053         6.16316
     2007.63860        -3.03700         6.15774
     2007.64134         3.49248         6.02663
     2007.64407         6.35596         6.30402
     2007.64681        -0.38857         6.29426
     2007.64955         6.60991         6.48497
     2007.65229        -1.94161         6.35277
     2007.65503         2.47086         6.25742
     2007.65776         2.95734         6.21517
     2007.66050        -3.37419         6.34952
     2007.66324         8.95029         6.33110
     2007.66598         4.65677         6.32135
     2007.66872         1.73624         6.24225
     2007.67145         3.27672         6.25309
     2007.67419        -0.27980         6.24442
     2007.67693        10.12067         6.27584
     2007.67967         4.66915         6.23467
     2007.68240         6.80862         6.27043
     2007.68514         2.34810         6.46655
     2007.68788         3.99258         6.37445
     2007.69062         5.55405         6.25309
     2007.69336         5.87953         6.17833
     2007.69609         6.76801         6.19675
     2007.69883         4.95748         6.21083
     2007.70157         3.66096         6.25309
     2007.70431         7.20943         6.47738
     2007.70705         9.75291         6.35603
     2007.70978         8.32039         6.27584
     2007.71252        10.66486         6.39503
     2007.71526         6.22434         6.06672
     2007.71800         2.88382         6.18049
     2007.72073        11.36029         6.06889
     2007.72347        10.06577         6.16207
     2007.72621         8.72924         6.12198
     2007.72895         1.66372         6.06130
     2007.73169         5.23920         6.11765
     2007.73442         3.79767         6.09164
     2007.73716         6.94415         6.30077
     2007.73990        12.03163         6.12415
     2007.74264        16.59610         6.06239
     2007.74538         9.38758         6.07106
     2007.74811        13.78105         6.23034
     2007.75085         9.37453         6.43296
     2007.75359        13.54701         6.29643
     2007.75633        11.98248         6.12848
     2007.75906         8.99096         6.01038
     2007.76180         9.35744         6.12090
     2007.76454         1.55391         6.11440
     2007.76728         4.00439         6.41345
     2007.77002         5.77886         6.54456
     2007.77275         5.89334         6.33110
     2007.77549         6.31782         6.11873
     2007.77823         7.44029         6.06780
     2007.78097         6.26877         6.07864
     2007.78371         3.88525         6.06455
     2007.78644        10.42872         6.02446
     2007.78918         9.90720         6.12090
     2007.79192        19.75867         6.20975
     2007.79466        18.31115         6.34627
     2007.79739        19.16163         6.31702
     2007.80013         6.36010         6.12740
     2007.80264        11.71937         6.49255
     2007.80561         0.40206         6.12957
     2007.80835         0.44453         6.23684
     2007.81108         9.25101         6.12523
     2007.81382        -2.45352         6.31377
     2007.81656        -1.57704         6.38095
     2007.81930        -2.82656         6.19458
     2007.82203        -2.97709         6.20975
     2007.82477         3.11939         6.19350
     2007.82751         2.41687         6.17724
     2007.83025         3.31934         6.12090
     2007.83299         6.65582         6.17724
     2007.83572        -1.87471         6.02230
     2007.83846         2.37977         6.09164
     2007.84120         6.95225         6.05264
     2007.84394        -2.01428         6.04722
     2007.84668         0.11420         6.03313
     2007.84941         2.64068         6.04722
     2007.85215        16.28015         6.20866
     2007.85489        12.40863         6.40587
     2007.85763        10.06610         6.09814
     2007.86036         5.22658         6.01471
     2007.86310         7.82206         6.05155
     2007.86584         5.55053         6.11440
     2007.86858         1.72201         6.05589
     2007.87132         9.79949         6.03855
     2007.87405         7.75896         6.15665
     2007.87679         8.90644         6.12740
     2007.87953         5.20091         6.20758
     2007.88227        12.90939         6.16207
     2007.88501         3.50787         6.10790
     2007.88774        -2.65766         6.08297
     2007.89048        -2.44618         6.03096
     2007.89322        -5.04270         6.29318
     2007.89596         3.36377         6.26176
     2007.89807         2.31168         8.34757
     2007.90965        -0.63885         6.36686
     2007.91238         2.25063         6.10898
     2007.91512         3.61411         6.10465
     2007.91786         5.98858         6.14257
     2007.92060        10.46506         6.40804
     2007.92334         1.76353         6.18916
     2007.92607        -1.81199         6.21083
     2007.92881         3.44449         6.18266
     2007.93155         4.26096         6.17724
     2007.93429        -5.35856         6.18591
     2007.93697        -5.97514         6.28126
     2007.93976        -2.60361         6.90863
     2007.94136         7.12284        14.37745
     2007.95448        -5.12130        14.34169
     2007.95619         0.31525         6.17399
     2007.95893         0.30173         6.99748
     2007.96167         9.67820         6.99640
     2007.96440        12.48368         6.24659
     2007.96714         5.01615         7.28570
     2007.96988       -10.85737         6.23250
     2007.97262        -3.96689         6.23792
     2007.97535        -0.30242         6.23467
     2007.97809        10.43706         6.30293
     2007.98083        -2.67346         6.16532
     2007.98357        -0.41299         6.16966
     2007.98631         3.58049         6.26934
     2007.98904         4.33396         6.26934
     2007.99178         3.44144         6.25201
     2007.99452        -3.05708         6.30185
     2007.99726       -11.68161         6.11115
     2008.00000       -17.16413         6.16641
     2008.00273       -10.58965         6.13498
     2008.00547        -2.89718         5.89661
     2008.00821        11.39730         5.98654
     2008.01095         1.38977         6.06997
     2008.01368         0.07525         5.98546
     2008.01642         9.05873         5.91719
     2008.01916         7.64520         5.96704
     2008.02190         5.52768         5.99846
     2008.02464         8.97615         6.03530
     2008.02737        -0.12437         6.04613
     2008.03011        -0.43689         6.03530
     2008.03285         0.56958         6.05589
     2008.03559         1.42806         5.99846
     2008.03833        -0.40546         6.20000
     2008.04106       -11.10699         6.06997
     2008.04380       -13.41151         6.18699
     2008.04654        -8.37004         6.17724
     2008.04928        -6.61956         6.11223
     2008.05201        -1.03108         6.04722
     2008.05475        -9.10361         6.00063
     2008.05749       -13.35513         5.99196
     2008.06023        -7.32065         6.14799
     2008.06297        -2.20018         6.08839
     2008.06570         0.84330         6.07431
     2008.06844        -1.25623         6.09706
     2008.07392        20.54173         6.04288
     2008.07666        19.54720         6.44704
     2008.07939         8.30668         6.33002
     2008.08213         6.40316         6.03530
     2008.08487        -6.10437         6.00279
     2008.08761        -4.92889         6.02555
     2008.09034         1.97358         6.06997
     2008.09314        -4.99189         6.28993
     2008.09582         0.72354         6.21408
     2008.09856        -1.17599         6.18158
     2008.10130         2.44649         6.21408
     2008.10403         0.74297         6.08189
     2008.10677        -3.69556         6.28560
     2008.10951       -14.40708         6.09381
     2008.11225        -1.47161         5.94537
     2008.11498        -1.36913         5.97787
     2008.11772        -5.05765         6.01580
     2008.12046        -6.07818         6.11548
     2008.12320        -5.57570         6.39070
     2008.12594        10.97178         6.15232
     2008.12867        -3.00075         6.03313
     2008.13141        -5.69227         5.95512
     2008.13415        -2.16580         5.96270
     2008.13689        -2.02732         6.10356
     2008.13963         2.09416         5.91828
     2008.14236         0.03763         5.99412
     2008.14510        -1.51789         5.99196
     2008.14784        -2.77041         6.06022
     2008.15058         0.04606         6.06130
     2008.15331        -4.56646         6.00496
     2008.15605        -9.02099         5.96920
     2008.15873        -4.50956         6.24767
     2008.16347         3.31472         9.27399
     2008.16723        -6.29587         6.87612
     2008.16974       -10.17060         6.02880
     2008.17248        -2.15513         5.92044
     2008.17499       -11.43086         6.80353
     2008.17796       -10.03418         5.98329
     2008.18004       -13.94329         8.32264
     2008.19439         1.24369        11.51474
     2008.19712         0.82316         5.97354
     2008.19986        16.20563         5.96920
     2008.20260         6.23711         6.02880
     2008.20533         6.04159         6.17833
     2008.20807        -4.91994         6.26067
     2008.21081         5.64654         6.37228
     2008.21355         0.34302         6.21083
     2008.21629         7.89249         6.25417
     2008.21902        -4.31903         6.16532
     2008.22176       -14.97856         6.12957
     2008.22450        -9.34508         6.24009
     2008.22724        -2.28160         6.26392
     2008.22997        -3.59813         6.21192
     2008.23271        -5.22065         6.28018
     2008.23545        -9.54217         6.19675
     2008.23819        -5.95970         6.07539
     2008.24093         0.65978         6.04180
     2008.24366        -3.31875         5.98979
     2008.24640        -6.24827         6.04180
     2008.24914        -7.82579         6.15015
     2008.25193        -5.19326         6.26067
     2008.25467        -2.55979         6.03855
     2008.25735         1.81664         6.06780
     2008.26009        11.40711         6.08514
     2008.26283        -0.96641         6.09489
     2008.26557        -4.46094         5.99846
     2008.26830        -5.44946         6.00604
     2008.27104         2.18802         5.96053
     2008.27378        -3.47551         5.96379
     2008.27652        -9.15603         5.95837
     2008.27926       -14.52655         6.07864
     2008.28199        -7.62408         6.09056
     2008.28473         6.43640         5.93886
     2008.28747         6.03687         6.04938
     2008.29021        -1.87565         6.01146
     2008.29295        -7.22417         5.93886
     2008.29568        -0.22070         5.93128
     2008.29842        -3.44122         6.01146
     2008.30116        -0.93974         5.94211
     2008.30390        -0.51727         5.94970
     2008.30663        -4.43979         5.92153
     2008.30937         3.07968         6.05914
     2008.31211        -1.06384         6.06455
     2008.31485        -4.25736         5.99196
     2008.31759        -6.55689         5.97245
     2008.32032        -9.53241         6.43296
     2008.32306        -9.46993         5.99954
     2008.32580        -2.84346         6.25526
     2008.32854         0.92602         6.14690
     2008.33128        -4.24951         6.14474
     2008.33401        -5.01103         6.12848
     2008.33675        -2.54655         6.04938
     2008.33949        -5.80108         6.35603
     2008.34223        -6.75860         6.03205
     2008.34496        -2.61812         5.94862
     2008.34770         1.66035         5.97679
     2008.35044        -2.91217         5.87060
     2008.35318        -2.85870         5.85977
     2008.35592         0.85378         5.87277
     2008.35865        -0.78674         5.98546
     2008.36139         1.66173         5.96704
     2008.36413        -2.62279         5.87060
     2008.36687         2.01069         5.88902
     2008.36961        -7.91384         6.15665
     2008.37234       -13.91336         6.22383
     2008.37508        -6.09489         5.91503
     2008.37782         2.25259         6.15557
     2008.38056         1.64207         6.11115
     2008.38329        -3.26346         6.34844
     2008.38603         4.94002         6.40478
     2008.38877        -3.11350         6.18374
     2008.39151         0.16197         6.14690
     2008.39425        -9.81855         5.96487
     2008.39698        -0.81408         5.99087
     2008.39972         0.22640         6.11006
     2008.40246        -3.75012         6.19350
     2008.40520        -7.87565         5.95620
     2008.40794         0.86783         5.85435
     2008.41067        -1.59269         6.25959
     2008.41341        -6.86622         6.11548
     2008.41615         2.60926         6.09706
     2008.41889        -2.03727         6.21517
     2008.42162         4.83321         6.15882
     2008.42436         3.15769         6.02771
     2008.42704        -1.50289         6.18591
     2008.42984        -5.44636         6.29318
     2008.43258         6.10612         6.55106
     2008.43531        -0.64041         6.11223
     2008.43805         2.71207         6.15882
     2008.44079         1.41554         6.04397
     2008.44353        -4.41698         6.02446
     2008.44626        -0.93450         6.14907
     2008.44900       -10.40903         6.16641
     2008.45174        -1.73155         6.18483
     2008.45448        -1.66907         6.65075
     2008.45722        -0.38560         6.32677
     2008.45995        -2.40112         6.27043
     2008.46269        -7.87365         6.11331
     2008.46543        -5.75617         6.05805
     2008.46817        -5.80769         6.02988
     2008.47091        -9.01522         6.03205
     2008.47364         3.15226         6.12523
     2008.47638        -5.45226         6.06889
     2008.47912        -5.38479         6.26718
     2008.48186         0.86269         6.09923
     2008.48459        -5.01384         6.19891
     2008.48733        -3.46536         6.02771
     2008.49007        -3.84788         5.99196
     2008.49281        -5.62241         6.08189
     2008.49555        -7.84093         6.29968
     2008.49828        -5.72045         6.19024
     2008.50102         2.34202         6.34086
     2008.50376         0.28650         6.13173
     2008.50650         2.45897         6.11873
     2008.50924       -10.10255         6.12090
     2008.51197        -8.70207         6.09814
     2008.51471        -4.99060         6.04613
     2008.51745        -4.63712         6.09923
     2008.52019         3.03036         6.14582
     2008.52292        -6.76117         6.29968
     2008.52566        -8.42969         6.37553
     2008.52840        -0.73422         6.06672
     2008.53108        -1.68279         6.26067
     2008.53388         2.01574         6.16966
     2008.53661        -6.01279         6.12415
     2008.53935        -4.78631         6.12957
     2008.54209        -6.99683         6.14365
     2008.54483         1.00664         6.28668
     2008.54757         6.86912         6.15015
     2008.55030        -1.48441         6.06347
     2008.55304         1.19507         6.19241
     2008.55578         1.99055         6.12523
     2008.55852         6.83202         6.37553
     2008.56399         1.32298         6.04613
     2008.56673         1.60045         6.08839
     2008.56947        -2.63407         6.11006
     2008.57221         0.51440         6.13932
     2008.57494        -0.14412         6.21950
     2008.57768        10.70336         6.24334
     2008.58042         8.79183         6.05697
     2008.58316        -0.13669         6.16099
     2008.58590         9.87579         6.10573
     2008.58863        -1.35574         6.21517
     2008.59137         2.44574         5.98004
     2008.59411         1.58021         6.05047
     2008.59685        -0.14431         6.04722
     2008.59958         0.10517         6.41454
     2008.60232         0.15264         6.35061
     2008.60506         3.50512         6.41670
     2008.60780         7.91260         6.19350
     2008.61054        -2.18293         6.20541
     2008.61327         0.72855         6.13065
     2008.61601         4.31102         6.11440
     2008.61875         0.96550         6.04072
     2008.62149         4.97198         6.05589
     2008.62423         3.25245         6.21733
     2008.62696         5.72293         6.15991
     2008.62970         7.09341         6.25092
     2008.63244        13.40488         6.24984
     2008.63518        19.89036         6.26284
     2008.63791        12.55683         6.29968
     2008.64065         6.41031         6.12523
     2008.64339        -0.84421         6.16424
     2008.64613         8.17826         6.21625
     2008.64881         9.08069         6.48280
     2008.65160         7.97122         6.42862
     2008.65434        10.56369         6.16532
     2008.65708         1.70717         6.32677
     2008.65982         5.67964         6.21517
     2008.66256         4.43012         6.28560
     2008.66529         5.56460         6.05480
     2008.66803        -0.31993         6.11440
     2008.67077        -2.48245         6.19133
     2008.67351         5.47603         6.20541
     2008.67624        -0.98150         6.64750
     2008.67898         5.40098         6.15882
     2008.68172        -0.05555         6.08297
     2008.68446        -0.27307         6.17182
     2008.68720        -2.04059         6.12415
     2008.68993         4.29288         6.21842
     2008.69267        13.51736         6.34736
     2008.69541         2.81184         6.05372
     2008.69815         8.75231         6.33761
     2008.70089         5.26779         6.07214
     2008.70362         5.87326         6.16099
     2008.70636         3.76574         6.06022
     2008.70910         2.95822         6.12415
     2008.71184         3.97969         6.50230
     2008.71457         1.63017         6.12523
     2008.71731         3.35765         6.01363
     2008.72005         8.30912         6.14257
     2008.72279         9.60460         6.14907
     2008.72553        11.40007         6.20433
     2008.72832         5.52860         6.14907
     2008.73100         4.67203         6.11656
     2008.73374         8.58350         6.01905
     2008.73648         2.58098         6.06022
     2008.73921         4.55646         6.32027
     2008.74469        -0.44659         6.12415
     2008.74743         3.09388         6.11115
     2008.75017         1.51636         6.02013
     2008.75290         3.29884         5.97570
     2008.75564        13.77931         6.01038
     2008.75838        17.19079         6.02013
     2008.76112         6.95727         6.03205
     2008.76386        -0.09026         6.03096
     2008.76659        -0.46278         6.19241
     2008.76933        -3.65531         6.14907
     2008.77207         3.49017         5.95837
     2008.77481         3.22365         5.89227
     2008.77754        -1.53188         5.89444
     2008.78028         3.15760         5.93561
     2008.78302         3.00408         6.02230
     2008.78576        -3.64645         5.99846
     2008.78850        -2.13497         6.04397
     2008.79123         6.61650         5.95295
     2008.79397        -1.22802         5.89769
     2008.79671         0.31546         6.09164
     2008.79945         0.92093         5.95945
     2008.80219         9.43441         5.97570
     2008.80492         6.20189         6.13282
     2008.80766         3.13436         5.88577
     2008.81040         1.45684         5.90961
     2008.81308         5.53426         6.08081
     2008.81587         5.58879         6.03313
     2008.81861        -0.37873         5.88794
     2008.82135        -1.74726         5.92586
     2008.82409        -1.18478         5.95728
     2008.82683         3.75970         5.97137
     2008.82962         1.26322         6.36903
     2008.83230        -4.00435         5.99846
     2008.83504         5.80612         6.00063
     2008.83778        16.44260         5.99412
     2008.84052         2.47608         6.08081
     2008.84377        21.67202         7.74620
     2008.84599         5.97403         5.97029
     2008.84873        -0.05049         5.94645
     2008.85147        15.73798         6.04288
     2008.85420        15.13546         6.18591
     2008.85694        24.47193         6.06889
     2008.85968        15.53641         6.20758
     2008.86242         9.34289         6.05589
     2008.86516        11.82836         6.04072
     2008.86789         4.79284         6.05372
     2008.87063         0.12032         6.04288
     2008.87337        -2.97721         6.03747
     2008.87611        -0.52473         6.01796
     2008.87885        -0.20426         6.06130
     2008.88158         2.40322         5.93995
     2008.88432        -2.87130         6.03422
     2008.88706        -8.38183         6.04938
     2008.88980        -1.68135         6.18916
     2008.89253         7.94613         6.07214
     2008.89527        -0.30440         6.15774
     2008.89801        -1.64092         6.14582
     2008.90075        -4.66345         5.98762
     2008.90349        -1.98797         6.10139
     2008.90622        -2.37749         6.17941
     2008.90896         1.94598         5.95187
     2008.91170         8.93846         6.59115
     2008.91444        10.33994         5.93345
     2008.91718         7.58741         6.08297
     2008.91991         7.98389         6.14040
     2008.92265         0.02836         6.02230
     2008.92539        -3.02316         6.07756
     2008.92813         1.78032         6.54781
     2008.93086        -1.26421         6.33435
     2008.93360        -0.53673         6.08081
     2008.93634         3.25775         6.20108
     2008.93908        -6.94678         6.02880
     2008.94182        -4.77930         6.03313
     2008.94455        -8.55483         6.30943
     2008.94729        -4.25235         6.10139
     2008.95003        -3.57987         6.01363
     2008.95277        -4.71440         6.02988
     2008.95545        -2.62897         6.10248
     2008.95824        -2.47344         5.91394
     2008.96098        -4.36397         6.01471
     2008.96372         0.12951         6.00929
     2008.96646        -1.27802         6.09814
     2008.96919       -10.80054         6.01038
     2008.97193         0.66194         6.07539
     2008.97467         3.35241         5.95187
     2008.97741        -2.44711         5.97462
     2008.98927         6.14262        11.26445
     2008.99110         7.81627         6.02771
     2008.99384         1.31075         6.10031
     2008.99623       -12.45009         6.99531
     2009.01412        13.41709        12.82149
     2009.01545        -3.99370         6.86745
     2009.02395       -12.24801         7.75379
     2009.02669       -16.51254         6.23684
     2009.02943        -9.16706         6.25417
     2009.03101       -14.57764        18.19475
     2009.03833       -19.48801         8.93376
     2009.04038       -14.42816         6.01254
     2009.04312       -17.09968         6.05589
     2009.04585       -19.31020         6.09381
     2009.04859       -20.32173         6.07756
     2009.05133       -18.13125         5.89769
     2009.05407       -18.32478         5.94320
     2009.05681       -12.53630         6.03205
     2009.05954       -15.44282         6.06022
     2009.06228       -15.72335         6.01363
     2009.06502       -15.53787         6.00929
     2009.06776       -15.67840         6.07539
     2009.07049       -14.38692         6.09164
     2009.07323       -13.12144         6.02230
     2009.07597        -6.26897         6.15340
     2009.07871       -15.53649         5.99737
     2009.08145       -14.66201         5.94645
     2009.08418       -11.18154         5.98221
     2009.08692       -16.09906         5.95295
     2009.08966       -11.99259         5.99412
     2009.09240       -11.33811         6.05480
     2009.09514       -10.76163         5.94320
     2009.09787       -11.36616         6.39503
     2009.10061         0.20032         6.03747
     2009.10335       -10.00920         5.96379
     2009.10609        -4.36673         6.02230
     2009.10882        -3.76525         5.98437
     2009.11156        -8.10478         6.00604
     2009.11430        -6.43430         6.32027
     2009.11704       -11.22782         6.06780
     2009.11978        -7.40235         5.95295
     2009.12251        -1.88087         6.09164
     2009.12525       -10.21139         6.09923
     2009.12799        -4.27392         5.95403
     2009.13073        -6.16244         6.03205
     2009.13347        -9.70297         5.93886
     2009.13620       -13.54149         6.03205
     2009.13894        -9.60501         5.99954
     2009.14168       -14.60154         5.95187
     2009.14442       -14.15606         5.95728
     2009.14715        -6.99758         6.06130
     2009.14989        -6.34911         6.36036
     2009.15537         7.90884         6.30727
     2009.15795        -7.16882         6.42862
     2009.16737        19.79470        12.13344
     2009.16906         1.28223         6.28343
     2009.17180        -5.73930         6.06997
     2009.17453        -3.62882         6.07106
     2009.17727        -5.23035         6.17616
     2009.18001        -8.39787         6.11765
     2009.18275        -6.44339         6.05805
     2009.18548       -10.92792         6.04613
     2009.18822       -14.95644         6.05914
     2009.19096       -11.80796         6.01038
     2009.19370       -11.61649         6.06672
     2009.19644       -10.33301         6.04613
     2009.19917        -7.13854         6.03855
     2009.20191        -4.49506         6.13390
     2009.20465        -8.28158         6.59115
     2009.20739        -7.68111         6.06022
     2009.21013       -12.20563         6.21517
     2009.21286       -11.20615         6.14907
     2009.21560       -11.78168         6.12523
     2009.21834        -1.34920         6.08406
     2009.22108         8.03327         6.14040
     2009.22381        -4.32625         5.99629
     2009.22650        -6.38782         6.53481
     2009.22929        -2.92930         5.97029
     2009.23203        -6.29882         6.02663
     2009.23477       -11.42934         5.98654
     2009.23750        -5.26887         6.24334
     2009.24024         2.26061         6.35061
     2009.24298        -1.49192         6.11873
     2009.24572        -1.54144         6.23359
     2009.24846        -2.34996         5.99087
     2009.25119         1.08851         6.29860
     2009.25393         6.02099         6.45679
     2009.25667         0.20747         6.37336
     2009.25941       -12.62306         6.18699
     2009.26214       -13.62858         6.33435
     2009.26488        -7.31111         6.80569
     2009.26762        -0.81463         6.08948
     2009.27036        -7.85415         5.99521
     2009.27310        -9.81068         6.00821
     2009.27583        -2.32720         6.07322
     2009.27857        -8.70572         6.20433
     2009.28131        -9.87925         6.15665
     2009.28405        -6.99277         5.95837
     2009.42472        -1.33554        11.89290
     2009.42642        -2.53901         6.24767
     2009.42915       -12.24553         6.17507
     2009.43189       -10.74805         5.94645
     2009.43463        -6.67958         6.05589
     2009.43737        -8.26310         6.10031
     2009.44010       -11.31963         6.02013
     2009.44284        -4.39315         6.05155
     2009.44558        -5.77267         6.02338
     2009.44832        -4.66520         6.11765
     2009.45106        -1.94872         6.11548
     2009.45379       -12.23624         6.09381
     2009.45653        -2.64777         5.98762
     2009.45927         1.87071         6.01038
     2009.46201        -0.28382         6.14690
     2009.46475         2.98166         6.23575
     2009.46748        -5.45686         6.27476
     2009.47022       -10.94239         5.93778
     2009.47296        -4.20791         5.98762
     2009.47570        -4.45043         6.02013
     2009.47843       -11.17696         6.12957
     2009.48068         2.71008         7.90765
     2009.48391       -11.53501         6.22383
     2009.48665       -14.79453         6.21300
     2009.48939       -14.02205         6.09381
     2009.49212         3.12942         6.11765
     2009.49486       -11.27810         6.34952
     2009.49684        -5.57931        10.11481
     2009.49958       -17.40883         9.94903
     2009.50308       -12.30767         6.22925
     2009.50581        -3.55520         6.36036
     2009.50855        -0.42872         6.41779
     2009.51123        -0.99429         6.44379
     2009.51408         2.86728         6.38203
     2009.51676        -3.48029         6.09381
     2009.51950        -7.40481         6.07431
     2009.52224        -8.48334         6.12740
     2009.52498        -3.13886         6.04722
     2009.52772        -1.64439         6.47630
     2009.53045         3.37909         6.24984
     2009.53319        -2.11443         6.16207
     2009.53593        -2.66596         6.36686
     2009.53867         5.05552         6.14582
     2009.54141        -0.22400         6.09923
     2009.54414        -5.07253         6.18808
     2009.54688       -12.34905         6.26501
     2009.54962        -5.94558         6.39178
     2009.55236       -14.88310         6.13607
     2009.55509        12.82038         6.08081
     2009.55783         2.01785         6.12307
     2009.56057        -7.71767         6.52397
     2009.56331        -5.91619         6.34952
     2009.56605        -5.89672         6.22167
     2009.56878        -4.42924         6.09273
     2009.57152         7.15723         6.37228
     2009.57426        -5.41729         6.16207
     2009.57700        -3.62681         6.16316
     2009.57974        -0.88134         6.08297
     2009.58247        -1.01886         6.20758
     2009.58521         2.57862         6.18699
     2009.58795        -1.93891         6.10248
     2009.59069        -0.33343         6.15665
     2009.59342        -4.36096         6.25526
     2009.59616        -3.28448         6.28885
     2009.59890         6.47000         6.09923
     2009.60130         1.64616         7.25428
     2009.71389        -1.50100         6.38095
     2009.71663        -3.47052         6.19783
     2009.71937        -4.35705         6.25201
     2009.72210        -7.35757         6.13498
     2009.72484        -2.35110         6.20866
     2009.72758        -5.16162         6.18483
     2009.73032        -5.80814         6.06889
     2009.73305        -0.66567         6.46871
     2009.73585         9.62686         6.31702
     2009.73853         8.66729         6.14365
     2009.74127         0.43176         6.30835
     2009.74401         3.22424         6.31160
     2009.74640         4.00640         6.90430
     2009.74948         3.96119         7.02457
     2009.75222         2.62767         6.75260
     2009.75496         8.78314         6.31810
     2009.75775        -3.60833         6.32460
     2009.76043        -2.83090         6.31485
     2009.76317         2.78257         6.24876
     2009.76591        -2.62795         6.32027
     2009.76865         0.48052         6.62366
     2009.77138         5.25100         6.32352
     2009.77412        -6.08152         6.20866
     2009.77686        -0.13805         6.28126
     2009.77960         5.75643         6.61174
     2009.78234         9.63891         6.23792
     2009.78507        17.52038         6.35928
     2009.78781        10.88286         6.47630
     2009.79055        -1.78367         6.69734
     2009.79329        -1.23019         6.62149
     2009.79603        -2.01571         6.71576
     2009.79876         9.87576         6.76127
     2009.80144         3.08819         6.62691
     2009.80430         2.67177         6.45246
     2009.80692         5.70814         6.77319
     2009.80865         5.09871        12.14319
     2009.81245        17.87314         6.68434
     2009.81821        16.44535         7.89031
     2009.82318        -2.50716         8.31831
     2009.83333        -0.56397        11.46382
     2009.83619         4.13462        15.36672
     2009.83973        -2.35818         7.97050
     2009.84173         3.90562        12.68496
     2009.84525         9.11381         8.52527
     2009.84804         8.14234         6.73201
     2009.93678        -9.54041        15.79255
     2009.93839        -2.53595         6.32244
     2009.94113         1.33753         6.20866
     2009.94387        -1.88100         6.30402
     2009.94661        -0.90152         6.27151
     2009.94935        -2.54504         6.09706
     2009.95208        -5.25057         6.11223
     2009.95482       -11.51809         6.11765
     2009.95756         2.36839         6.13173
     2009.96030        -5.20514         6.17616
     2009.96303       -10.01766         6.17182
     2009.96577       -10.27319         6.27476
     2009.96851         4.13329         6.32244
     2009.97125        10.23577         6.34194
     2009.97399         3.99224         6.32894
     2009.97672       -10.19928         6.16207
     2009.97946       -17.15080         6.16749
     2009.98220       -11.74233         6.14365
     2009.98494        -9.71285         6.16532
     2009.98767       -10.15338         6.13498
     2009.99041        -9.68190         6.11548
     2009.99315       -10.31142         6.16749
     2009.99589        -7.90095         6.09814
     2009.99863       -11.09947         6.02663
     2010.00410        -5.13152         6.15665
     2010.00684        -9.58104         6.09381
     2010.00958        -7.71857         6.09814
     2010.01232        -6.78009         6.17074
     2010.01505       -15.01661         6.11440
     2010.01779       -15.68714         6.20541
     2010.02053       -11.75266         6.15449
     2010.02287       -13.28655         7.43956
     2010.10540        -4.19390         6.00063
     2010.10814        -2.75542         6.03096
     2010.11088        -5.94895         6.11440
     2010.11362        -3.36547         5.92261
     2010.11635         3.40201         5.92369
     2010.11909         7.18848         6.03096
     2010.12183        -3.97104         5.95078
     2010.12457         6.58344         5.95620
     2010.12731        -0.46809         6.09381
     2010.13004        -4.16061         6.09598
     2010.13278        -6.57414         6.12523
     2010.13552        -5.22866         6.12523
     2010.13826        -6.08918         6.06672
     2010.14099        -8.14871         5.99304
     2010.14373        -8.46523         6.22925
     2010.14647       -10.84775         6.22600
     2010.14921         0.41072         6.11223
     2010.15195         0.93520         5.93128
     2010.15468        -4.32433         5.94320
     2010.15742        -2.50185         5.97570
     2010.16016        -2.73537         5.92153
     2010.16290        -5.48790         5.97029
     2010.16564        -5.07642         5.96704
     2010.16837        -6.50694         5.97787
     2010.17111        -2.64147         5.89552
     2010.17385        -5.24599         5.94537
     2010.17659        -5.22952         5.94753
     2010.17932        -0.43304         5.95945
     2010.18206         4.62444         5.96920
     2010.18480        -2.79309         5.89552
     2010.18754        -2.46961         5.83268
     2010.19028        -3.43313         5.87060
     2010.19301         8.53234         6.00388
     2010.19575         4.06482         5.98654
     2010.19849        -8.13971         5.99412
     2010.20123       -12.56023         5.91178
     2010.20397        -6.05575         6.11765
     2010.20670       -11.20728         6.14040
     2010.20944        -7.63180         5.94428
     2010.21218        -8.77732         5.93778
     2010.21492        -9.94885         5.86627
     2010.21765        -6.56737         5.90636
     2010.22039         2.46510         6.03313
     2010.22313       -12.43142         5.93453
     2010.22587        -4.10094         6.03530
     2010.22861        -6.86447         6.02338
     2010.23134        -4.08299         6.01471
     2010.23956         6.06944         6.19891
     2010.24230         1.70291         6.22275
     2010.24503        -4.56461         6.11873
     2010.24777        -0.89113         6.11115
     2010.25051        -1.99366         6.28451
     2010.25325         5.11582         6.10356
     2010.25598         0.21430         6.17616
     2010.25872         3.38077         6.13065
     2010.26146         2.26025         6.30727
     2010.26420        -3.07928         6.30943
     2010.26694        -0.52980         6.05155
     2010.26967        -0.99132         6.10681
     2010.27241        -4.68885         6.18049
     2010.27515        -6.59637         6.06022
     2010.27789        -4.48389         6.15557
     2010.28062         0.07558         6.00496
     2010.28336        -2.67494         6.10139
     2010.28610        -3.62147         6.12632
     2010.28884        -4.30699         5.93020
     2010.29158        -2.59551         6.17507
     2010.29431        -2.73104         6.17616
     2010.29705        -2.17656         5.98437
     2010.29979         0.08492         6.08189
     2010.30253         4.46139         6.16316
     2010.30527        11.68887         6.28126
     2010.30800         3.28934         6.08297
     2010.31074        -3.83818         6.11548
     2010.31348        -3.46470         6.00604
     2010.31622        -3.02523         5.97570
     2010.31895        13.72025         6.17616
     2010.32169         9.32073         6.07214
     2010.32443         4.08120         6.15882
     2010.32717        12.28068         6.02446
     2010.32991         5.17815         5.95295
     2010.33264         7.13563         5.93453
     2010.33538         2.77311         6.23359
     2010.33812        -4.91342         5.99087
     2010.34086        -5.64794         5.97895
     2010.34360        -8.67446         5.90852
     2010.34633        -8.20599         5.95403
     2010.34907         0.85049         6.06997
     2010.35181        -9.25704         5.92586
     2010.35455        -4.92056         5.96270
     2010.35728        -4.80108         5.95187
     2010.36002        -4.30061         6.01796
     2010.36276        -3.81913         5.91936
     2010.36550        -0.61365         6.14474
     2010.36824        -7.91118         6.21842
     2010.37097         1.40430         5.95403
     2010.37371         1.09877         5.96487
     2010.37645         2.00725         6.02338
     2010.37919         0.34673         6.14365
     2010.38193        -3.20480         6.31377
     2010.38466         1.66168         6.07106
     2010.38740         3.54216         5.98112
     2010.39014         1.29363         5.94753
     2010.39288        -2.98989         6.04938
     2010.39561        -9.61842         6.04722
     2010.39835        -1.05794         5.88252
     2010.40109         3.37654         5.93670
     2010.40383        -4.64699         5.93345
     2010.40645         0.73939         6.25309
     2010.40930        -4.55403         5.88685
     2010.41204        -1.45256         5.95187
     2010.41478         8.57392         5.96812
     2010.41752        14.78839         5.96812
     2010.42026         8.92587         5.99954
     2010.42299         8.08835         5.95295
     2010.42573        -6.51218         5.91503
     2010.42847         0.16230         5.95187
     2010.43121        -1.65722         6.02013
     2010.43394        -2.76875         5.93020
     2010.43668         1.73073         6.06455
     2010.43942        -1.93680         5.91286
     2010.44216        -5.88132         5.83918
     2010.44490        -9.11984         5.83484
     2010.44763       -10.94237         5.85326
     2010.45037        -5.29989         5.91611
     2010.45311        -4.31441         5.86410
     2010.45585        -2.29694         5.97787
     2010.45859         5.74254         6.10681
     2010.46132        -9.30499         5.97679
     2010.46406        -6.57851         5.94645
     2010.46680         5.48597         5.94862
     2010.46954         7.47844         5.85760
     2010.47227       -10.77008         5.89227
     2010.47501        -7.91060         5.85543
     2010.47775        -5.83613         6.24334
     2010.48049        -6.48265         6.03530
     2010.48323       -11.07518         6.03747
     2010.48596        -0.01470         6.03422
     2010.48870        -0.76722         5.98004
     2010.49144         8.25725         5.92803
     2010.49418        -4.64927         5.91611
     2010.49692        -2.91579         5.85543
     2010.49965        -0.66232         5.92695
     2010.50239         5.56416         5.94970
     2010.50513        -2.43037         5.94320
     2010.50787        -4.21589         5.97679
     2010.51060        -7.82741         5.90636
     2010.51334        -4.31894         5.91178
     2010.51608        -4.63946         5.90419
     2010.51882        -1.42498         5.92153
     2010.52156        -0.41151         6.08622
     2010.52429         1.93497         5.91394
     2010.52703        -2.01556         6.24767
     2010.52977         5.83592         5.97895
     2010.53251        -4.37460         5.83159
     2010.53525        -1.25213         5.85326
     2010.53798        -8.30565         5.90094
     2010.54072        -8.80017         5.98004
     2010.54346        -2.87070         6.04938
     2010.54620        -5.26122         5.95945
     2010.54893        -7.45775         5.97679
     2010.55167        -7.67327         5.97570
     2010.55441         0.32321         6.11873
     2010.55715        -1.06332         5.90961
     2010.55989        -5.40884         5.97354
     2010.56262         2.10264         5.94103
     2010.56536         1.32511         5.90419
     2010.56810        -5.35141         5.95620
     2010.57084        -3.33194         6.03313
     2010.57357        -6.13746         6.35061
     2010.57631         6.87702         6.12740
     2010.57905        -0.14551         6.11331
     2010.58179         6.89097         6.08081
     2010.58453        -0.49455         5.86518
     2010.58726        -3.49508         6.21950
     2010.59000         2.71740         6.16316
     2010.59274         3.16487         6.03096
     2010.59548         7.19435         6.23575
     2010.59822         1.51783         6.18699
     2010.60095         7.39430         6.14907
     2010.60369        11.88978         6.01363
     2010.60643        -1.69874         6.00821
     2010.60917         0.99373         5.98112
     2010.61190        -1.05579         5.95403
     2010.61464         7.07168         6.16966
     2010.61738        -1.66984         5.99954
     2010.62012         0.49564         5.97029
     2010.62286        -1.22389         5.91069
     2010.62559         1.10759         5.99737
     2010.62833         2.84407         6.04397
     2010.63107         1.67154         6.11115
     2010.63381         9.80802         5.94970
     2010.63655        12.01049         6.08731
     2010.63928         1.98097         5.99846
     2010.64202        -2.89755         6.01688
     2010.64476        -7.17108         6.09598
     2010.64750        -0.63960         5.98221
     2010.65023         7.43988         6.07106
     2010.65297         0.28435         6.27368
     2010.65571         3.69683         5.90744
     2010.65845         3.49630         5.92478
     2010.66119         0.35878         5.98979
     2010.66392         4.04626         5.97462
     2010.66666         8.51173         5.87277
     2010.66940        -0.60679         5.96487
     2010.67214        -4.29431         5.85977
     2010.67488         1.21916         6.03855
     2010.67761         5.14964         5.93345
     2010.68035         2.91311         5.92044
     2010.68309         7.17959         5.92369
     2010.68583         6.75107         5.98546
     2010.68856         3.13254         5.88685
     2010.69130         1.44102         5.85001
     2010.69404        -2.18250         6.14582
     2010.69678        -2.27003         5.95620
     2010.69952        -1.53555         5.95187
     2010.70225         3.63592         5.91936
     2010.70499         2.98340         5.87710
     2010.70773         4.80888         6.00279
     2010.71047         8.03635         6.05589
     2010.71321         3.60583         5.98221
     2010.71594        18.03731         6.05155
     2010.71868         7.50878         5.89010
     2010.72142         1.67126         6.15665
     2010.72416         0.01173         6.11765
     2010.72689         4.43321         6.07431
     2010.72963         0.98369         5.96162
     2010.73237         3.66016         5.91394
     2010.73511        -0.57436         6.00063
     2010.73785         2.06512         6.26067
     2010.74058         5.92959         6.15882
     2010.74332        -2.07593         5.94645
     2010.74606         2.39054         6.00604
     2010.74880         1.66902         5.98004
     2010.75154         6.10850         6.01363
     2010.75416        11.21287         6.34952
     2010.75701        16.77445         6.09381
     2010.75975         0.77693         5.95187
     2010.76249         7.23840         6.27151
     2010.76522         7.17288         5.98437
     2010.76796        15.79335         6.00171
     2010.77070         4.12183         6.02880
     2010.77344         7.90031         6.04072
     2010.77618         3.09978         6.15124
     2010.77891        -1.43974         6.04180
     2010.78165         1.97274         6.01580
     2010.78439         2.64721         6.12307
     2010.78713        11.69069         6.17399
     2010.78987         1.49216         6.00821
     2010.79260         1.04264         5.95837
     2010.79534         3.04012         5.98546
     2010.79808         1.04259         5.92586
     2010.80082         4.52007         5.97354
     2010.80355         4.47355         5.92803
     2010.80629         8.43402         5.98871
     2010.80903        10.40250         6.02121
     2010.81177        21.53997         6.01688
     2010.81451        13.45445         5.99954
     2010.81724         9.39993         5.93561
     2010.81998         4.81340         5.94645
     2010.82272         0.76488         6.03963
     2010.82546        15.80836         5.98112
     2010.82820        12.88183         5.90852
     2010.83093        14.69931         6.17616
     2010.83367         4.46678         6.20650
     2010.83641         0.63726         6.05480
     2010.83915         0.01674         5.90094
     2010.84188        -0.68879         5.93670
     2010.84462         5.63069         5.92369
     2010.84736         3.43017         5.87277
     2010.85010        13.80964         5.88360
     2010.85284        10.77812         5.83268
     2010.85557         6.13859         5.84893
     2010.85831         6.42707         5.85110
     2010.86105        -3.30845         5.83593
     2010.86379         1.99902         5.85760
     2010.86653        -5.41450         5.82943
     2010.86926         8.21198         5.86843
     2010.87200         8.21745         5.86735
     2010.87474         5.93093         5.98112
     2010.87748         0.26140         5.98762
     2010.88021         3.35488         5.99629
     2010.88295         1.89036         5.91069
     2010.88569         6.91183         5.85326
     2010.88843        -0.38269         6.18699
     2010.89117         0.15979         6.08622
     2010.89390         2.57326         5.83268
     2010.89664         0.73974         5.77850
     2010.89938         2.12921         5.80559
     2010.90212         1.52369         5.80776
     2010.90485         2.62217         5.78500
     2010.90759         7.57764         5.76333
     2010.91033         5.86912         5.74383
     2010.91307        -7.40740         5.74925
     2010.91581         5.71807         5.80125
     2010.91854         6.78055         5.78825
     2010.92128        -2.78598         5.82834
     2010.92402        -6.50650         5.81101
     2010.92676        -5.10002         5.84135
     2010.92950        -9.66355         5.78825
     2010.93223        -9.56307         5.81101
     2010.93497         0.49941         5.92369
     2010.93771         3.05588         5.92911
     2010.94045        17.28436         6.38853
     2010.94318        -1.61617         5.86518
     2010.94592       -12.18169         5.94428
     2010.94866         1.48579         5.89769
     2010.95140         7.33626         6.06347
     2010.95414         0.43974         5.93561
     2010.95687        -6.52178         5.83159
     2010.95961        -9.34631         5.90094
     2010.96235        -5.44883         5.88360
     2010.96509         1.73864         5.97354
     2010.96783        -2.09488         5.90961
     2010.97056        -3.59440         5.88577
     2010.97330        -6.99093         5.85110
     2010.97604        -2.94945         5.84135
     2010.97872        -3.04803         6.10681
     2010.98151        -1.51950         5.90311
     2010.98425         1.71298         5.93020
     2010.98699        -0.58255         5.91069
     2010.98973         7.12493         6.09814
     2010.99247        22.94841         6.10248
     2010.99520        16.16988         5.93236
     2010.99794         0.49936         5.85760
     2011.00342         2.53431         5.90202
     2011.00616         0.01579         5.88144
     2011.00889         4.87826         5.91828
     2011.01163        11.33574         5.80451
     2011.01437        -3.58178         5.87060
     2011.01711         1.47169         6.04072
     2011.01984        -5.21583         5.89877
     2011.02258        -9.33635         5.84026
     2011.02532        -9.23988         5.96704
     2011.02806        -6.43840         6.11440
     2011.03080       -12.30893         5.94428
     2011.03353        -4.91345         5.92803
     2011.03627        -8.26497         5.97679
     2011.03901       -10.62150         5.88252
     2011.04175         1.01898         5.96379
     2011.04449        -2.17454         5.87277
     2011.04722        -1.04507         6.21625
     2011.04996        -0.54459         5.96162
     2011.05270       -11.75112         5.81426
     2011.05544        -4.40864         5.86193
     2011.05817        -3.97116         5.95837
     2011.06091         0.92631         5.82076
     2011.06365         0.06479         5.87710
     2011.06639         4.15227         5.85760
     2011.06913        -0.34626         6.15774
     2011.07186        -8.25578         5.93561
     2011.07460        -9.39031         5.89227
     2011.07734        -4.13283         5.86843
     2011.08008        -3.34335         5.86627
     2011.08282       -16.57788         5.78500
     2011.08555       -16.38240         5.91611
     2011.08829       -17.69692         5.97895
     2011.09103       -16.04945         5.93453
     2011.09377       -10.53397         5.89227
     2011.09650        -9.40050         5.91719
     2011.09924        -7.64502         5.87602
     2011.10198        -9.19554         5.95728
     2011.10472        -9.15607         5.91286
     2011.10746       -15.40559         5.85760
     2011.11019       -16.10011         5.81967
     2011.11293        -6.88764         5.82401
     2011.11567        -6.52616         5.93778
     2011.11841        -6.84469         6.05264
     2011.12115        -3.42021         6.07864
     2011.12388        -2.49273         6.12523
     2011.12662         2.87874         6.10139
     2011.12936        -3.41978         5.86735
     2011.13210        -1.94930         5.88144
     2011.13483        -8.72883         5.84676
     2011.13757        -9.28835         5.94645
     2011.14031        -8.24388         5.85110
     2011.14305        -5.04340         5.87602
     2011.14579        -5.29192         5.92261
     2011.14852        -4.48645         5.77308
     2011.15086        -2.54133         7.02457
     2011.15400        -2.59750         5.87060
     2011.15674        -3.41002         5.83159
     2011.15948         3.18346         5.86518
     2011.16221        -0.08407         5.87385
     2011.16495         2.08441         5.85543
     2011.16769        -5.94711         5.93886
     2011.17043       -12.82964         5.91828
     2011.17316       -17.54216         5.85760
     2011.17590       -13.59269         5.83268
     2011.17864        -1.41421         5.88360
     2011.18138        -6.21773         5.85760
     2011.18412        -3.07726         5.79800
     2011.18685        -0.21278         5.85218
     2011.18959       -11.38930         5.85977
     2011.19233        -6.28483         5.85218
     2011.19507        -2.54835         5.85652
     2011.19780         3.70412         5.98221
     2011.20054        -2.76040         5.95078
     2011.20328        -1.67092         6.00496
     2011.20602        -8.38545         6.00063
     2011.20876        -6.30097         5.87602
     2011.21149        -3.65749         5.91828
     2011.21423        -5.54302         5.88902
     2011.21697         2.44046         6.08189
     2011.21971         1.69993         6.01254
     2011.22245       -10.45759         5.88577
     2011.22518         2.16489         5.77850
     2011.22792        -0.10464         5.89119
     2011.23066         1.82284         5.83593
     2011.23340         1.73432         5.91069
     2011.23613        -1.49921         5.86627
     2011.23887        -1.20473         5.88252
     2011.24161         3.59674         5.88577
     2011.24435        -6.92578         5.93670
     2011.24709        -8.55930         5.75791
     2011.24982        -0.53483         5.89444
     2011.25256        -5.05235         5.90527
     2011.25530         1.71813         5.91286
     2011.25804        -5.67240         6.07647
     2011.26078        -6.55292         6.01580
     2011.26351       -10.24145         5.76767
     2011.26625       -12.14497         5.82943
     2011.26899        -1.89849         5.93128
     2011.27173        -7.50802         6.03096
     2011.27446        -4.33254         6.19350
     2011.27720       -14.18306         6.08406
     2011.27994       -13.48859         5.80559
     2011.28268        -6.35011         5.93128
     2011.28542        -8.66764         5.89227
     2011.28815        -3.27416         5.86410
     2011.29089        -4.06168         5.78717
     2011.29363        -7.86721         5.72649
     2011.29637       -10.55273         5.87168
     2011.29911        -7.79825         5.81426
     2011.30184         0.44422         6.12198
     2011.30458       -15.37930         6.35277
     2011.30732        -7.06083         5.74058
     2011.31006        -7.17135         5.84893
     2011.31279        -1.73987         5.75791
     2011.31553        10.97060         5.99954
     2011.31827        -1.04292         5.86843
     2011.32101        -9.75844         5.80017
     2011.32375       -10.09697         5.78825
     2011.32648       -11.27649         5.84568
     2011.32922        -9.55902         5.79042
     2011.33196        -7.89454         5.90852
     2011.33470       -11.04406         6.01363
     2011.33744       -16.00059         6.02013
     2011.34017        -8.66811         6.12957
     2011.34291        -9.39463         5.98221
     2011.34565         6.31784         6.03422
     2011.34839        -2.24968         5.98112
     2011.35112        -8.29621         5.89010
     2011.35386       -15.24973         5.88685
     2011.35660       -10.94725         5.82618
     2011.35934        -9.96078         6.01363
     2011.36208       -19.62430         5.89227
     2011.36481       -17.66882         6.03096
     2011.36755       -15.14235         6.01038
     2011.37029         2.18913         5.89119
     2011.37303         3.13760         5.89444
     2011.37577        -6.83592         5.92911
     2011.37850       -10.90544         5.91503
     2011.38124       -12.96297         5.94537
     2011.38398       -14.45549         5.87060
     2011.38672        -7.10901         5.84026
     2011.38945        -6.34254         5.97679
     2011.39219        -3.70706         5.89661
     2011.39493       -13.70259         5.87385
     2011.39767        -7.91811         5.91069
     2011.40041        -9.85563         5.91828
     2011.40314       -10.42516         5.90852
     2011.40588        -7.65068         5.98329
     2011.40862        -6.36320         5.91611
     2011.41136       -14.00073         5.92586
     2011.41410       -15.02525         5.85760
     2011.41683        -8.78978         5.87060
     2011.41957        -3.02530         5.94211
     2011.42231       -14.96082         5.96487
     2011.42505       -10.39735         5.96162
     2011.42778       -14.49487         6.01363
     2011.43052        -9.11139         5.91719
     2011.43326       -12.68692         5.90202
     2011.43600       -14.78944         5.92911
     2011.43874       -14.82397         5.85110
     2011.44119        -8.33775         6.96281
     2011.44421       -12.41301         5.96595
     2011.44695       -11.43754         5.94537
     2011.44969        -9.26906         6.05047
     2011.45243        -4.97258         5.89336
     2011.45516        -3.72011         5.89119
     2011.45790       -12.63363         5.87060
     2011.46064       -11.11416         5.97570
     2011.46338        -9.16368         5.92586
     2011.46611        -9.48420         5.94103
     2011.46885        -7.80273         5.88252
     2011.47159        -8.04925         5.89119
     2011.47433        -7.35277         6.07322
     2011.47707        -9.62830         5.85868
     2011.47980        -7.20082         5.88469
     2011.48254        -6.82835         5.96487
     2011.48528       -11.15687         5.86627
     2011.48802        -8.22939         5.84026
     2011.49076       -14.60692         6.05264
     2011.49349       -19.54244         5.91611
     2011.49623        -3.52296         5.97137
     2011.49897        -4.65049         5.91611
     2011.50171        -2.95501         5.97462
     2011.50444       -12.43554         6.03638
     2011.50718        -9.29606         5.92369
     2011.50992       -10.41458         5.91936
     2011.51266        -2.60911         6.05914
     2011.51540        -0.82763         6.15882
     2011.51813        -5.41315         5.93236
     2011.52087        -7.09068         6.01038
     2011.52361        -5.84820         5.91286
     2011.52635       -11.36173         5.90744
     2011.52908         4.51475         6.07647
     2011.53182        -3.12577         5.93670
     2011.53456        -5.61730         5.87168
     2011.53730        -5.31882         6.00713
     2011.54004        -8.89734         5.98329
     2011.54277        -4.70787         6.05264
     2011.54551        -7.03839         5.99412
     2011.54825        -6.55192         5.98871
     2011.55099        -1.53244         6.00279
     2011.55373        -8.10296         6.14040
     2011.55646        -3.79749         5.99196
     2011.55806         1.06596        18.05605
     2011.56194        -0.74653         6.11006
     2011.56468        -2.01206         6.09923
     2011.56741        -0.52558         5.97354
     2011.57015        -4.77511         6.09273
     2011.57289        -4.58263         5.92695
     2011.57563        -0.17415         5.96270
     2011.57837        -8.30468         6.00496
     2011.58110        -5.21020         6.07972
     2011.58384        -7.55472         6.04288
     2011.58658         0.65775         6.14907
     2011.58932        -2.30277         5.92911
     2011.59206        -6.45830         5.85218
     2011.59479        -4.00182         6.01254
     2011.59753        -0.57834         5.99954
     2011.60027        -0.38187         5.94428
     2011.60301         2.87961         5.98329
     2011.60574        -0.42491         6.04505
     2011.60848         3.66956         6.18049
     2011.61122        -0.89296         6.25201
     2011.61396        -0.09649         6.19133
     2011.61670         9.59499         6.20216
     2011.61943        -9.71153         6.19675
     2011.62217         1.04494         6.06239
     2011.62491        -1.73958         5.96595
     2011.62765        -2.22810         6.10573
     2011.63039        -3.42263         5.96595
     2011.63312         2.32785         6.04072
     2011.63586        -1.05168         5.96920
     2011.63860         3.83280         6.06672
     2011.64134         8.60928         6.40262
     2011.64407         0.33375         6.03422
     2011.64681         1.06423         5.99629
     2011.64955         0.46871         6.15665
     2011.65229        -0.75982         6.06889
     2011.65503        -0.03334         6.18483
     2011.65776         7.58713         6.24117
     2011.66050         4.11761         6.20433
     2011.66324         3.19909         6.04938
     2011.66598         5.85756         6.26501
     2011.66872         0.39904         6.19350
     2011.67145         3.63352         5.96379
     2011.67419         5.39399         5.94862
     2011.67693         8.87147         5.96595
     2011.67967         0.36894         5.99846
     2011.68240        -1.73558         5.99629
     2011.68514         2.18790         6.02446
     2011.68788         1.33837         6.07647
     2011.69062         5.32585         6.04938
     2011.69336         5.27633         6.01254
     2011.69609        -0.56620         6.03313
     2011.69883        -0.42272         6.00604
     2011.70157        -0.66025         5.96487
     2011.70431         5.35923         5.97245
     2011.70705         2.92171         6.07647
     2011.70978         6.61718         5.97679
     2011.71252         6.91266         5.97137
     2011.71526         1.00814         6.30618
     2011.71800         1.07261         6.07972
     2011.72073         4.34609         5.99629
     2011.72347         4.92256         6.05264
     2011.72621         6.53604         6.11656
     2011.72895         9.71852         5.92695
     2011.73157        13.17789         6.24550
     2011.73442        13.21347         6.00821
     2011.73716         6.94095         6.13173
     2011.73939        -5.13704         7.33771
     2011.75359         8.99180         6.18808
     2011.75633        15.21828         6.03855
     2011.75906        12.95376         6.02771
     2011.76180        19.14523         6.10681
     2011.76454        12.64571         6.07539
     2011.76728         3.47218         6.05914
     2011.77002         4.56166         6.18808
     2011.77275        21.46514         6.23359
     2011.77549        18.72161         6.19241
     2011.77823        -3.68191         6.04180
     2011.78097        -1.52943         6.16532
     2011.78371         2.94704         6.10031
     2011.78644        16.26752         6.04613
     2011.78918         8.17099         6.00279
     2011.79192        -0.16253         5.92153
     2011.79466        -6.47505         5.98871
     2011.79739         1.30742         6.05805
     2011.80013         9.10690         5.94862
     2011.80287         4.34338         5.96812
     2011.80561         5.88385         6.08622
     2011.80835       -10.26667         6.09273
     2011.81108        -2.05120         6.07539
     2011.81382        -2.43372         6.43512
     2011.81656         1.83076         6.01254
     2011.81930         5.06823         5.97679
     2011.82203         1.01671         5.89552
     2011.82477         1.75519         6.04830
     2011.82751         0.56666         6.01038
     2011.83025         3.64714         6.05372
     2011.83299        -0.12839         5.96487
     2011.83572        -0.04191         5.92803
     2011.83846        -4.14343         6.00388
     2011.84120         9.03704         6.02446
     2011.84394         9.83652         6.06455
     2011.84668         7.88800         5.97245
     2011.84941        -1.07153         5.97462
     2011.85215        -5.53705         6.02230
     2011.85489        -4.92058         6.13715
     2011.85763         0.31690         6.16966
     2011.86036         9.78438         5.97895
     2011.86310        13.47685         6.00604
     2011.86584        11.90433         6.09273
     2011.86858         7.63681         5.99629
     2011.87132         6.40228         5.99196
     2011.87405        -0.70224         6.02013
     2011.87679         4.85823         5.98004
     2011.87953         9.63271         6.12740
     2011.88227        13.34619         6.00713
     2011.88501         7.68866         5.99087
     2011.88774         7.53214         6.03747
     2011.89048         8.59562         6.00388
     2011.89322         1.80209         6.16966
     2011.89596        12.09957         6.13932
     2011.89869         6.15204         6.09381
     2011.90143        -7.48148         5.98437
     2011.90417        -2.29100         6.08081
     2011.90691        -5.06653         6.07756
     2011.90965        -2.46805         6.01580
     2011.91238         1.32443         6.24117
     2011.91512         0.27090         6.05047
     2011.91786         1.08038         6.21625
     2011.92060        -9.46815         6.08839
     2011.92334        -8.83567         6.09164
     2011.92607       -13.73319         6.12198
     2011.92881        -3.28272         6.10790
     2011.93155         1.27176         6.06239
     2011.93429        -0.77776         6.07431
     2011.93702        -2.45229         6.03422
     2011.93976        -3.73081         6.20433
     2011.94250         3.23066         6.16316
     2011.94524         1.81114         6.08839
     2011.94798         5.79462         6.13065
     2011.95071         2.07609         6.01796
     2011.95345        -0.81843         6.09814
     2011.95619         2.13305         6.23142
     2011.95893         1.67852         5.97462
     2011.96167        -1.36700         5.96053
     2011.96440         2.64747         6.03855
     2011.96714        -0.66105         6.12740
     2011.96988         4.81143         5.86193
     2011.97262        -2.43010         5.85652
     2011.97535        -2.94762         5.88035
     2011.97809        -7.92314         5.85110
     2011.98083        -0.12967         5.90527
     2011.98357         2.38581         5.96920
     2011.98631         9.43228         6.02121
     2012.33128        -3.60671         6.02121
     2012.33401         0.32677         5.99087
     2012.33675        -0.04276         5.82509
     2012.33949        -9.88628         5.94211
     2012.34223       -15.91580         5.82184
     2012.34496       -18.46633         5.84568
     2012.34770        -8.68385         6.02446
     2012.35044        -5.55838         5.79909
     2012.35318        -6.38690         5.91719
     2012.35592        -4.66342         5.82726
     2012.35865       -13.62695         5.83593
     2012.36139       -12.57547         5.93020
     2012.36413       -12.12399         5.85652
     2012.36687       -12.37752         5.80234
     2012.36961        -3.87104         5.78717
     2012.37234        -8.90757         5.86302
     2012.37508        -9.26509         5.83810
     2012.37782        -7.27761         5.96162
     2012.38329        -4.30266         5.95295
     2012.38603        -1.17518         6.00496
     2012.38877        -7.93971         6.01796
     2012.39151        -1.10623         5.94862
     2012.39425        -2.86676         5.94970
     2012.39698        -7.90228         5.93453
     2012.39972        -5.99480         5.80125
     2012.40246        -3.21933         5.84026
     2012.40520        -8.16685         5.80992
     2012.40794        -2.86137         6.05372
     2012.41067        -8.45490         5.91936
     2012.41341        -8.66842         5.80559
     2012.41615        -4.83895         5.89769
     2012.41889         7.83353         6.14365
     2012.42162        -4.82899         5.86085
     2012.42436        -6.69052         5.87494
     2012.42710        -1.60004         5.96812
     2012.42984         6.87944         5.78067
     2012.43258        -4.07309         5.79042
     2012.43531        -4.92561         5.87277
     2012.43805        -4.54014         5.88035
     2012.44079       -11.18566         5.84026
     2012.44347       -10.97423         5.96812
     2012.44604        -8.57691         6.60632
     2012.44855        -4.47664         7.66927
     2012.45111        -5.73632         8.07126
     2012.45448       -13.94728         5.91503
     2012.45687        -8.58211         6.98123
     2012.45995        -5.30233         6.06239
     2012.46269        -0.74285         5.89119
     2012.46543        -6.84037         5.92369
     2012.46817        -8.51490         5.93453
     2012.47091        -6.73642         5.90419
     2012.47353        -7.37505         6.10031
