# ================= DQRFIT RESULTS ================
# INPUT FILE: series/INW2.rad
# OUTPUT: LDETRENDED
# FILTER FUNCTION: f(t)
# f(t)=+line(t)
# line(t)=+P 1+P 2*t
# heav(t)=(t<0?0:1)
# TOTAL OBSERVATIONS MTOT=  434
# INITIAL TIME INTERVAL= 2009.1472 - 2007.7864 =  1.3607
# TOTAL OBSERVATIONS AFTER PREFILTER M=  434
# TIME-SPAN= 2009.1472 - 2007.7864 =  1.3607
# OBSERVATIONS: USED M=   434 REJECTED MTOT-M=     0 %USED=  100.0000
# N=  2 PARAMETERS
# MAXSIG= 175.00000
# MAXRES=  26.69360
# SCALE FACTOR FOR LENGTHS: SCL=  10.00000
# SCALE FACTOR FOR SIGMAS: SCLSIG=   1.00000
# CHI^2=    664.361 DOF=   432 CHI^2/DOF=   1.53787
# RMS=      6.962 SDEV=      6.969 MEAN=    0.10376
#  P #       PARAMETER +-    SIGMA %error PARAMETER NAME
# P 1 =      9318.68492 +- 1825.704  19.59 YZERO                              
# P 2 =        -4.62513 +-    0.909  19.65 SLOPE                              
#       T            LDETRENDED       SIG_OBS
     2007.78644         6.44091         6.84541
     2007.78918         6.93057         7.01282
     2007.79192         9.21023         7.06490
     2007.79466         7.39589         7.08847
     2007.87132         7.24146         6.97314
     2007.87405         1.67212         6.86525
     2007.87679         7.69878         6.89377
     2007.87953         5.08444         6.94213
     2007.88227         1.55411         6.86649
     2007.88501         2.56277         6.91857
     2007.88774       -10.19157         6.84541
     2007.89048        -5.94790         6.93469
     2007.89322        -7.17224         7.09343
     2007.89596        -0.21358         7.09715
     2007.89869        -0.54292         6.93593
     2007.90132        -5.23878         7.15667
     2007.90948        -2.00705         7.26208
     2007.91238         2.56940         6.91981
     2007.91512         7.20906         6.94585
     2007.91786         9.75573         6.90865
     2007.92060         7.49239         7.33401
     2007.92334         1.01005         7.04382
     2007.92607         5.49971         6.93841
     2007.92881         2.89738         7.03266
     2007.93155         0.20904         6.99298
     2007.93429        -7.56230         6.97686
     2007.93697        -7.77690         7.15915
     2007.93976        -4.98997         8.06939
     2007.94136         1.03242        15.88457
     2007.95448        -1.89091        15.06361
     2007.95619        -1.65999         6.94833
     2007.95893        14.80867         7.42206
     2007.96167        10.96533         8.73285
     2007.96440        10.17799         7.22612
     2007.96714        13.64666         8.40670
     2007.96988        -9.83868         6.88633
     2007.97262        -7.86202         7.00166
     2007.97535        -8.09135         7.02398
     2007.97809        16.75631         7.13931
     2007.98083        -3.23703         6.94213
     2007.98357         0.95464         6.76852
     2007.98631         1.99330         6.99918
     2007.98904         1.40896         7.06366
     2007.99178         3.90862         7.06987
     2007.99452         4.82629         7.09095
     2007.99726         2.85495         6.95578
     2008.00000       -12.37739         6.81936
     2008.00273        -8.39872         6.95826
     2008.00547         8.15694         6.63335
     2008.00821        26.69360         7.34889
     2008.01095         7.93626         6.82060
     2008.01368         5.55493         6.74868
     2008.01642         2.82959         6.63583
     2008.01916         1.51625         6.70899
     2008.02190         5.61692         6.81936
     2008.02464         5.54058         6.78836
     2008.02737         0.50124         6.86401
     2008.03011        -5.13010         6.66559
     2008.03285        -7.98143         6.73628
     2008.03559        -5.91977         6.99918
     2008.03833        -7.90611         6.96694
     2008.04106       -13.70844         6.97934
     2008.04380       -10.23478         6.89253
     2008.04654        -7.41412         6.86029
     2008.04928       -10.76746         6.76728
     2008.05201       -10.31079         6.73876
     2008.05475       -14.92613         6.82680
     2008.05749       -12.87947         6.76108
     2008.06023        -9.11480         6.84293
     2008.06297        -4.17014         6.73008
     2008.06570        -3.73648         6.80944
     2008.06844        -2.40481         6.76604
     2008.07118        20.50785         6.93717
     2008.07392        15.97051         6.87517
     2008.07666         8.07617         7.21744
     2008.07939         5.02784         7.00786
     2008.08213        -0.38350         6.82184
     2008.08487        -1.39984         6.81688
     2008.08761        -7.13017         6.98430
     2008.09034         1.26449         6.79952
     2008.09308        -4.83585         6.73876
     2008.09582        -2.92319         7.58947
     2008.09856        17.76748         7.23232
     2008.10130         1.88214         7.25092
     2008.10398        -9.18746         6.98926
     2008.10677        -7.07353         6.77472
     2008.10951        -8.13887         6.84169
     2008.11225        -8.23621         6.82432
     2008.11498        -9.09155         6.87021
     2008.11772        -6.79988         6.73256
     2008.12046       -10.06022         6.74744
     2008.12320        -5.59156         6.93965
     2008.12594        -4.93089         6.68791
     2008.12867        -3.26223         6.70899
     2008.13141        -7.38657         6.78588
     2008.13415        -6.73191         6.68171
     2008.13689        -6.22924         6.70279
     2008.13963        -5.78158         6.65567
     2008.14236        -3.95692         6.64575
     2008.14407         0.61900        13.94751
     2008.19533       -11.89095        11.32592
     2008.19712        -0.42466         6.69287
     2008.19986         2.38000         6.74992
     2008.20260        -5.13233         6.80696
     2008.20533        -5.44867         6.85533
     2008.20807        -6.67901         7.05622
     2008.21081        -0.10534         6.98058
     2008.21355        -5.02368         6.88261
     2008.21629        -1.65102         6.86401
     2008.21902        -2.65836         7.09467
     2008.22176       -15.78369         6.87393
     2008.22450        -8.01003         6.84045
     2008.22724         0.03363         7.06366
     2008.22997        -6.83470         7.04258
     2008.23271        -4.88604         6.91485
     2008.23545         3.27562         7.12443
     2008.23819       -11.13371         6.98182
     2008.24093         0.33495         6.78092
     2008.24366        -4.24439         6.73628
     2008.24640        -6.16173         6.78712
     2008.24914        -4.98506         7.15171
     2008.25188        -2.69840         6.96074
     2008.25462        -5.37774         6.72139
     2008.25735        -2.82407         6.81564
     2008.26009        -2.59241         7.14179
     2008.26283        -0.60975         6.90865
     2008.26557        -5.27209         6.85781
     2008.26830        -2.82742         6.81564
     2008.27104        -2.14976         6.58498
     2008.27378       -10.01510         6.61723
     2008.27652        -9.02943         6.60978
     2008.27926        -7.80577         6.96074
     2008.28199        -4.47111         6.78092
     2008.28473         2.91355         7.01158
     2008.28747         4.24922         6.79084
     2008.29021        -1.60412         6.77224
     2008.29295        -0.28246         6.69907
     2008.29568        -2.61679         6.82556
     2008.29842        -4.53213         6.64575
     2008.30116        -3.18847         6.62715
     2008.30390        -1.06781         6.87145
     2008.30663         0.84786         6.75860
     2008.30937        -0.10148         6.82928
     2008.31211        -5.29482         6.89873
     2008.31485        -5.21715         6.72263
     2008.31759        -8.29149         6.75364
     2008.32032        -8.29283         6.93717
     2008.32306         0.33484         6.84541
     2008.32580        -0.78950         7.16039
     2008.32854        -0.62984         6.73132
     2008.33128        -6.89618         6.77844
     2008.33401        -3.71951         6.82184
     2008.33675        -3.44785         6.88509
     2008.33949         1.86481         6.96570
     2008.34223        -4.51752         6.77720
     2008.34496        -7.36086         6.68791
     2008.34770        -1.37520         6.85285
     2008.35044         0.57446         6.76976
     2008.35318        -3.19287         7.05870
     2008.35592        -2.83721         6.67303
     2008.35865        -2.60255         6.74496
     2008.36139         0.79712         6.68667
     2008.36413        -1.69322         6.69659
     2008.36687        -1.40756         6.65691
     2008.36961        -8.07690         6.67551
     2008.37234       -11.45223         6.77596
     2008.37508        -4.16157         6.76728
     2008.37782         2.72109         7.08227
     2008.38056         0.18976         7.04506
     2008.38329         1.78742         6.74992
     2008.38603         5.08208         6.75240
     2008.38877         2.04075         6.86773
     2008.39151        -1.97359         7.48778
     2008.39425        -3.66793         6.72387
     2008.39698        -7.01827         6.83548
     2008.39972         4.44240         6.70527
     2008.40246        -4.95994         6.69659
     2008.40520        -0.32428         6.75736
     2008.40794         3.49339         6.74372
     2008.41067        -4.76095         6.78712
     2008.41341        -4.41529         6.72015
     2008.41615         6.12337         6.78588
     2008.41889        -0.56496         6.78216
     2008.42162        -2.32330         6.81564
     2008.42436         5.45836         6.72760
     2008.42710         2.93003         6.99794
     2008.42984         3.42969         6.92477
     2008.43258         2.52035         6.89129
     2008.43531        -1.78999         7.20876
     2008.43805         0.62868         6.85409
     2008.44079         4.25534         6.75364
     2008.44353        -1.33900         6.92849
     2008.44626        -4.29533         7.00662
     2008.44900        -1.43967         6.90989
     2008.45174         0.68299         7.21868
     2008.45448        -2.21635         7.02026
     2008.45722        -1.82868         7.07483
     2008.45995        -3.45802         7.03762
     2008.46269        -2.60536         6.97562
     2008.46543        -7.08369         6.73256
     2008.46817        -4.40003         6.76604
     2008.47091        -1.35037         6.91113
     2008.47364        -2.46670         6.90245
     2008.47632         1.71569         7.02894
     2008.47912        -0.25738         6.82680
     2008.48186         5.53328         6.91733
     2008.48459         1.02995         7.30673
     2008.48733         1.71061         6.89501
     2008.49007        -5.66073         6.85161
     2008.49281        -4.92506         6.91485
     2008.49555        -6.02740         6.95578
     2008.49828        -5.54574         7.35137
     2008.50102        -9.04808         7.43942
     2008.50376         2.38559         6.93965
     2008.50650         1.42825         7.21620
     2008.50924         1.09191         7.13187
     2008.51197         5.14858         6.98306
     2008.51471        -0.57576         6.91857
     2008.51745        -0.49110         7.01158
     2008.52019         5.14456         6.87889
     2008.52292         1.25023         7.12939
     2008.52566         0.28889         7.14055
     2008.52840         1.46055         6.94709
     2008.53108         9.14295         7.22488
     2008.53388         2.05288         6.96322
     2008.53661        -1.66246         6.97190
     2008.53935        -2.44680         6.91733
     2008.54209        -5.97213         7.01282
     2008.54483         5.15253         7.20876
     2008.54757         1.78519         7.06739
     2008.55030         3.34586         6.88881
     2008.55304         5.19252         7.00662
     2008.55578         8.11918         6.92725
     2008.55852         2.28485         6.98182
     2008.56125        -6.55649         6.98554
     2008.56399         3.52617         6.98430
     2008.56673         4.29883         6.87517
     2008.56947         6.09450         6.93469
     2008.57221         6.52416         6.88633
     2008.57494         0.55282         7.10831
     2008.57768         9.51249         7.08847
     2008.58042         7.70115         6.84541
     2008.58316        12.92481         7.11947
     2008.58590        17.38047         6.85037
     2008.58863         5.38014         7.03638
     2008.59137        -1.29220         6.91609
     2008.59411         8.02146         6.80944
     2008.59685        -0.41287         6.89873
     2008.59958         8.51979         7.12319
     2008.60232         8.17845         7.03638
     2008.60506         6.61911         6.91485
     2008.60780        10.97178         6.91981
     2008.61054        -0.05156         6.93841
     2008.61327         4.40410         6.91981
     2008.61601         6.26377         6.84417
     2008.61875        -1.87957         6.88137
     2008.62149         5.40309         6.91237
     2008.62423         3.68375         6.83548
     2008.62696         6.68042         6.85905
     2008.62970        12.82208         6.98926
     2008.63244         9.92074         6.84789
     2008.63518         5.61341         6.96942
     2008.63791        10.32807         7.07359
     2008.64065         6.90573         6.90741
     2008.64339         0.97640         6.85037
     2008.64613        11.49106         6.96198
     2008.64887         8.46172         6.94585
     2008.65160        14.52838         6.92725
     2008.65434         4.92705         7.02274
     2008.65708         6.97071         7.02894
     2008.65982        -0.55563         7.07731
     2008.66256        22.11504         7.18768
     2008.66529         6.95870         6.92973
     2008.66803         4.28236         6.92973
     2008.67077         3.22502         6.91113
     2008.67351         5.73469         6.98926
     2008.67624         2.63535         7.51630
     2008.67898         5.99501         6.99422
     2008.68172         3.33268         6.90865
     2008.68446         0.33134         7.16287
     2008.68720         5.97900         6.90369
     2008.68993         7.67266         7.06366
     2008.69267        10.56833         7.04878
     2008.69541         6.37399         7.05002
     2008.69815         7.77665         6.96198
     2008.70089         3.68432         6.90865
     2008.70362         4.61298         6.85409
     2008.70636         1.53864         6.83548
     2008.70910         4.43331         6.98554
     2008.71184         7.03997         7.07359
     2008.71457         2.27463         6.88633
     2008.71726         2.10603         6.82184
     2008.72005         6.62996         6.73628
     2008.72279         6.37762         6.81316
     2008.72553        12.79328         7.00786
     2008.72826         6.82895         6.89625
     2008.73100         8.78861         6.86401
     2008.73374        11.19427         7.41710
     2008.73648         4.84993         7.11947
     2008.73921         5.73660         6.91609
     2008.74469         3.12392         6.80200
     2008.74743         3.92559         7.01406
     2008.75017         3.16425         6.81564
     2008.75290         2.33991         6.86897
     2008.75564        12.20157         6.80200
     2008.75838        10.91424         6.82928
     2008.76112        13.51290         6.92477
     2008.76386         4.06456         6.77472
     2008.76659         3.36023         7.19388
     2008.76933         0.90389         7.03018
     2008.77207         2.35755         6.76604
     2008.77481         2.94821         6.77224
     2008.77754         0.96788         6.72263
     2008.78028         0.20454         6.73628
     2008.78302        -0.52280         6.71643
     2008.78576        -8.19213         6.86649
     2008.78850         3.63753         6.82928
     2008.79123         6.58119         6.91485
     2008.79397        -2.39514         6.75240
     2008.79671         7.72852         6.91485
     2008.79945        -0.03082         6.75984
     2008.80213        11.56358         7.05002
     2008.80492        10.42851         6.74372
     2008.80766         3.52617         6.80076
     2008.81040         5.74983         6.82184
     2008.81314         5.44150         6.74124
     2008.81587         5.26816         6.80944
     2008.81861         3.80282         6.97686
     2008.82135         0.91248         6.76480
     2008.82415        -1.45859         6.87517
     2008.82683         1.61081         6.75612
     2008.82956         3.67347         6.69535
     2008.83230        -0.28086         6.83921
     2008.83504        -0.40320         6.76232
     2008.83778        11.46746         6.76232
     2008.84052         7.42412         6.81192
     2008.84325        15.93179         6.76356
     2008.84599         6.86845         6.75116
     2008.84873         1.46811         6.80944
     2008.85147         6.62978         6.81936
     2008.85420         8.75244         6.91237
     2008.85694        16.37510         6.74992
     2008.85968         7.97376         6.94585
     2008.86242        16.44743         6.85409
     2008.86516        15.79009         6.90989
     2008.86795        14.21102         7.07731
     2008.87086        -0.60653         7.84245
     2008.87337         1.57608         6.84541
     2008.87611         4.01974         6.87641
     2008.87885         1.57741         6.96694
     2008.88158        -1.41093         6.79084
     2008.88432        -1.88027         6.92353
     2008.88706        -7.94861         6.93097
     2008.88980        -3.92994         6.98554
     2008.89253         4.89372         6.95950
     2008.89527         1.24138         7.07607
     2008.89801        -0.02095         6.93345
     2008.90075        -3.21329         6.84169
     2008.90349        -0.28563         6.80820
     2008.90622        -0.46197         6.89129
     2008.90896         6.44170         6.94337
     2008.91170         0.92136         6.95578
     2008.91444         5.59302         6.76604
     2008.91718         3.86769         6.77596
     2008.91991         7.50835         6.91981
     2008.92265        -1.14299         6.91609
     2008.92539         0.75267         6.83796
     2008.92813         2.19234         7.00662
     2008.93086        -2.01200         6.80820
     2008.93360         1.62466         6.88881
     2008.93634         1.87433         7.04382
     2008.93908        -5.18201         6.84169
     2008.94182        -9.18835         7.36377
     2008.94455        -7.43569         6.83921
     2008.94729        -1.98602         6.98802
     2008.95003         7.08164         6.83300
     2008.95277        -1.44470         7.00786
     2008.95551        -0.34203         6.70527
     2008.95824        -2.40637         6.79828
     2008.96098         1.44429         6.74620
     2008.96372         2.25396         6.84169
     2008.96646        -2.28238         6.96322
     2008.96919        -7.42572         6.88633
     2008.97193        -0.38606         6.86897
     2008.97467         1.22461         6.66435
     2008.97741         3.02027         6.68171
     2008.98927        12.58814        12.47550
     2008.99106        14.77941         7.70728
     2009.02395        -7.74946         6.88881
     2009.02669        -8.42780         6.74620
     2009.02943        -3.35814         9.08380
     2009.03216       -17.10747         7.32533
     2009.03490       -10.13081         6.78216
     2009.03764       -14.98415         6.74620
     2009.04038        -9.95448         6.80448
     2009.04312       -15.52782         6.83052
     2009.04585       -16.42616         6.71643
     2009.04859       -16.61549         6.70403
     2009.05133       -13.17583         6.70031
     2009.05407       -11.94117         6.70279
     2009.05681       -10.49651         6.70527
     2009.05954        -9.58184         6.71891
     2009.06228       -15.62218         6.69659
     2009.06502       -11.08452         6.79704
     2009.06776       -12.52485         6.86649
     2009.07049        -6.82619         6.72015
     2009.07323       -10.90453         6.89873
     2009.07597        -8.58587         6.66435
     2009.07871        -9.28420         6.75116
     2009.08145        -7.91754         6.69163
     2009.08418        -3.01388         7.05498
     2009.08692        -6.41221         6.66683
     2009.08966        -5.10555         6.71519
     2009.09240       -11.19289         6.84045
     2009.09514        -7.01523         7.66016
     2009.09787        -4.41056         6.66311
     2009.10061         3.27810         7.06863
     2009.10335        -4.97424         6.63459
     2009.10609        -2.62357         6.67427
     2009.10882         1.50809         6.91733
     2009.11156        -0.70725         6.71023
     2009.11430        -4.37558         6.81688
     2009.11704        -5.85892         6.80820
     2009.11978        -1.23426         6.67675
     2009.12251        -3.03360         6.70403
     2009.12525        -3.81793         6.68543
     2009.12799        -1.48027         6.70527
     2009.13073        -0.40361         6.69411
     2009.13347        -4.52594         6.71147
     2009.13620       -11.43528         6.74248
     2009.13894        -7.41562         6.81936
     2009.14168        -9.00696         6.80200
     2009.14442        -8.62629         6.75488
     2009.14715        -7.89763         6.88013
