# ================= DQRFIT RESULTS ================
# INPUT FILE: series/IWAC.rad
# OUTPUT: LDETRENDED
# FILTER FUNCTION: f(t)
# f(t)=+line(t)+annual(t)
# line(t)=+P 1+P 2*t
# annual(t)=+P 3*sin(2*pi*t+P 4)
# heav(t)=(t<0?0:1)
# TOTAL OBSERVATIONS MTOT= 1392
# INITIAL TIME INTERVAL= 2011.9122 - 2007.9343 =  3.9779
# TOTAL OBSERVATIONS AFTER PREFILTER M= 1392
# TIME-SPAN= 2011.9122 - 2007.9343 =  3.9779
# OBSERVATIONS: USED M=  1392 REJECTED MTOT-M=     0 %USED=  100.0000
# N=  4 PARAMETERS
# MAXSIG= 175.00000
# MAXRES=  17.96360
# SCALE FACTOR FOR LENGTHS: SCL=  10.00000
# SCALE FACTOR FOR SIGMAS: SCLSIG=   1.00000
# CHI^2=   1026.234 DOF=  1388 CHI^2/DOF=   0.73936
# RMS=      5.007 SDEV=      5.009 MEAN=    0.07186
#  P #       PARAMETER +-    SIGMA %error PARAMETER NAME
# P 1 =      -668.36902 +-  234.717  35.12 YZERO                              
# P 2 =         0.33279 +-    0.117  35.09 SLOPE                              
# P 3 =         3.07499 +-    0.187   6.09 ANNUAL AMPLITUDE                   
# P 4 =        -2.75806 +-    0.080   2.90 ANNUAL PHASE                       
#       T            LDETRENDED       SIG_OBS
     2007.93435         0.66443         4.95624
     2007.93709        -2.64348         5.00267
     2007.93982        -3.06039         4.96828
     2007.94256         6.42170         4.98290
     2007.94530        -3.23421         5.07576
     2007.94804       -11.60912         4.99751
     2007.95078         2.84997         4.98891
     2007.95345         7.28107         5.02073
     2007.95619         8.19316         4.90551
     2007.95893         9.16625         5.01213
     2007.96167         6.72734         4.94076
     2007.96440         3.12443         5.01901
     2007.96714         5.43852         5.02073
     2007.96988        -7.94139         5.11789
     2007.97262        -3.45830         5.05856
     2007.97535        -7.78821         4.95624
     2007.97809         3.53487         4.89691
     2007.98083        -4.06204         4.91497
     2007.98357         6.34705         4.85478
     2007.98631         1.94514         5.00181
     2007.98904        -1.42977         5.05942
     2007.99178        -1.64368         4.98204
     2007.99452        -5.04559         5.02417
     2007.99726        -3.99450         4.84274
     2008.00045        -4.01257         6.05342
     2008.00273        -4.16633         4.97258
     2008.00547         2.08376         4.80404
     2008.00821         1.83085         4.78599
     2008.01095         4.44794         4.83672
     2008.01368         0.92903         4.76535
     2008.01642        -1.83088         4.79975
     2008.01916        -0.72579         4.87885
     2008.02190        -3.57270         4.81436
     2008.02464         4.27639         4.73440
     2008.02737        -1.23353         4.77051
     2008.03011        -2.99444         4.89175
     2008.03285        -7.53035         4.79287
     2008.03559        -7.79526         4.83328
     2008.03833        -2.41017         4.73612
     2008.04106        -7.83908         4.81866
     2008.04380        -8.01799         4.85478
     2008.04654        -5.42590         4.83500
     2008.04928        -9.19681         4.81436
     2008.05201       -11.12573         4.75761
     2008.05475        -1.43364         4.76621
     2008.05749        -5.14455         4.76019
     2008.06023         0.06054         4.75073
     2008.06297         5.02863         4.71720
     2008.09417        -5.99375         9.57541
     2008.09582        -3.52230         4.99321
     2008.09856        -4.12121         4.88659
     2008.10130         0.15187         4.92185
     2008.10403        -4.53704         4.79373
     2008.10677        -3.61795         4.77739
     2008.10951        -8.54186         4.78255
     2008.11225        -8.55177         4.74987
     2008.12872         7.70575         6.16521
     2008.13141         7.58985         4.74299
     2008.13415         9.17594         4.79373
     2008.13689         2.56603         4.79889
     2008.13963        -2.03488         4.88917
     2008.14236         7.22021         4.73956
     2008.14510         0.47830         4.72666
     2008.14784         7.97638         4.76277
     2008.15058        -4.16353         4.73182
     2008.15331        -8.90244         4.81694
     2008.15697        -3.91065         7.42576
     2008.15879        -1.24726         4.68968
     2008.16153        -2.56017         4.74299
     2008.16427         0.80492         4.80404
     2008.16700        -5.24299         4.73612
     2008.17014         1.62796         5.68024
     2008.17248        -2.43182         4.68280
     2008.17522        -2.87773         4.77137
     2008.17796        -8.96764         4.82124
     2008.18069        -8.40355         4.75761
     2008.18343        -1.06846         4.69312
     2008.18611        -1.28735         4.87283
     2008.18891        -5.10028         4.85650
     2008.19164         0.37481         4.80147
     2008.19438        -5.14210         4.75933
     2008.19712         0.50398         5.85651
     2008.19986         0.96107         4.77137
     2008.20260        -1.43184         4.70172
     2008.20533         1.81725         4.72580
     2008.20807        -2.85066         4.92786
     2008.21355        -2.60748         5.20302
     2008.21629         2.62261         4.81866
     2008.21902        -1.06430         4.90551
     2008.22176        -9.19922         4.77997
     2008.22450        -4.47213         4.93302
     2008.22724        -5.35104         4.78083
     2008.22997         0.48005         4.95280
     2008.23271        -1.06686         4.96656
     2008.23544         2.79723         6.73701
     2008.23819        -4.85768         5.03105
     2008.24093         3.54441         4.90637
     2008.24366       -12.69350         4.90121
     2008.24640         5.21358         5.88747
     2008.24914         0.76167         4.97430
     2008.25188         2.92776         4.98891
     2008.25462         0.10385         4.95452
     2008.25735         2.03694         4.89175
     2008.26009         1.25103         4.88659
     2008.26283         0.47412         4.90551
     2008.26557         1.24221         4.89175
     2008.26830        -1.88270         4.77911
     2008.27104        -2.11662         4.84876
     2008.27378         0.97247         4.77481
     2008.27652        -3.41744         4.97086
     2008.27926         1.97165         4.90895
     2008.28199         2.10574         4.93130
     2008.28473         5.74283         4.79373
     2008.28747         4.12792         4.89605
     2008.29021         1.61601         4.93560
     2008.29295        -1.63590         4.93474
     2008.29568         4.31918         4.91325
     2008.29842        -2.89073         4.84962
     2008.30116         4.72736         4.81866
     2008.30390        -3.67255         4.93990
     2008.30663         3.03854         5.07060
     2008.30937        -0.11637         5.12047
     2008.31211        -1.91728         5.20818
     2008.31485         2.63381         4.79459
     2008.31759         0.97790         4.94506
     2008.32032        -7.01602         5.01557
     2008.32306         4.13307         4.97602
     2008.32580         3.92816         5.06372
     2008.32854         4.06225         4.82468
     2008.33128        -2.11266         4.78943
     2008.33401         0.78643         4.85392
     2008.33675         1.05152         4.81522
     2008.33949         2.13961         5.01127
     2008.34223         2.86569         4.76879
     2008.34496        -0.52422         4.91583
     2008.34770         5.66487         4.78857
     2008.35044         3.36096         4.79201
     2008.35318         1.73005         4.85048
     2008.35592         2.22514         4.81694
     2008.35865        -6.14577         4.78943
     2008.36139         0.45932         5.10930
     2008.36413         0.98941         4.71204
     2008.36687       -18.17751         4.73698
     2008.36961        -4.64942         4.71978
     2008.37234        -2.15333         4.75245
     2008.37508         3.25076         6.73099
     2008.37782         7.90985         4.73354
     2008.38056        -0.91206         4.88745
     2008.38329        -0.15197         4.83844
     2008.38603         2.36312         4.70602
     2008.38877         1.35421         4.84016
     2008.39151         0.92129         4.88143
     2008.39425        -2.87662         4.72924
     2008.39698         0.35547         4.74557
     2008.39972        11.51556         4.71118
     2008.40246         3.12865         5.29159
     2008.40520         4.43874         4.81866
     2008.40794         3.39083         4.74385
     2008.41067         2.90792         4.73096
     2008.41341         2.55101         4.73354
     2008.41615         3.16109         4.72666
     2008.41889         3.19018         4.72322
     2008.42162        -0.64473         4.79545
     2008.42473         5.87824         7.29076
     2008.42710         2.80045         4.80147
     2008.42984         4.41454         4.84446
     2008.43258         4.28863         4.85994
     2008.43531         4.78672         4.80490
     2008.43805         0.22981         4.89089
     2008.44079        -2.82511         4.79373
     2008.44353        -1.72502         4.81952
     2008.44626         1.34607         4.76363
     2008.44900        -0.34784         4.79201
     2008.45174        -3.78575         4.85994
     2008.45448         2.24834         4.85736
     2008.45722         2.20543         4.69398
     2008.45995        -1.81548         4.74729
     2008.46269        -1.92339         4.78513
     2008.46543        -2.98531         4.75589
     2008.46817        -4.28022         4.74127
     2008.47091        -3.24913         4.76965
     2008.47364         0.44196         4.77911
     2008.47638         0.08705         4.76621
     2008.47912        -1.43586         4.74815
     2008.48186         3.19723         4.72666
     2008.48459         2.59132         4.86424
     2008.48733        -1.92859         4.75159
     2008.49007        -0.40951         4.72408
     2008.49281        -2.13842         4.80147
     2008.49555        -5.85133         4.86080
     2008.49828         1.37176         4.84016
     2008.50102        -3.19815         4.92529
     2008.50376         6.26094         4.86338
     2008.50650         1.88603         4.77481
     2008.50924         4.89212         4.84962
     2008.51197         1.20621         4.73784
     2008.51471         0.17929         4.75331
     2008.51745         0.34138         4.77739
     2008.52019         6.91447         4.74385
     2008.52292         3.18956         4.91153
     2008.52566         1.83365         4.92185
     2008.52840         3.23674         4.76449
     2008.53114         5.37583         4.82038
     2008.53388         8.69792         4.90379
     2008.53661         2.83100         4.82210
     2008.53929         3.50611         5.01127
     2008.54224         2.54013         5.00611
     2008.54483         4.10027         4.87025
     2008.54757         8.08336         4.83930
     2008.55030         7.58045         4.83242
     2008.55304        12.51154         4.81178
     2008.55578         4.67463         4.75331
     2008.55852         4.18872         4.78943
     2008.56125        -2.50320         4.74729
     2008.56399         3.88889         4.78255
     2008.56673         6.03098         4.77567
     2008.56947         9.19607         4.72752
     2008.57221         7.14716         4.83414
     2008.57494         3.01525         4.98806
     2008.57768        12.44334         4.90465
     2008.58042         3.40843         4.78255
     2008.58316         9.88352         4.80490
     2008.58590        14.57860         4.70000
     2008.58863        10.65169         4.86080
     2008.59137         4.15978         5.50053
     2008.59411         9.82287         4.71462
     2008.59685         8.99296         4.80490
     2008.59958         3.51005         4.95366
     2008.60232        10.96714         5.12477
     2008.60506         0.06823         4.96226
     2008.60780         0.03332         4.81866
     2008.61054         7.48040         4.89433
     2008.61327        -2.43051         4.95194
     2008.61601         9.74458         4.83672
     2008.61875         4.79667         4.81866
     2008.62155         8.08074         4.97344
     2008.62423        13.02585         4.81092
     2008.62699         7.64693         5.10930
     2008.62970         8.50803         4.97430
     2008.63244         9.47312         5.00525
     2008.63518        12.19220         5.11617
     2008.63791        10.51629         4.84962
     2008.64065         6.51138         4.83156
     2008.64339         6.93947         4.80404
     2008.64616        10.36655         5.01557
     2008.64887         1.61165         4.81350
     2008.65160         3.58274         4.83586
     2008.65434         0.49483         4.94936
     2008.65708         4.22192         5.09468
     2008.65982         3.00500         4.87455
     2008.66256        15.51909         4.90035
     2008.66532        11.20517         4.87885
     2008.66803        -0.29673         4.88487
     2008.67077        -3.60464         4.89863
     2008.67351         4.71545         4.85994
     2008.67624         4.19454         5.22710
     2008.67898         7.45963         4.89347
     2008.68172         6.71372         4.87369
     2008.68449         9.04579         4.87713
     2008.68720         6.38489         4.87713
     2008.68993         7.43698         5.00697
     2008.69267         8.16307         4.85220
     2008.69541        11.25316         4.89089
     2008.69815         7.26025         5.08522
     2008.70089         8.16034         4.83844
     2008.70365         9.26742         4.89347
     2008.70636        10.39452         4.83844
     2008.70910         9.34360         5.02245
     2008.71184         3.75669         4.99837
     2008.71457         3.15478         4.88143
     2008.71731         3.46587         4.83500
     2008.72005         2.58496         4.79631
     2008.72282         6.23604         4.80490
     2008.72553         4.50314         4.83070
     2008.72826        -0.01477         4.82382
     2008.73100        10.76331         5.02761
     2008.73374        11.03640         4.91239
     2008.73648         7.05849         4.74127
     2008.73921        11.62958         4.92443
     2008.74469         9.08676         4.86595
     2008.74743        10.31685         4.87713
     2008.75017         6.92494         4.91669
     2008.75290         8.75003         4.95452
     2008.75563        11.38412         4.89347
     2008.75838         5.18420         4.96398
     2008.76115         3.76328         4.89605
     2008.76386         9.52638         5.00611
     2008.76659         4.73947         5.06974
     2008.76933         6.58756         4.85564
     2008.77207         0.53165         4.76707
     2008.77481        -0.25826         4.82210
     2008.77754         1.43283         4.73784
     2008.78031         2.33491         4.81178
     2008.78302         1.76900         4.74042
     2008.78576         3.11909         4.81006
     2008.78850         5.79418         4.84446
     2008.79123         3.84027         5.05340
     2008.79397        -5.96064         5.23484
     2008.79671         5.35045         4.99837
     2008.79948        -0.04547         4.87971
     2008.80219         2.85063         4.90551
     2008.80492         3.69871         4.84704
     2008.80766         3.94680         4.78771
     2008.81040        13.97189         5.00611
     2008.81314         3.10998         4.93474
     2008.81587         5.08507         4.80576
     2008.81864         2.64115         4.84274
     2008.82135         2.46125         4.77653
     2008.82409         3.79534         4.85134
     2008.82683         7.60743         4.84016
     2008.82956         3.18851         4.84704
     2008.83230        -3.07740         4.87455
     2008.83504         2.69069         4.93646
     2008.83781        18.05477         5.22538
     2008.84052         0.98087         4.89433
     2008.84325         8.08596         4.78427
     2008.84599         8.12905         4.82640
     2008.84879        -0.94188         5.03363
     2008.85147         4.70823         4.86424
     2008.85420        -6.56169         5.05082
     2008.85697         0.45639         5.00181
     2008.85968         7.82649         4.92357
     2008.86242        -4.89442         4.91669
     2008.86516        -3.34833         4.95538
     2008.86789         0.19376         4.85994
     2008.87063         2.25785         5.01041
     2008.87337        -3.03906         4.92443
     2008.87609        -3.19897         5.03965
     2008.87914        -5.11399         5.62435
     2008.88158        -1.91480         4.84446
     2008.88432        -4.19071         4.84532
     2008.88706        -0.94662         4.98376
     2008.88980        -2.56553         4.97430
     2008.89253        -0.67344         4.93216
     2008.89530        -5.67836         4.97086
     2008.89801         4.20174         4.93560
     2008.90075         1.62983         4.95882
     2008.90326        -6.23301         5.35264
     2008.90724        -7.33634         9.83079
     2008.90896        -1.03191         4.87025
     2008.91170        -1.68582         4.94076
     2008.91447         4.01826         4.87025
     2008.91718         4.74536         4.93560
     2008.91991         6.64745         4.92013
     2008.92265         5.64754         5.26321
     2008.92539        -2.70738         4.89003
     2008.92813         4.95571         4.85048
     2008.93086        -0.19220         4.87025
     2008.93363         0.21188         5.00353
     2008.93634        -0.44902         4.91411
     2008.93908       -11.35393         4.92099
     2008.94182        -6.64384         4.93474
     2008.94455       -10.65375         4.91411
     2008.94729        -8.86766         5.04653
     2008.95003        -0.23158         4.85478
     2008.95280         0.58250         4.91841
     2008.95551         3.66360         4.80748
     2008.95824         3.87669         4.79373
     2008.96084         1.20083         5.23570
     2008.96482        -3.30850        10.57629
     2008.96646        -3.72304         4.97860
     2008.96919        -2.01095         4.82812
     2008.97196        -9.23287         4.88831
     2008.97467        -9.89778         4.84360
     2008.97741         1.15031         4.82468
     2008.98015         2.11940         4.87369
     2008.98288        -1.02451         4.90551
     2008.98538         1.44566         5.63897
     2008.98931        -1.41865         8.38107
     2008.99113        -6.32825         4.88917
     2008.99384        -3.20915         4.93044
     2008.99657        -1.38306         4.85392
     2008.99931        -4.98498         4.95624
     2009.00479        -0.93880         4.85134
     2009.00752         2.74929         4.82640
     2009.01029         3.44637         4.91583
     2009.01300         4.55447         4.84962
     2009.01574         2.97956         4.91755
     2009.01848        -1.15835         4.89691
     2009.02121        -0.32126         4.98806
     2009.02395        -2.93318         4.97258
     2009.02669        -6.96209         4.87283
     2009.02946       -11.69001         4.89089
     2009.03216        -9.64591         4.81866
     2009.03490        -9.07682         4.80318
     2009.03764       -13.08473         4.86595
     2009.04038       -12.82364         4.82296
     2009.04312       -14.44355         4.79287
     2009.04585       -16.22346         4.83500
     2009.04862        -4.87039         4.87197
     2009.05133        -0.06929         4.84274
     2009.05407        -3.78920         4.87541
     2009.05681        -5.52411         4.83414
     2009.05960        -1.16404         4.96054
     2009.06228       -13.16993         4.83586
     2009.06502        -3.57084         4.88229
     2009.06779        -6.62176         4.88229
     2009.07049        -1.82466         4.84876
     2009.07323        -5.91658         4.84704
     2009.07597        -5.14449         4.79803
     2009.07871       -10.83340         4.78943
     2009.08082        -9.85810         6.81440
     2009.08718        -7.20122         5.28299
     2009.08966        -4.95304         4.82554
     2009.09240        -1.79495         4.91583
     2009.09514        -7.54586         4.81780
     2009.09787        -4.72178         4.87369
     2009.10061         0.73931         4.81350
     2009.10335        -9.61960         4.83672
     2009.10612        -0.90452         4.87369
     2009.10882        -2.89842         4.76879
     2009.11156        -5.46233         4.78599
     2009.11430        -4.31524         4.94678
     2009.11704        -1.23415         5.09898
     2009.11978         0.75993         4.80147
     2009.12251        -0.07398         4.87197
     2009.12531        -2.51291         4.82038
     2009.12799        -5.37280         4.81092
     2009.13073        -4.99671         4.84274
     2009.13347        -7.68462         4.79459
     2009.13620        -6.62353         4.84962
     2009.13894        -8.70344         4.85650
     2009.14168        -5.79635         4.86681
     2009.14442        -5.68627         4.86424
     2009.14715         1.90182         5.04481
     2009.14989         0.18191         5.25805
     2009.15263        -5.02800         4.86939
     2009.15537        -3.39691         4.94076
     2009.15811        -2.01282         5.00525
     2009.16632         0.34045         5.02331
     2009.16906         9.21353         7.54270
     2009.17180        -5.33338         4.87369
     2009.17442        -2.95725         5.00181
     2009.17756        -0.71030         5.48076
     2009.18001        -7.88211         4.81522
     2009.18280         0.39796         4.92615
     2009.18548        -3.35793         4.81092
     2009.18822        -3.52184         4.84532
     2009.19096        -3.38875         4.86939
     2009.19370        -1.18767         4.80748
     2009.19644        -0.30458         4.78341
     2009.19877         1.99965         5.85737
     2009.20472        -1.29933         4.99923
     2009.20739         4.34878         4.78255
     2009.21013        -5.14213         4.74385
     2009.21286         1.48096         4.78427
     2009.21560         2.16905         4.83758
     2009.21834        -1.31887         4.80318
     2009.22108        14.95122        11.06211
     2009.22381        -3.40069         4.76191
     2009.22655        -4.87260         4.77395
     2009.22929        -2.49351         4.81608
     2009.23151        -4.58625         6.29074
     2009.23584        -1.93669        11.20055
     2009.23685         5.70897         6.94338
     2009.24375         1.28568         7.10503
     2009.24572         3.47102         4.99923
     2009.24846        -6.18989         4.76879
     2009.25119        -7.84380         4.96226
     2009.25393        -3.02971         4.85994
     2009.25667        -3.01562         4.72838
     2009.25941        -5.70253         4.75331
     2009.26214        -5.07544         4.77567
     2009.26488        -8.02335         4.79889
     2009.26762         0.97773         4.77825
     2009.27036        -6.05818         4.81264
     2009.27310        -7.38609         4.77653
     2009.27583        -2.33500         4.77653
     2009.27858        -7.20791         4.79459
     2009.28131        -5.82982         4.85736
     2009.28405        -6.14173         4.78943
     2009.28679        -3.69664         4.83844
     2009.28952       -11.13355         4.81780
     2009.29226        -8.52147         4.88573
     2009.29417       -17.55810         8.11365
     2009.29788        -7.48934         5.19270
     2009.30047       -10.78120         4.88659
     2009.30321        -6.59311         4.85220
     2009.30595        -6.12002         4.89605
     2009.30869        -2.26693         4.86338
     2009.31143        -9.54984         4.85650
     2009.31416        -2.87876         4.87369
     2009.31690         0.09333         7.68630
     2009.31964        -5.77658         4.89777
     2009.32238        -2.18449         4.81608
     2009.32512        -6.65340         4.89003
     2009.32785        -7.84531         4.89003
     2009.33059        -3.86822         4.79115
     2009.33333        -4.10513         4.79373
     2009.33607        -6.78404         4.77481
     2009.33880        -6.44696         4.81436
     2009.34154        -3.53587         4.80490
     2009.34428        -9.56378         4.81436
     2009.34702        -8.61169         4.76879
     2009.34976        -6.58660         4.72236
     2009.35249        -8.37551         4.73354
     2009.35523       -10.23942         4.81866
     2009.35797        -1.69733         4.81092
     2009.36071        -2.82124         4.95710
     2009.36344        -5.76316         4.69226
     2009.36618        -8.03707         4.74557
     2009.36892        -6.28198         4.71892
     2009.37166        -7.65989         4.81694
     2009.37440        -9.76480         4.85822
     2009.37713        -6.50371         4.73526
     2009.37987        -5.47262         4.93388
     2009.38261        -3.00853         4.70000
     2009.38535        -6.55644         4.76019
     2009.38809        -9.53536         4.73268
     2009.39082       -10.67127         4.73268
     2009.39357        -6.71118         4.70086
     2009.39630        -7.45809         5.76709
     2009.39904        -8.02800         4.73784
     2009.40177        -8.11791         4.72064
     2009.40451        -2.90882         4.74643
     2009.40725        -0.87273         4.70860
     2009.40999        -4.05964         4.74987
     2009.41273        -4.50056         4.71548
     2009.41546        -3.23047         5.03449
     2009.41820        -6.19138         4.78083
     2009.42094       -13.48629         4.78685
     2009.42368        -3.26120         4.79115
     2009.42642        -8.37711         4.75417
     2009.42915        -5.45702         5.61747
     2009.43190        -4.26694         4.73612
     2009.43463        -6.24484         4.75847
     2009.43737        -0.49576         4.89949
     2009.44010        -3.59867         4.70258
     2009.44284        -2.91058         4.69226
     2009.44558        -6.64449         4.71634
     2009.44832        -3.74340         4.75331
     2009.45106        -5.83031         4.76621
     2009.45379       -11.26522         4.75417
     2009.45653        -7.52413         4.74213
     2009.45927        -6.08204         4.80662
     2009.46201        -1.62296         4.75761
     2009.46475        -3.57987         4.89519
     2009.46748        -7.34078         4.86509
     2009.47022         0.80531         4.72838
     2009.47296        -6.97660         4.72408
     2009.47570        -6.23051         4.71806
     2009.47843         0.23958         4.84016
     2009.48117        -3.44933         4.76019
     2009.48391        -8.00524         4.80748
     2009.48665       -10.09016         4.79803
     2009.48967        -4.16716         8.21082
     2009.49212        -3.67698         4.79459
     2009.49486        -3.91789         4.79459
     2009.49760        -3.84380         4.93990
     2009.50034        -2.87771         4.75675
     2009.50308         0.62038         5.20904
     2009.50581        -2.15653         4.72580
     2009.50856        -6.94745         4.75503
     2009.51129        -4.19336         4.78771
     2009.51403        -0.52527         4.73182
     2009.51676        -2.07818         4.74557
     2009.51950        -2.69609         4.73526
     2009.52224        -7.21500         4.75589
     2009.52498         8.23309         4.78857
     2009.52772       -11.21082         4.92872
     2009.53028        -5.27968         5.11531
     2009.53399         1.70109         7.77057
     2009.53593        -1.31856         4.70344
     2009.53835        -1.95136         5.32942
     2009.54168        -3.74947         5.20044
     2009.54414        -2.27429         4.84446
     2009.54651        -1.74408         5.62693
     2009.54973         1.65985         4.96742
     2009.55236        -2.00602         4.74471
     2009.55509         4.12207         4.87369
     2009.55783         6.54815         4.71290
     2009.56057        -0.51576         4.88745
     2009.56331         4.38633         4.88745
     2009.56605         7.86442         5.21334
     2009.56878        -3.23649         4.77395
     2009.57152         2.48060         4.75761
     2009.57426        -2.62131         4.78943
     2009.57700         0.89478         5.16003
     2009.57974         3.02287         4.88057
     2009.58247         3.66395         4.77653
     2009.58521         1.20204         4.84532
     2009.58795         0.51613         4.76363
     2009.59069         1.97322         4.77309
     2009.59342        -1.09569         4.90121
     2009.59582       -15.55949        10.31662
     2009.59972        10.68321         7.70092
     2009.60164        -3.13642         5.01729
     2009.60438        -1.84133         4.78427
     2009.60711        -6.74325         4.83242
     2009.60985         1.19184         4.89433
     2009.61259         3.49093         4.95280
     2009.61533        -8.21898         4.75589
     2009.61807         2.10811         4.73010
     2009.62080         4.94320         4.76363
     2009.62355         1.79329         4.79373
     2009.62628         1.97938         4.75933
     2009.62902        -1.41853         5.12563
     2009.63175         4.62355         4.77395
     2009.63449         2.54764         5.04051
     2009.63723        -3.25427         4.85994
     2009.63997        -4.66918         4.82726
     2009.64271        -3.84609         4.96914
     2009.64544        -0.94800         4.80920
     2009.64818         4.85909         5.28299
     2009.65092         1.53818         4.80490
     2009.65366         2.54527         4.89519
     2009.65639        -5.97065         4.93302
     2009.65913         1.40444         4.77051
     2009.66188         6.11953         4.69054
     2009.66461         3.07962         4.69570
     2009.66735         3.86771         4.78255
     2009.67008         2.36080         4.77051
     2009.67282         2.19089         4.89691
     2009.67556        -1.87502         4.82382
     2009.67830         2.75307         5.03965
     2009.68104         1.13015         5.26665
     2009.68377         0.63624         4.80318
     2009.68651         5.70633         4.71978
     2009.68925         9.18542         4.91669
     2009.69199         5.38851         4.79889
     2009.69472        -8.51340         4.96054
     2009.69746         1.30069         4.71978
     2009.70114        13.89046         9.28650
     2009.70294         6.56986         4.90981
     2009.70568         8.35695         4.79545
     2009.70841        13.69804         5.25633
     2009.71115        -1.87287         4.80662
     2009.71389        -2.87878         5.01987
     2009.71663         4.52431         5.07662
     2009.71937         1.54440         4.81780
     2009.72210        -8.07751         4.74987
     2009.72484         2.87058         4.81264
     2009.72758        -4.02734         4.86166
     2009.73032         1.92575         4.94420
     2009.73305         2.47784         4.86939
     2009.73579         3.81293         4.97086
     2009.73854         3.66702         4.72494
     2009.74126         0.78111         5.03965
     2009.74401         6.96120         5.08780
     2009.74674         5.54529         5.20732
     2009.74948        -2.87262         4.84102
     2009.75222        -2.75854         4.92185
     2009.75496         2.03555         4.72580
     2009.75770        -2.72836         5.08178
     2009.76043        -0.28527         4.74299
     2009.76317         0.85682         4.81006
     2009.76591         5.47691         4.86338
     2009.76865         0.05900         4.82812
     2009.77138         2.38709         4.80318
     2009.77412         0.17318         4.77825
     2009.77687         3.30526         4.77739
     2009.77917         5.94350         5.76967
     2009.78245         2.79640         5.09984
     2009.78507         9.20653         4.92099
     2009.78781         5.22062         4.97774
     2009.79055         2.06571         5.23312
     2009.79329        -5.39920         5.01385
     2009.79603        -3.34412         4.89949
     2009.79876        -5.49002         4.87111
     2009.80150         2.27406         4.92443
     2009.80424         0.15915         5.03535
     2009.80698         0.93824         4.98977
     2009.80971         5.62833         5.16089
     2009.81245         3.22342         4.98462
     2009.81520         5.91251         4.89777
     2009.81793        -5.67740         5.12047
     2009.82067         6.81769         4.84532
     2009.82340         1.02678         4.86681
     2009.82614        -0.92614         5.01385
     2009.82888        -1.20405         5.32168
     2009.83162         9.02104         5.16777
     2009.83436         1.75913         4.81350
     2009.83709        -4.83378         4.95194
     2009.83983        -1.11369         4.83930
     2009.84257        10.78540         4.84274
     2009.84531        -1.98051         4.93646
     2009.84804        10.32158         5.03363
     2009.85078         2.10166         5.00783
     2009.85352         6.16175         5.07576
     2009.85626         0.56684         4.99665
     2009.85900         4.40493         5.08264
     2009.86173        -2.52598         4.97860
     2009.86447         0.91211         5.29932
     2009.86721        -1.69580         5.16433
     2009.86995         4.43829         4.97344
     2009.87269         3.39237         4.95022
     2009.87542         8.37546         4.94936
     2009.87816         4.09755         5.46356
     2009.88090         1.27164         5.09038
     2009.88364         1.58573         4.98548
     2009.88637        -1.13218         4.96656
     2009.88911         9.09191         4.91841
     2009.89185       -18.65600         6.33976
     2009.89459        -1.90691         4.96054
     2009.89733        -8.27083         4.92271
     2009.90006        -7.37374         4.91583
     2009.90280        -6.02865         4.91497
     2009.90554         1.63244         4.99923
     2009.90828        -3.18347         4.90121
     2009.91102        -2.69238         4.83930
     2009.91375        -4.85729         4.84188
     2009.91649        -2.15020         4.89863
     2009.91923        -7.57811         4.87713
     2009.92197        -3.14203         4.95452
     2009.92470        -7.88894         4.77567
     2009.92744        -5.34885         4.87455
     2009.93018        -1.55976         4.87025
     2009.93292        -1.85667         4.77911
     2009.93566        -2.02658         4.76535
     2009.93845         2.06649         6.23313
     2009.94113         3.97960         4.74901
     2009.94387         2.43269         4.82640
     2009.94661         3.39477         4.91497
     2009.94935        -3.26414         4.87025
     2009.95208        -4.35605         4.80834
     2009.95482        -6.31196         4.84102
     2009.95756        -6.96587         4.88057
     2009.96030        -7.56478         4.79115
     2009.96303        -5.87969         4.77223
     2009.96577        -9.67260         4.80233
     2009.96851        -7.20052         4.91841
     2009.97125        -3.49343         4.96570
     2009.97399        -1.17734         4.79975
     2009.97672       -11.66825         4.74643
     2009.97946        -8.15316         4.70430
     2009.98220        -5.44207         4.68280
     2009.98494        -2.86298         4.70946
     2009.98773        -0.46291         4.91325
     2009.99041        -5.51480         4.68796
     2009.99315        -5.84371         4.73440
     2009.99589        -3.39663         4.71978
     2009.99863       -10.92654         4.74643
     2010.00410        -5.24436         4.74729
     2010.00684        -9.32727         4.76879
     2010.00958        -7.03118         4.79545
     2010.01232        -5.43109         4.78685
     2010.01505        -8.86700         4.73698
     2010.01779        -3.82891         4.79201
     2010.02053        -9.66883         4.89433
     2010.02327       -11.64074         4.85134
     2010.02601         0.09635         4.83586
     2010.02874        -4.51256         4.80748
     2010.03148        -0.49247         4.83586
     2010.03422        -6.25438         4.85048
     2010.03696       -11.58729         5.18066
     2010.03969       -15.40520         5.14111
     2010.04243        -8.68311         4.73096
     2010.04517         6.17897         4.78857
     2010.04791         7.39906         4.89433
     2010.05065        -0.68185         4.99579
     2010.05338        -0.00976         5.03363
     2010.05612         0.21533         4.83414
     2010.05886        -1.01258         4.72666
     2010.06160        -2.41049         4.75159
     2010.06434        -6.41541         4.77309
     2010.06707        -6.69831         4.76105
     2010.06916       -16.16501         7.14803
     2010.09284        -2.25489         9.83681
     2010.09445         1.69657         4.84016
     2010.09719        -4.14734         4.84102
     2010.09993        -5.89225         4.74127
     2010.10267         2.50984         4.71376
     2010.10540        -3.50607         4.80233
     2010.10814        -4.85998         4.77997
     2010.11088        -8.90589         4.85564
     2010.11362         3.87220         4.83586
     2010.11635         4.19928         4.76707
     2010.11909        -0.72363         4.81780
     2010.12183        -2.00754         4.90723
     2010.12457         0.02555         4.71634
     2010.12731        -0.97836         4.90293
     2010.13004        -4.23027         4.78599
     2010.13278         1.24682         4.78685
     2010.13552        -0.16209         4.73784
     2010.13826         2.74800         4.71548
     2010.14100        -2.87692         4.68968
     2010.14373        -0.52183         4.88143
     2010.14647        -1.15174         4.87111
     2010.14921         0.04435         4.89949
     2010.15195        -3.33956         4.77653
     2010.15468        -3.19547         4.70946
     2010.15742        -2.59738         4.77653
     2010.16016        -0.75229         4.72838
     2010.16290        -4.42220         4.68796
     2010.16564        -3.52912         4.94420
     2010.16837        -7.30803         4.75245
     2010.17111        -3.31794         4.74299
     2010.17385        -1.96585         4.71634
     2010.17659        -0.58576         4.64325
     2010.17932         0.84133         4.71806
     2010.18206         4.04142         4.85306
     2010.18480         2.74151         4.70688
     2010.18754         1.54360         4.80748
     2010.19028        -2.64432         4.72838
     2010.19247        -1.87005         6.33202
     2010.19965         7.88956        14.06819
     2010.20123        -4.93396         4.74901
     2010.20397         3.64613         5.05340
     2010.20670        -0.20578         4.82554
     2010.20944        -6.87269         4.69054
     2010.21218        -0.91560         4.71204
     2010.21492         2.50648         4.79459
     2010.21766        -1.82443         4.81436
     2010.22039        -3.38934         4.75675
     2010.22313        -5.48825         4.68452
     2010.22587        -4.27416         4.83328
     2010.22861         2.39293         4.86767
     2010.23134        -5.37898         4.94162
     2010.23408        -5.21289         4.82898
     2010.23956        -6.46172         4.90207
     2010.24230        -2.02463         5.05942
     2010.24503         0.38646         4.92786
     2010.24777         1.21355         4.97430
     2010.25051        -2.13936         5.01385
     2010.25325         6.74273         4.89863
     2010.25598         1.77682         4.87197
     2010.25872         4.67991         4.87627
     2010.26146         1.09400         5.17379
     2010.26420         2.10808         5.18496
     2010.26694         7.83517         5.13595
     2010.26967         1.38526         5.05340
     2010.27241         7.52535         5.08178
     2010.27515         6.34044         5.03449
     2010.27789         0.47953         4.87885
     2010.28062        -1.18838         5.33630
     2010.28336        -5.71729         4.97860
     2010.28610        -3.43521         5.06802
     2010.28884        -0.39912         4.96914
     2010.29158        -5.68103         5.08092
     2010.29432         7.65706         4.99407
     2010.29705        -2.15885         5.09124
     2010.29979         0.65824         5.02761
     2010.30253        11.03533         4.99751
     2010.30527         9.00942         5.04911
     2010.30800         7.68051         4.89605
     2010.31074         1.98159         4.97000
     2010.31348         5.10368         4.91325
     2010.31622         7.09377         4.93818
     2010.31895        12.20686         5.10500
     2010.32169         4.82295         4.99407
     2010.32443        11.10804         4.98720
     2010.32717         8.78213         5.08264
     2010.32991         1.29822         4.90379
     2010.33242         3.87938         5.38187
     2010.33618         5.21813         7.53152
     2010.33812         4.50848         4.96742
     2010.34086         2.14657         4.93130
     2010.34360         4.14866         4.82898
     2010.34633        -3.04325         4.90723
     2010.34907         0.53484         4.91841
     2010.35181        -1.33207         4.89519
     2010.35449        -0.95496         5.03793
     2010.35728         2.89111         5.57620
     2010.36002         2.32419         4.93560
     2010.36276         3.36328         4.84102
     2010.36550         4.63137         5.08952
     2010.36824         4.20246         5.08350
     2010.37098         8.77755         4.95108
     2010.37371        -1.62936         4.86252
     2010.37645        -2.03927         4.81006
     2010.37919        10.32082         5.04481
     2010.38199         0.35688         5.14025
     2010.38466         3.96199         4.93302
     2010.38740         7.23008         4.77223
     2010.39014         1.12717         4.73956
     2010.39288         0.04026         4.85736
     2010.39561        -1.86365         5.00009
     2010.39835        -2.01156         4.84188
     2010.40109        -3.92447         4.68194
     2010.40383        -0.42638         4.72408
     2010.40657         1.45271         4.81952
     2010.40931        -0.12721         4.94678
     2010.41204        -4.22112         4.72494
     2010.41478         3.51597         4.70688
     2010.41752         2.77106         4.74213
     2010.42026        -0.11285         4.65787
     2010.42299         2.69124         4.67593
     2010.42573        -3.51067         4.68022
     2010.42847        -5.08159         4.70000
     2010.43121        -0.76649         4.64755
     2010.43394        -3.58141         4.72064
     2010.43668        -7.82032         4.77739
     2010.43942         0.34077         4.66045
     2010.44216        -4.03714         4.65701
     2010.44490        -4.80705         4.64755
     2010.44764       -12.17996         4.85220
     2010.45037        -0.38587         4.68280
     2010.45311        -2.42478         4.66733
     2010.45585        -1.77769         4.66217
     2010.45859        -0.20361         4.74901
     2010.46132        -4.96152         4.74729
     2010.46406         0.20957         4.70688
     2010.46680        -3.67234         5.29245
     2010.46954        -2.39625         4.72494
     2010.47227        -2.32516         4.68280
     2010.47501        -4.62907         4.66819
     2010.47775        -0.59398         4.81694
     2010.48049         0.45410         4.91325
     2010.48323         0.60419         4.72838
     2010.48597         1.10828         4.69140
     2010.48870         2.16437         4.83070
     2010.49144        -0.10754         4.66217
     2010.49418         1.03955         4.69570
     2010.49692        -1.99936         4.80662
     2010.49965        -0.17627         4.67249
     2010.50239         3.72482         4.68968
     2010.50513         1.61590         4.78599
     2010.50787         5.25299         4.65787
     2010.51060         0.24008         4.66303
     2010.51334         6.74217         4.67077
     2010.51608         2.77526         5.12047
     2010.51882        -0.04765         4.65185
     2010.52156        15.18544         4.97774
     2010.52430         3.95853         4.70258
     2010.52703         8.82962         4.70516
     2010.52977         5.77670         4.62863
     2010.53251        -5.01721         4.62347
     2010.53525         4.08288         4.73182
     2010.53798        -1.56703         4.69914
     2010.54072        -2.04894         4.69140
     2010.54346        -0.84585         4.66561
     2010.54620         0.11824         4.62347
     2010.54893        -1.33667         4.67679
     2010.55167        -0.81958         5.36038
     2010.55441         8.62250         4.92099
     2010.55715         1.40659         4.65271
     2010.55989        -5.77832         4.70602
     2010.56263        -2.27223         4.64325
     2010.56536        -3.34314         4.70946
     2010.56810         0.43095         4.81350
     2010.57084        -0.52096         4.63723
     2010.57357         1.79013         4.76621
     2010.57631        -1.01478         4.76535
     2010.57905        -0.00670         4.65443
     2010.58179        -1.38761         4.79029
     2010.58453        -7.41052         4.70602
     2010.58726        -2.25043         4.82124
     2010.59000        -0.52534         4.84962
     2010.59274         2.89875         4.81092
     2010.59553         5.35482         4.77051
     2010.59822         1.96593         4.94420
     2010.60096         4.33801         4.71634
     2010.60369         0.22810         4.66389
     2010.60637         1.31421         4.73096
     2010.60917         4.37528         4.83672
     2010.61190        -0.41263         4.66647
     2010.61470         1.30944         4.86939
     2010.61738         0.77155         4.65099
     2010.62012         5.64464         4.75417
     2010.62286         3.73773         4.82296
     2010.62559         2.08482         4.65357
     2010.62833         5.51290         5.01385
     2010.63107        -0.97601         4.94162
     2010.63380         4.21808         4.82640
     2010.63655         6.97817         5.79804
     2010.63929         1.09926         4.70086
     2010.64199         2.08536         4.90895
     2010.64479        -2.09457         5.06888
     2010.64750         2.90453         4.66561
     2010.65023         3.18862         5.12907
     2010.65297         7.42870         4.96742
     2010.65571        -1.10521         4.75073
     2010.65845        -0.26912         4.94334
     2010.66119         6.28797         4.66045
     2010.66392         3.25706         4.86595
     2010.66666         5.67215         5.07834
     2010.66940         0.94424         4.78255
     2010.67214         1.99133         4.83070
     2010.67488         3.53141         4.70516
     2010.67700         3.17171         6.45068
     2010.68395         5.13040         7.94684
     2010.68583        10.58477         5.05942
     2010.68846         3.38390         4.97774
     2010.69131         0.34295         4.71376
     2010.69404        -1.28396         4.98462
     2010.69678        -1.63388         4.73440
     2010.69952        -2.00279         4.71462
     2010.70225         7.18830         4.79889
     2010.70499         0.26739         4.95796
     2010.70773        -3.74352         4.82124
     2010.71047         5.75557         5.14885
     2010.71321         4.32166         4.78427
     2010.71595        11.29375         4.90207
     2010.71868        11.30784         4.79545
     2010.72142         5.05193         4.73612
     2010.72416         2.69101         4.84790
     2010.72689        -5.38890         4.87971
     2010.72958        -0.04779         4.81866
     2010.73240        -1.46273         4.98720
     2010.73511         5.42837         4.84274
     2010.73785         2.22146         4.98290
     2010.74058         3.08155         5.04825
     2010.74332         2.38664         4.71376
     2010.74606         4.64173         5.21162
     2010.74880         6.51681         4.77481
     2010.75154         4.68090         4.83156
     2010.75428         3.16899         4.82554
     2010.75701         1.34008         5.03277
     2010.75975        -1.07683         5.03879
     2010.76249         0.66526         4.81178
     2010.76522        10.50135         4.87283
     2010.76796        -4.26956         5.17980
     2010.77070        -4.55147         4.96570
     2010.77339         3.02063         5.12133
     2010.77618        -0.81030         4.79029
     2010.77891        -4.46821         5.03277
     2010.78165         0.84788         4.84790
     2010.78439         2.03497         4.86767
     2010.78713         3.77406         5.24859
     2010.78987         1.42015         4.80147
     2010.79261        -0.21477         4.62175
     2010.79534        -3.42367         4.80834
     2010.79808         5.06341         4.58650
     2010.80082         0.98650         4.71118
     2010.80354        -1.44740         4.81178
     2010.80643        12.63263         5.09726
     2010.80903         2.98677         4.95108
     2010.81177         7.49286         5.05684
     2010.81451         7.93495         4.87025
     2010.81724        10.14604         4.85650
     2010.81998         5.93213         4.66475
     2010.82272         2.12121         4.97000
     2010.82546         0.19130         4.64239
     2010.82820         0.77139         4.70516
     2010.83094         1.50148         4.89519
     2010.83367        -6.66643         5.12133
     2010.83641         1.40366         4.73354
     2010.83915         5.82175         4.71118
     2010.84188         1.69184         4.70516
     2010.84462         1.96993         4.71978
     2010.84736        10.12701         4.74557
     2010.85010         7.34310         4.76019
     2010.85284        11.07019         4.77481
     2010.85557         1.08828         4.69570
     2010.85831         3.20637         4.59166
     2010.86105        -6.30554         5.00267
     2010.86379        -3.14845         4.60542
     2010.86653       -10.42436         4.68538
     2010.86927        -5.56428         4.77997
     2010.87200         1.56281         4.74299
     2010.87480         0.78988         5.10242
     2010.87748         1.48999         4.90637
     2010.88021         0.72208         5.08522
     2010.88233         3.93238         6.93994
     2010.88569         4.80726         4.77223
     2010.88843        -1.47365         5.01127
     2010.89117         2.61944         5.02159
     2010.89390         6.62052         4.76105
     2010.89664         3.96961         4.71462
     2010.89938         4.01170         4.71892
     2010.90212         3.62479         4.84790
     2010.90485        -0.37612         4.81264
     2010.90759         1.30597         4.75073
     2010.91033         0.87406         4.89605
     2010.91307       -10.24285         4.73010
     2010.91581        -0.84376         4.71290
     2010.91854         0.03232         4.72322
     2010.92128         0.86241         4.74471
     2010.92402        -4.31650         4.70688
     2010.92676         7.65959         4.69484
     2010.92950         5.11568         4.67421
     2010.93223        -5.88123         4.79717
     2010.93497         6.23386         4.77567
     2010.93771         3.41495         4.71376
     2010.94045        -0.92896         4.80233
     2010.94318         0.70812         4.73096
     2010.94593        -1.45779         4.68366
     2010.94866        -0.51970         4.75761
     2010.95140         5.64239         5.01041
     2010.95414         1.52648         4.76363
     2010.95687        -0.29043         4.76105
     2010.95961         1.99366         4.74127
     2010.96235         4.14175         4.75589
     2010.96509         4.68384         4.77481
     2010.96783         1.18892         4.84962
     2010.97056         0.49401         4.72924
     2010.97330         6.76110         4.81608
     2010.97604        -0.11081         4.72666
     2010.97878        -1.83172         4.74901
     2010.98151        -6.05363         4.64325
     2010.98426        -7.60054         4.69312
     2010.98699         4.70755         4.64669
     2010.98973         3.39064         4.69312
     2010.99247         2.67272         4.79889
     2010.99520         2.34581         4.69484
     2010.99749         0.86405         5.88919
     2011.00711        -4.25315         7.83936
     2011.00889         2.38126         4.69484
     2011.01163        -1.03165         4.58392
     2011.01437        -3.02756         4.59338
     2011.01711        -8.09848         4.80490
     2011.01984         4.31261         4.58822
     2011.02259        -0.70030         4.59768
     2011.02532        -1.24421         4.70516
     2011.02806         1.48988         4.81608
     2011.03080        -6.74703         4.56586
     2011.03353         0.35406         4.61058
     2011.03627        -6.51685         4.63895
     2011.03901        -6.82976         4.60026
     2011.04175        -5.21068         4.62777
     2011.04449        -2.00359         4.57188
     2011.04722        -2.34350         4.67421
     2011.04996        -5.94141         4.65529
     2011.05270       -10.96832         4.56844
     2011.05544        -6.56423         4.62777
     2011.05817        -2.06514         4.57102
     2011.06092        -6.64506         4.56242
     2011.06365        -0.27397         4.57704
     2011.06639        -2.44688         4.60456
     2011.06913        -9.01079         4.87455
     2011.07186        -7.56570         4.58564
     2011.07460        -1.78461         4.55469
     2011.07734         1.09648         4.58736
     2011.08008        -4.74243         4.59252
     2011.08282        -5.58234         4.59080
     2011.08555        -6.53425         4.60198
     2011.08829        -5.97617         4.58736
     2011.09103        -4.88208         4.56844
     2011.09377       -10.46699         4.67593
     2011.09650        -4.80290         4.61488
     2011.09924        -1.90881         4.59596
     2011.10198         0.58928         4.71118
     2011.10472        -0.78663         4.57446
     2011.10746        -4.02854         4.62777
     2011.11019         1.52855         4.53491
     2011.11293         2.73163         4.64755
     2011.11567         4.38572         4.74557
     2011.11841        -0.13319         4.74815
     2011.12115        -9.78810         4.63207
     2011.12388         1.35999         4.72494
     2011.12662         2.13808         4.81350
     2011.12936         4.13817         4.75159
     2011.13210        -3.56774         4.59682
     2011.13483        -7.82265         4.58564
     2011.13757        -0.33757         4.53749
     2011.14031         1.97152         4.54523
     2011.14305        -0.88239         4.69226
     2011.14579        -0.39330         4.74557
     2011.14852        -2.14421         4.59424
     2011.15126         3.34888         4.51685
     2011.15400         4.57197         4.68108
     2011.15674         2.45405         4.60370
     2011.15948        -0.12085         4.78943
     2011.16221        -1.56277         4.54867
     2011.16495        -0.84468         4.64583
     2011.16769         0.26241         4.58048
     2011.17043       -11.62150         4.63551
     2011.17316        -9.36541         4.57360
     2011.17591        -8.29332         4.55898
     2011.17864        -0.64823         4.55469
     2011.18138        -1.87414         4.57102
     2011.18412        -5.00805         4.65013
     2011.18685        -1.74697         4.68366
     2011.18959        -0.14588         4.59596
     2011.19233         0.22321         4.56586
     2011.19507        -0.94570         4.56672
     2011.19780         6.53439         4.72322
     2011.20054        -3.50152         4.66217
     2011.20328         3.16457         4.76535
     2011.20602         0.90566         4.66647
     2011.20876        -3.95625         4.64325
     2011.21149        -5.34817         4.61831
     2011.21423         0.02092         4.59080
     2011.21697        -1.92099         4.73354
     2011.21971         0.28110         4.69570
     2011.22245         0.75019         4.59854
     2011.22518         1.26928         4.64067
     2011.22792        -3.10563         4.57360
     2011.23066        -2.17254         4.71548
     2011.23340         0.13155         4.63379
     2011.23613        -0.51137         4.70172
     2011.23887        -5.14828         4.66389
     2011.24161        -5.81819         4.64583
     2011.24435        -7.54010         4.69312
     2011.24709        -0.10701         4.63809
     2011.24982         1.11408         4.59854
     2011.25257         2.62917         4.59166
     2011.25530        -0.31774         4.57102
     2011.25804         2.97734         4.72236
     2011.26078         3.75743         4.73096
     2011.26351         2.21752         4.61488
     2011.26625        -5.34739         4.59596
     2011.26899         5.92470         4.61745
     2011.27173        -3.54621         4.70172
     2011.27446         6.76288         4.74901
     2011.27720        -0.89803         4.73870
     2011.27994        -4.27494         4.59424
     2011.28268         2.11314         4.64067
     2011.28502        -7.56363         5.49021
     2011.28815        -4.61768         4.59338
     2011.29090         3.10041         4.55898
     2011.29637         0.42859         4.63293
     2011.29911        -3.80832         4.62433
     2011.30184         9.83777         4.75159
     2011.30458         2.32886         4.58134
     2011.30732         2.97294         4.57532
     2011.31006         9.42803         4.63809
     2011.31279         1.87912         4.63121
     2011.31553         5.95421         4.58478
     2011.31827         5.74030         4.65615
     2011.32101         0.40439         4.57704
     2011.32375        -4.79452         4.62003
     2011.32648        -3.25943         4.59510
     2011.32923        -6.40635         4.57962
     2011.33196        -0.80726         4.62519
     2011.33470        -3.12617         4.62261
     2011.33744        -2.01808         4.72408
     2011.34017         5.55801         4.88573
     2011.34291        -0.19690         4.78771
     2011.34565         3.20619         4.74471
     2011.34839        -1.74972         4.70774
     2011.35112         3.54237         4.76019
     2011.35386        -3.42954         4.72666
     2011.35660        -6.95646         4.75417
     2011.35934        -5.34837         4.68882
     2011.36208       -14.40028         4.68624
     2011.36481        -4.70319         4.78083
     2011.36756        -7.34610         4.76449
     2011.37029        -3.31601         4.76879
     2011.37303         2.26108         5.04051
     2011.37577        -4.09483         4.78513
     2011.37850        -5.00474         4.65959
     2011.38124        -7.77666         4.67679
     2011.38398        -6.61957         4.68882
     2011.38672        -4.15348         4.69226
     2011.38945        -3.24839         4.69570
     2011.39219        -3.84330         4.69140
     2011.39493        -4.66521         4.72408
     2011.39767        -1.76012         7.58312
     2011.39918        12.09237        16.53513
     2011.41796        15.89712        11.14380
     2011.41957        -5.85041         4.79373
     2011.42231       -11.21532         4.73526
     2011.42505         3.77877         4.67249
     2011.42778        -5.58814         4.78685
     2011.43052        -5.22606         4.69484
     2011.43326        -6.31397         4.65873
     2011.43600        -9.62188         4.72666
     2011.43874        -3.09179         4.74729
     2011.44147        -3.37570         4.68022
     2011.44421         1.86339         4.66389
     2011.44695        -1.89452         4.71204
     2011.44969        -3.87743         4.70516
     2011.45243        -2.87135         4.70602
     2011.45516        -1.45126         4.69656
     2011.45790        -4.03917         4.71462
     2011.46064        -4.05208         4.73010
     2011.46338       -11.02699         4.75417
     2011.46611        -3.37990         4.70860
     2011.46885         2.35819         4.89777
     2011.47159         2.38328         4.74385
     2011.47433         2.46637         4.67936
     2011.47707         0.61645         4.73526
     2011.47980        -3.39346         4.71978
     2011.48255        -2.09837         4.77997
     2011.48528        -3.06528         4.74729
     2011.48802         2.62481         4.70430
     2011.49076         3.36090         4.75503
     2011.49349        -5.00901         4.71720
     2011.49623        -0.04492         4.70086
     2011.49897         0.71517         4.77481
     2011.50171         0.32125         4.73010
     2011.50444        -1.93566         4.73268
     2011.50678        -4.55043         5.69830
     2011.50992         1.97952         5.88059
     2011.51266         2.33161         4.81178
     2011.51540         3.68970         4.74127
     2011.51813         2.80679         4.73096
     2011.52088         1.79788         4.78341
     2011.52361         0.71797         4.74213
     2011.52635        -3.38795         4.70430
     2011.52908        -6.73486         4.77395
     2011.53182         1.12423         4.74987
     2011.53456        -4.86368         4.75073
     2011.53730        -3.63159         4.70086
     2011.54004        -0.16050         4.69828
     2011.54277        -7.02841         4.69656
     2011.54551        -2.41432         4.75245
     2011.54825        -3.03523         4.71720
     2011.55099         3.91485         4.86509
     2011.55373         2.52594         4.66733
     2011.55646        -0.28997         4.70688
     2011.55920        -5.06688         4.75331
     2011.56194        -2.47979         4.72322
     2011.56468         2.96030         4.69140
     2011.56741         5.88739         4.66131
     2011.57015         0.51548         4.74385
     2011.57289        -0.21943         4.68366
     2011.57563         3.72265         4.71720
     2011.57837         3.18574         4.77137
     2011.58110       -10.05317         4.68022
     2011.58384         6.50592         4.68452
     2011.58658         2.55201         4.82812
     2011.58932        -0.91690         4.72322
     2011.59206         0.09819         4.75245
     2011.59479         8.03828         4.70000
     2011.59754         7.39236         4.70774
     2011.60027         6.35445         4.66647
     2011.60301         8.43454         4.71290
     2011.60574        -1.51637         4.83930
     2011.60848         7.56972         5.00267
     2011.61122         2.37381         4.91583
     2011.61396         2.43590         4.82124
     2011.61670         7.08999         5.41283
     2011.61943         5.87308         4.79373
     2011.62217         4.91817         4.82468
     2011.62491        -3.29575         4.83930
     2011.62765         1.09034         4.75847
     2011.63039         4.88443         4.75417
     2011.63312         4.84152         4.77395
     2011.63587         6.05561         4.74901
     2011.63860        14.02570         4.97860
     2011.64134         5.98079         4.92615
     2011.64407         1.26088         4.90981
     2011.64681        12.04996         4.78169
     2011.64955         8.57805         4.89175
     2011.65229        -0.56786         4.83672
     2011.65503         6.00623         4.82640
     2011.65776         8.96132         4.84102
     2011.66050         9.41641         4.90981
     2011.66324        10.67850         4.80576
     2011.66598         5.16059         4.83930
     2011.66872         5.71668         4.93044
     2011.67145         7.73976         4.71462
     2011.67420         9.05485         4.70774
     2011.67693        10.94994         4.71892
     2011.67967         5.05703         4.73010
     2011.68240         8.07112         4.84360
     2011.68514         2.55821         4.87713
     2011.68788         3.32830         4.78083
     2011.69062         4.16439         4.84876
     2011.69336        11.25647         4.80662
     2011.69609         8.43956         4.81436
     2011.69883         9.26765         4.80061
     2011.70157         3.84274         4.81006
     2011.70431         6.22883         4.79889
     2011.70705         7.22192         4.87885
     2011.70978        19.29201         5.13423
     2011.71252        -4.05990         6.04826
     2011.71526         4.38319         4.86767
     2011.71800         6.76428         4.83586
     2011.72073        11.44836         4.85994
     2011.72347        11.48145         5.07748
     2011.72621        11.93354         4.85822
     2011.72895         8.10763         4.74557
     2011.73169        13.42872         5.04997
     2011.73442         9.92781         5.39907
     2011.73716        10.03890         4.95968
     2011.73990         3.84499         4.72752
     2011.74149        18.83846        11.15584
     2011.80122         8.49658        10.56168
     2011.80287         9.89803         4.82124
     2011.80561         6.04612         4.84790
     2011.80835         1.99421         4.81694
     2011.81108         1.56330         4.81178
     2011.81382         1.03139         4.93216
     2011.81650         0.33549         4.89347
     2011.81930         2.78056         4.81350
     2011.82203         8.64065         4.95624
     2011.82477         4.84474         5.02589
     2011.82752        -1.75817         5.06544
     2011.83033         6.95189         5.04567
     2011.83299        -1.99399         4.95108
     2011.83572         8.45710         5.25805
     2011.83846         2.85519         5.10500
     2011.84120         0.79027         4.78771
     2011.84394         4.09036         4.97516
     2011.84668         2.96145         4.86080
     2011.84941        -6.90446         4.85220
     2011.85215        -4.10637         5.05254
     2011.85489         1.90672         4.93302
     2011.85763         4.08581         5.07576
     2011.86036         2.92190         5.02331
     2011.86310         7.76499         4.99751
     2011.86585         9.41307         5.04911
     2011.86858        12.67716         4.75847
     2011.87132         8.07525         4.93560
     2011.87405        -2.65366         4.98462
     2011.87679         6.59143         5.00095
     2011.87953         3.99652         4.88057
     2011.88227        -2.01839         4.82124
     2011.88501         2.13070         4.78427
     2011.88774        -2.54921         4.84446
     2011.89048         2.88987         4.78685
     2011.89322         0.79296         4.93818
     2011.89596        -5.46295         4.84274
     2011.89869         3.86414         4.84274
     2011.90143        -2.10977         4.84876
     2011.90417        -3.09868         4.93990
     2011.90691        -1.97459         4.85822
     2011.90965         2.53250         4.77739
     2011.91224         4.49063         5.28901
