# ================= DQRFIT RESULTS ================
# INPUT FILE: series/JIME.rad
# OUTPUT: LDETRENDED
# FILTER FUNCTION: f(t)
# f(t)=+line(t)+annual(t)
# line(t)=+P 1+P 2*t
# annual(t)=+P 3*sin(2*pi*t+P 4)
# heav(t)=(t<0?0:1)
# TOTAL OBSERVATIONS MTOT= 3886
# INITIAL TIME INTERVAL= 2022.7488 - 2011.5455 = 11.2033
# TOTAL OBSERVATIONS AFTER PREFILTER M= 3880
# TIME-SPAN= 2022.7488 - 2011.5455 = 11.2033
# OBSERVATIONS: USED M=  3880 REJECTED MTOT-M=     6 %USED=   99.8456
# N=  4 PARAMETERS
# MAXSIG= 175.00000
# MAXRES=  34.09782
# SCALE FACTOR FOR LENGTHS: SCL=  10.00000
# SCALE FACTOR FOR SIGMAS: SCLSIG=   1.00000
# CHI^2=   7781.554 DOF=  3876 CHI^2/DOF=   2.00762
# RMS=      8.077 SDEV=      8.078 MEAN=    0.11819
#  P #       PARAMETER +-    SIGMA %error PARAMETER NAME
# P 1 =     -1667.11997 +-   79.357   4.76 YZERO                              
# P 2 =         0.82899 +-    0.039   4.75 SLOPE                              
# P 3 =         4.57520 +-    0.179   3.91 ANNUAL AMPLITUDE                   
# P 4 =         2.97850 +-    0.054   1.83 ANNUAL PHASE                       
#       T            LDETRENDED       SIG_OBS
     2011.54551         5.86731         7.83124
     2011.54825        -0.67496         7.86808
     2011.55099         3.72277         7.96443
     2011.55373        -4.29050         7.78732
     2011.55646        -3.13877         7.85391
     2011.55920         5.67796         8.07637
     2011.56194        -1.42331         8.03386
     2011.56468         5.01542         7.92334
     2011.56741         1.88615         7.86242
     2011.57015        -2.47712         7.88650
     2011.57289       -11.94539         8.05370
     2011.57563         6.84334         7.84258
     2011.57837         7.95707         7.97152
     2011.58110        -4.59320         8.09195
     2011.58384        -1.10847         8.06220
     2011.58658         0.80826         8.06645
     2011.58932        -0.02401         7.86383
     2011.59206         2.89072         7.89359
     2011.59479         6.35445         7.81141
     2011.59753         7.80719         7.78024
     2011.60027         2.50492         7.90067
     2011.60301         2.55865         7.84541
     2011.60574         6.93538         7.95451
     2011.60848         4.15611         8.38242
     2011.61122         6.86484         8.12879
     2011.61396         1.78157         7.97435
     2011.61670         7.80530         7.98569
     2011.61943         3.92103         8.02961
     2011.62217         4.03076         8.04803
     2011.62491        -3.81751         7.99419
     2011.62765         4.76922         8.12313
     2011.63039         3.31295         7.93043
     2011.63312         7.46468         7.95877
     2011.63586        10.12841         7.91342
     2011.63860         8.67214         8.05937
     2011.64134         3.30787         8.29741
     2011.64407         1.38060         8.10471
     2011.64681         6.08433         7.95168
     2011.64955         5.20406         8.19964
     2011.65229        -0.16621         8.04095
     2011.65503         5.90552         8.21664
     2011.65776         4.94425         7.93468
     2011.66050         8.11698         8.37392
     2011.66324         6.92271         7.92193
     2011.66598         4.89544         8.08487
     2011.66872         7.23617         8.48727
     2011.67145         7.74190         7.97010
     2011.67419         9.28963         7.84258
     2011.67693        12.35137         7.98285
     2011.67967         3.99910         7.95168
     2011.68240         6.12683         8.14296
     2011.68514         6.05956         8.18547
     2011.68788         6.98229         8.01402
     2011.69062        10.49802         8.19681
     2011.69336        10.31375         8.05228
     2011.69609         6.06348         7.97435
     2011.69883         8.67621         8.20531
     2011.70157         1.80894         7.95451
     2011.70431         8.09567         8.02111
     2011.70705         4.75840         8.16988
     2011.70978        -2.35687         8.24498
     2011.71252         5.02386         8.28890
     2011.71526        -8.87041         8.28607
     2011.71800         8.78532         8.21806
     2011.72073         8.76905         8.04095
     2011.72347         7.18478         8.26765
     2011.72621         7.71851         8.00694
     2011.72895         7.88124         8.16280
     2011.73169        17.00097         8.46035
     2011.73442        14.25470         7.97152
     2011.73716        21.49643         8.30591
     2011.73990         5.13416         7.94885
     2011.74264         5.55689         7.98427
     2011.74538         8.18462         8.29599
     2011.74811        12.68735         8.28324
     2011.75085         7.94708         8.19964
     2011.75359        12.21881         8.13588
     2011.75633        13.78355         8.21381
     2011.75906        32.87628         8.03528
     2011.76180        15.19301         8.06078
     2011.76454        13.20574         8.08770
     2011.76728         4.00947         7.94176
     2011.77002        10.10320         8.31158
     2011.77275        26.73293         8.50144
     2011.77549        30.99366         8.55528
     2011.77823         4.27839         8.12596
     2011.78097         8.42412         8.11463
     2011.78371         9.75585         8.00552
     2011.78644        21.04958         7.99419
     2011.78918        10.75231         7.94035
     2011.79192         1.34904         7.91342
     2011.79466         1.08577         7.91768
     2011.79739         9.12650         7.89359
     2011.80013         9.09423         7.85675
     2011.80287         0.44596         7.85675
     2011.80561         4.29769         8.01261
     2011.80835         7.25442         8.11321
     2011.81108        10.96115         8.09621
     2011.81382         0.54988         7.98002
     2011.81656         3.22761         7.90067
     2011.81930         7.16434         7.85108
     2011.82203         2.82707         8.11746
     2011.82477        14.20280         8.03528
     2011.82751         2.23953         8.00127
     2011.83025         0.62626         8.16280
     2011.83299        -3.33701         7.93326
     2011.83572         0.98273         7.95451
     2011.83846        13.39046         7.94601
     2011.84120         7.87819         7.84683
     2011.84394        17.81892         7.95310
     2011.84668        11.57565         7.76607
     2011.84941         0.21738         7.82983
     2011.85215        -0.57489         7.88509
     2011.85489         3.88484         7.95168
     2011.85763         4.27857         8.03953
     2011.86036         9.06130         7.87233
     2011.86310        21.89403         8.12879
     2011.86584        19.68976         7.92193
     2011.86858        16.48249         7.87800
     2011.87132        13.22722         7.89500
     2011.87405         9.24695         7.85391
     2011.87679        14.40368         8.16138
     2011.87953        17.61041         8.15713
     2011.88227        22.38714         7.97010
     2011.88501         8.29187         7.84258
     2011.88774         9.72260         7.95735
     2011.89048        20.83933         8.00836
     2011.89322        16.46606         8.05937
     2011.89596        17.23279         8.02678
     2011.89869        10.21452         8.06928
     2011.90143        -0.74975         7.93468
     2011.90417         2.69698         8.00269
     2011.90691        16.99771         7.98285
     2011.90965         5.91844         7.88650
     2011.91238        18.59317         8.11604
     2011.91512        -1.14009         7.84116
     2011.91786        -1.71436         8.06787
     2011.92060        -4.40263         7.93893
     2011.92334        -7.38090         8.05795
     2011.92607        -5.65417         7.92759
     2011.92881        -2.76644         7.87658
     2011.93155         1.77229         7.98285
     2011.93429        -0.18398         7.98427
     2011.93702         0.22975         8.09904
     2011.93976         3.74848         8.04803
     2011.94250         5.65421         7.94460
     2011.94524        -0.19306         8.02253
     2011.94798         6.28667         8.08487
     2011.95071         4.45240         7.92901
     2011.95345        17.58913         8.07353
     2011.95619         6.65486         8.06078
     2011.95893         0.91559         7.63713
     2011.96167         1.17532         7.93609
     2011.96440         3.69605         7.85391
     2011.96714         3.99078         8.04803
     2011.96988         6.47051         7.60596
     2011.97262         0.18524         7.62012
     2011.97535        -0.89403         7.77032
     2011.97809        -8.04930         7.75473
     2011.98083         3.53543         7.98002
     2011.98357        15.23416         7.71081
     2011.98631        21.38989         7.74340
     2011.99178        11.66435         7.93609
     2011.99452        24.99509         7.77740
     2011.99726         2.52882         7.71506
     2012.00273         4.08528         7.79440
     2012.00547         1.97701         7.80007
     2012.00821         3.32374         7.92618
     2012.01095        10.39047         7.83975
     2012.01368         6.98920         7.71506
     2012.01642        24.64893         7.80007
     2012.01916         6.11966         7.71931
     2012.02190         4.84439         7.78874
     2012.02464        17.51212         7.66830
     2012.02737        -0.85915         7.74481
     2012.03011         1.58558         7.75756
     2012.03285        -4.88969         7.67963
     2012.03559         2.36804         7.71364
     2012.03833         1.31977         7.63004
     2012.04106         5.52650         7.74198
     2012.04380        21.65223         7.97152
     2012.04654        14.81596         8.28749
     2012.04928        21.58469         7.86950
     2012.05201        19.90642         7.81849
     2012.05475        25.97815         7.93893
     2012.05749        17.33088         7.86808
     2012.06023        13.56561         7.83691
     2012.06297         5.36034         7.84541
     2012.06570        19.47307         8.03103
     2012.06844        -6.66820         7.96868
     2012.07118        -2.54747         7.61304
     2012.07392        -0.69174         7.61021
     2012.07666         9.52400         7.85958
     2012.07939        16.35673         7.73914
     2012.08213         3.77846         7.69522
     2012.08487         9.67419         7.75473
     2012.08761        -3.07708         7.72356
     2012.09034        -0.26935         7.73348
     2012.09308        -1.27062         7.74765
     2012.09582         2.82111         7.82841
     2012.09856         1.86984         7.73631
     2012.10130        -1.36243         7.90067
     2012.10403        11.55330         7.68389
     2012.10677        17.11903         7.92334
     2012.10951         5.00276         8.14863
     2012.11225         4.07849         7.86242
     2012.11498         2.14322         7.79724
     2012.11772        21.24395         7.84966
     2012.12046        10.19568         7.92334
     2012.12320         2.31841         7.78449
     2012.12594        -1.75886         7.74623
     2012.12867         5.14887         7.83833
     2012.13141         2.95860         8.15713
     2012.13415         0.98833         7.87517
     2012.13689        11.27906         7.91909
     2012.13963        13.47379         8.08629
     2012.14236         6.76252         8.19539
     2012.14510         4.04925         7.87942
     2012.14784        -4.80502         7.67680
     2012.15058        17.05871         7.81424
     2012.15331        -2.64756         7.65130
     2012.15605        -0.97582         7.79015
     2012.15879         4.78291         7.83266
     2012.16153        22.75764         7.86242
     2012.16427         0.77937         8.61479
     2012.16700         0.14710         7.92618
     2012.16974        -5.42917         7.71081
     2012.17248        -3.30144         7.73064
     2012.17522        -2.22671         7.87517
     2012.17796         1.64102         7.82133
     2012.18069        -4.64925         7.82133
     2012.18343        -5.07452         7.74481
     2012.18617         0.07921         7.80149
     2012.18891         1.42394         7.94035
     2012.19164        13.34667         7.81991
     2012.19438         6.92140         7.84683
     2012.19712        17.98713         7.79299
     2012.19986        15.36386         7.80432
     2012.20260        16.06559         7.85391
     2012.20533         5.45732         7.91201
     2012.20807        12.20005         7.92476
     2012.21081         4.04378         7.79866
     2012.21355        -2.26049         7.69380
     2012.21629        -4.41976         7.76607
     2012.21902        17.59297         7.77740
     2012.22176         0.30270         8.05795
     2012.22450        -6.64157         7.70089
     2012.22724         1.33216         7.75473
     2012.22997        -0.82211         7.75756
     2012.23271         3.39962         7.90634
     2012.23545        21.66836         7.88367
     2012.23819        15.72609         7.74340
     2012.24093        16.55082         7.79440
     2012.24366        15.40155         8.04661
     2012.24640        12.48028         7.87092
     2012.24914         6.24601         7.83549
     2012.25188        -6.52126         7.71647
     2012.25462         3.59347         7.86383
     2012.25735         0.67920         7.63004
     2012.26009        -3.80307         7.81141
     2012.26283        -0.94134         7.84966
     2012.26557        -4.79861         7.75331
     2012.26830        -4.64088         7.69522
     2012.27104        -3.64815         7.90351
     2012.27378        -0.06142         7.67680
     2012.27652         4.85031         7.74623
     2012.27926        15.54804         8.01402
     2012.28199        16.91977         7.76607
     2012.28473         3.31550         7.75615
     2012.28747        -4.68177         7.88934
     2012.29021         6.07196         7.85817
     2012.29295        -5.19831         7.77882
     2012.29568         0.70442         7.80716
     2012.29842         4.45115         7.71081
     2012.30116        -0.66112         7.74765
     2012.30390        -5.06739         7.82558
     2012.30663        -4.81266         7.71931
     2012.30937         2.15807         7.87517
     2012.31211        -1.06820         7.98852
     2012.31485         4.23954         7.86100
     2012.31759         9.11727         7.79724
     2012.32032        -0.05900         7.93609
     2012.32306        -4.95127         7.77315
     2012.32580        -7.21154         7.67397
     2012.32854         3.93319         7.96443
     2012.33128         3.04792         7.85250
     2012.33401        -0.41635         7.89500
     2012.33675         7.66738         7.74906
     2012.33949        -3.30089         7.69664
     2012.34223       -11.26516         7.64988
     2012.34496        -8.22843         7.67822
     2012.34770        -3.00470         7.76748
     2012.35044        -4.21397         7.72781
     2012.35318        -3.00324         7.67113
     2012.35592       -10.44551         7.62438
     2012.35865        -6.66778         7.74481
     2012.36139         0.90195         7.60312
     2012.36413        -6.81332         7.58470
     2012.36687         1.97241         7.65980
     2012.36961        -0.82886         7.62012
     2012.37234        -5.34413         7.81141
     2012.37508        -3.01840         7.82558
     2012.37782        -2.92067         7.83975
     2012.38056        -5.83494         7.93751
     2012.38329         0.90179         7.90067
     2012.38603         1.60152         7.91626
     2012.38877        -1.31475         8.07353
     2012.39151         1.68598         7.85108
     2012.39425        -0.92328         8.01119
     2012.39698        -4.05455         7.80149
     2012.39972         1.26718         7.75048
     2012.40246        -5.81109         7.73064
     2012.40520       -11.51436         7.72356
     2012.40794        -3.04863         7.73348
     2012.41067        -5.42790         7.76890
     2012.41341        -8.42517         7.84116
     2012.41615         1.53556         7.69664
     2012.41889         0.84629         8.06362
     2012.42162        -3.25898         7.74623
     2012.42436        -1.44725         7.96727
     2012.42710        -0.90152         7.65130
     2012.42984         0.52921         7.65696
     2012.43258         0.30994         7.70939
     2012.43531         2.36367         7.76323
     2012.43805        -4.06760         7.72214
     2012.44079       -11.92287         7.77315
     2012.44353        -4.95714         7.71506
     2012.44626       -10.04441         7.94318
     2012.44900        -4.35568         7.75898
     2012.45174        -2.57295         7.79582
     2012.45448        -0.79122         7.74340
     2012.45722        -0.81049         7.80716
     2012.45995         4.81624         7.94176
     2012.46269        -1.29003         7.73206
     2012.46543        -1.37430         7.83408
     2012.46817        -0.01957         7.93893
     2012.47091         1.45816         7.75615
     2012.47364         4.08890         7.75615
     2012.47638         2.65463         7.66972
     2012.47912        -0.28764         7.84825
     2012.48186        -1.35291         7.88084
     2012.48459         1.72982         7.72781
     2012.48733        -2.78045         7.63288
     2012.49007        -1.70472         7.76607
     2012.49281        -4.12199         7.77032
     2012.49555         1.20874         7.80716
     2012.49828        -3.09353         7.68530
     2012.50102         2.62820         7.81566
     2012.50376        -0.12107         7.69380
     2012.50650        -3.12234         7.65271
     2012.50924        -1.09961         7.80716
     2012.51197        -4.02588         7.78874
     2012.51471        -0.17215         7.72498
     2012.51745         1.35958         7.68530
     2012.52019        -5.13169         7.74481
     2012.52292        -1.51696         7.72073
     2012.52566        -1.32423         7.63996
     2012.52840         1.56950         7.66688
     2012.53114        -5.76977         7.81849
     2012.53388        -2.01204         7.79440
     2012.53661         0.14669         7.96868
     2012.53935         5.47742         7.65696
     2012.54209         4.47515         7.71506
     2012.54483         6.31988         7.61729
     2012.54757        -1.10039         7.82416
     2012.55030         2.20534         7.79724
     2012.55304        -3.83092         7.68530
     2012.55578        -0.17019         7.73348
     2012.55852        -2.87446         7.58329
     2012.56125         0.54127         7.57478
     2012.56399         3.72400         7.53936
     2012.56673        -3.23627         7.71364
     2012.56947         2.45846         7.61729
     2012.57221         4.69319         7.55495
     2012.57494         0.25092         7.58470
     2012.57768         0.58465         7.67397
     2012.58042         4.16438         7.64280
     2012.58316         2.46311         7.61304
     2012.58590         6.89884         7.76890
     2012.58863         3.42557         7.66830
     2012.59137         4.07030         7.64138
     2012.59411         7.64803         7.57337
     2012.59685         6.76176         7.72356
     2012.59958         2.28449         7.66547
     2012.60232         0.48322         7.93468
     2012.60506         3.74895         7.55353
     2012.60780         3.94668         7.55070
     2012.61054         4.71541         7.68389
     2012.61327         4.10014         7.59037
     2012.61601         9.55987         7.70089
     2012.61875        10.13360         7.78590
     2012.62149         7.44133         7.66547
     2012.62423        12.76006         7.70089
     2012.62696         3.46479         7.80007
     2012.62970         2.79852         7.93751
     2012.63244         3.95226         7.88225
     2012.63518         7.53499         7.71789
     2012.63791         7.20872         7.69380
     2012.64065         5.10645         7.70231
     2012.64339         6.31118         7.67680
     2012.64613        10.60991         7.67822
     2012.64887         9.38764         7.67397
     2012.65160        10.42937         7.85675
     2012.65434         8.29310         7.89642
     2012.65708         7.91883         7.92334
     2012.65982        12.15156         7.90351
     2012.66256         6.60829         7.75615
     2012.66529         5.02002         7.70939
     2012.66803         7.75575         7.68389
     2012.67077         7.57748         7.75048
     2012.67351         9.11921         7.63288
     2012.67624         3.21094         7.69664
     2012.67898         9.61867         7.75898
     2012.68172        11.55340         7.73914
     2012.68446         8.82613         7.71081
     2012.68720         7.36186         7.88650
     2012.68993         4.43459         7.84825
     2012.69267         6.81132         7.82983
     2012.69541         1.37105         7.81849
     2012.69815         4.65878         7.82133
     2012.70089         2.22551         7.87375
     2012.70362         3.57424         7.92901
     2012.70636         1.05997         7.70514
     2012.70910         3.00270         7.77315
     2012.71184         7.67244         7.64421
     2012.71457         6.08517         7.67963
     2012.71731        10.48690         7.62012
     2012.72005         8.08463         7.59320
     2012.72279         9.07036         7.58754
     2012.72553         4.34509         7.66547
     2012.72826         7.69382         7.80432
     2012.73100         5.62955         7.82416
     2012.73374        -0.24572         7.92334
     2012.73648        10.91301         7.64280
     2012.73921        10.47974         7.73348
     2012.74195         4.73347         7.76182
     2012.74469         6.90020         7.71364
     2012.74743        11.23393         7.65130
     2012.75017         4.35666         7.63004
     2012.75290         4.83939         7.75190
     2012.75661         1.92732        15.54063
     2012.75838         6.71485         7.65555
     2012.76112         9.72358         7.62296
     2012.76386         7.91331         7.58612
     2012.76659        12.54204         7.70514
     2012.76933         5.10277         7.72214
     2012.77207         5.93650         7.65696
     2012.77481         6.49123         7.72498
     2012.77754         6.32296         7.65413
     2012.78028        10.19769         7.86100
     2012.78302         7.45442         7.79724
     2012.78576         0.30515         7.79582
     2012.78850        18.22488         7.92051
     2012.79123        19.72662         8.42493
     2012.79397         9.78835         7.67397
     2012.79671         8.54808         7.69805
     2012.79945         9.43081         8.14580
     2012.80219        13.31654         8.24640
     2012.80492        15.02527         7.88225
     2012.81040         7.02973         7.71931
     2012.81314        14.83846         7.73489
     2012.81587        11.20019         7.89217
     2012.81861        -4.42508         7.94318
     2012.82135         9.56065         7.89926
     2012.82409        19.21938         8.16988
     2012.82683        14.98111         7.92051
     2012.82956        23.38884         7.96727
     2012.83230        24.94557         7.84825
     2012.83504         7.29630         7.88934
     2012.83778         2.17403         7.96727
     2012.84052        20.83776         8.10187
     2012.84325         0.33849         7.83691
     2012.84599         3.52122         8.02536
     2012.84873         2.32795         7.79582
     2012.85147         6.60568         8.06787
     2012.85420        -0.93159         7.74906
     2012.85694         5.80314         7.75473
     2012.85968         4.09087         7.75615
     2012.86242         2.27460         7.80574
     2012.86516        25.92333         7.88509
     2012.86789         1.73806         7.98002
     2012.87063        -0.72220         7.76182
     2012.87337         0.70253         7.72781
     2012.88706        11.04018         8.13021
     2012.88980        15.95791         8.18122
     2012.89253         0.35464         7.68955
     2012.89527        10.43337         7.86667
     2012.89801        17.10010         7.92334
     2012.90075         0.98583         7.79157
     2012.90349        -1.77844         7.78732
     2012.90622         1.82629         7.78874
     2012.90896         6.81502         7.96443
     2012.91170        14.85375         7.93751
     2012.91444        22.80248         7.91626
     2012.91718        18.65721         7.76607
     2012.91991        29.57294         7.84825
     2012.92265        19.37567         7.90917
     2012.92539        20.87440         7.88367
     2012.92813         1.58113         7.76748
     2012.93086        -5.77114         7.86525
     2012.93360         2.52459         7.84258
     2012.93634        -1.22768         7.68814
     2012.93908        18.18705         7.78590
     2012.94182        12.16178         7.79015
     2012.94455         7.17451         7.66972
     2012.94729        24.92724         7.86100
     2012.95003         2.25198         7.76182
     2012.95277        13.86871         7.63571
     2012.95551        14.72644         7.61021
     2012.95824        28.67917         7.89926
     2012.96098        15.72090         8.02961
     2012.96372        16.09763         7.89500
     2012.96646        16.41336         7.62012
     2012.96971        21.06266         9.78374
     2012.97193        14.69482         7.72639
     2012.97467        20.43155         7.76323
     2012.97741        15.98828         7.74198
     2012.98015        21.00301         7.65130
     2012.98288         7.43274         7.75756
     2012.98562        21.72847         7.65130
     2012.98836        10.81320         7.66688
     2012.99110        13.70393         7.66547
     2012.99384         0.13866         7.62721
     2012.99657        -0.42661         7.66122
     2012.99931        -1.38488         7.79440
     2013.00205         2.79685         7.64421
     2013.00479        -1.91942         7.63713
     2013.00752        -3.85869         7.71789
     2013.01026        -0.55896         7.57195
     2013.01300        -3.77323         7.79015
     2013.01574         2.06550         7.62012
     2013.01848         7.71223         7.75190
     2013.02121         6.49296         7.84400
     2013.02395        10.27369         7.95310
     2013.02669        10.05142         7.88934
     2013.02943        -0.98484         7.65130
     2013.03216        -4.26211         7.77457
     2013.03490        -6.19838         7.68955
     2013.03764        -9.18265         7.64988
     2013.04038       -10.18192         7.61871
     2013.04312       -11.72319         7.80857
     2013.04585        -6.49546         7.88509
     2013.04859       -10.26773         7.92193
     2013.05133        -8.41500         7.63713
     2013.05407        -6.48227         7.60454
     2013.05681        -1.89854         7.60170
     2013.05954        -2.12681         7.67397
     2013.06228        -6.36608         7.90067
     2013.06502        -0.20235         7.98852
     2013.06776        13.25338         7.87658
     2013.07049        10.90611         7.77315
     2013.07323         0.08484         7.69239
     2013.07597         7.29457         7.66547
     2013.07871        12.23830         7.75615
     2013.08145        -4.80397         7.83549
     2013.08418       -10.12024         7.65696
     2013.08692        -2.68351         7.63996
     2013.08966       -10.37978         7.65980
     2013.09240        -1.60705         7.74623
     2013.09514        -3.44532         7.69380
     2013.09787         5.18541         8.00411
     2013.10061         0.97214         8.24781
     2013.10335        -2.04313         7.73773
     2013.10609         3.25760         7.72498
     2013.10882        -4.78266         7.72923
     2013.11156        -5.39493         7.90209
     2013.11430        -6.75820         7.67538
     2013.11704        -9.77347         7.76748
     2013.11978        -6.27274         7.92051
     2013.12251        -9.35501         7.68955
     2013.12525       -12.48028         7.63854
     2013.12799        -7.79555         7.80574
     2013.13073        -4.60782         7.78874
     2013.13347        -4.70409         7.75048
     2013.13620         3.32764         7.68389
     2013.13894        -1.14163         7.66688
     2013.14168        -1.69890         7.77598
     2013.14442         8.92283         7.98710
     2013.14715         8.99756         8.10046
     2013.14989       -14.18671         7.73348
     2013.15263        -3.99798         7.81566
     2013.15537       -13.91625         7.66122
     2013.15811       -11.52252         7.66830
     2013.16084        -5.39379         7.65838
     2013.16358       -12.35706         7.79157
     2013.16632        -9.73733         7.64138
     2013.16906        -7.09160         7.75190
     2013.17180        -3.78187         7.65555
     2013.17453         3.43786         7.74765
     2013.17727        13.58159         7.85533
     2013.18001        -7.89868         7.87800
     2013.18275        -7.68995         7.67255
     2013.18548        -6.18522         7.63996
     2013.18822       -11.32448         7.68247
     2013.19096        -9.17775         7.63571
     2013.19370        -6.75902         7.65413
     2013.19644        -9.59529         7.78590
     2013.19917        -6.45556         7.80999
     2013.20191        -2.61183         7.69380
     2013.20465         0.57890         7.69380
     2013.20739        -3.92037         7.72356
     2013.21013        -7.74164         7.68814
     2013.21286        -5.17791         7.70656
     2013.21560        10.55482         7.85391
     2013.21834        -1.72645         7.63996
     2013.22108        -9.54572         7.61587
     2013.22381        -5.64399         7.60170
     2013.22655       -10.05626         7.58187
     2013.22929       -10.46753         7.70514
     2013.23203        -7.80380         7.69239
     2013.23477        -6.45907         7.67538
     2013.23750        -7.74634         7.91201
     2013.24024        -7.09161         7.91626
     2013.24298        -4.30388         7.86667
     2013.24572         0.43785         7.82841
     2013.24846        -1.58942         7.83124
     2013.25119        -4.91369         7.92476
     2013.25393        -7.77796         7.92759
     2013.25667         1.50677         8.22656
     2013.25941        -1.82850         7.84400
     2013.26214         4.70723         8.01544
     2013.26488         7.46396         7.94035
     2013.26762        -3.73130         7.76890
     2013.27036        -9.03057         7.82416
     2013.27310        -5.00984         8.06503
     2013.27583        -3.78111         7.84966
     2013.27857        -8.02838         7.96443
     2013.28131        -2.97765         7.89784
     2013.28405        -2.27692         7.91909
     2013.28679        -4.89319         7.74481
     2013.28952        -4.78846         7.84400
     2013.29226       -11.54373         7.82699
     2013.29500        -9.42100         7.76607
     2013.29774       -10.13527         7.89926
     2013.30047       -10.17054         7.83833
     2013.30321        -8.72381         7.79440
     2013.30595        -8.47408         7.75190
     2013.30869       -11.17835         7.77457
     2013.31143        -9.72662         7.78590
     2013.31416        -4.15789         7.88084
     2013.31690        -2.87516         7.82416
     2013.31964        -9.07743         7.86383
     2013.32238       -11.40570         7.89642
     2013.32512        -8.24497         7.93609
     2013.32785        -2.94924         7.80432
     2013.33059       -11.61651         7.82699
     2013.33333       -12.66278         7.81282
     2013.33607       -10.32805         7.81991
     2013.33880        -4.50932         7.81566
     2013.34154        -1.90659         7.97719
     2013.34428         1.13914         7.73489
     2013.34702        -5.82312         7.78732
     2013.34976        -3.61439         7.74056
     2013.35249       -12.00466         7.72781
     2013.35523        -3.27493         8.00127
     2013.35797        -8.44920         7.85391
     2013.36071        -5.09747         7.90917
     2013.36344       -11.00574         8.08912
     2013.36618        -5.54401         7.83691
     2013.36892        -1.29028         7.75615
     2013.37166        -2.90255         7.84825
     2013.37440        -4.86482         7.77740
     2013.37713        -5.73909         7.77598
     2013.37987       -10.12736         7.73631
     2013.38261        -8.61163         7.77032
     2013.38535        -4.02790         8.02394
     2013.38809        -0.24117         7.71081
     2013.39082         1.76256         7.77032
     2013.39356        -4.92171         7.69664
     2013.39630        -7.70098         7.69947
     2013.39904        -2.63725         7.80432
     2013.40177         8.67948         7.78732
     2013.40451        -5.94479         7.81991
     2013.40725         3.79494         7.96160
     2013.40999        -7.90033         7.89784
     2013.41273        -3.76860         7.79724
     2013.41546        -5.16787         8.04095
     2013.41820        -4.31014         7.75331
     2013.42094        -0.42841         7.76040
     2013.42368        -9.68768         7.79015
     2013.42642        -2.80094         7.85958
     2013.42915         0.58879         7.74481
     2013.43189        -1.25548         7.81424
     2013.43463        -3.02875         7.89075
     2013.43737        -6.57402         7.78874
     2013.44010        -3.64429         7.68530
     2013.44284        -4.56256         7.84258
     2013.44558        -3.66383         7.98710
     2013.44832        -4.27910         7.80291
     2013.45106        -7.39237         7.74056
     2013.45379        -4.27764         7.71789
     2013.45653        -3.32691         7.78590
     2013.45927        -3.46418         7.82274
     2013.46201         1.40155         7.87517
     2013.46475        -3.86972         7.82133
     2013.46748        -3.83299         7.81849
     2013.47022        -4.65926         7.80149
     2013.47296        -5.03753         7.79015
     2013.47570         0.84720         7.79157
     2013.47843         6.01893         8.08204
     2013.48117        -3.99034         8.11037
     2013.48391        -3.27561         7.72356
     2013.48665        -1.93588         7.79157
     2013.48939        -2.31315         7.83266
     2013.49212        -2.82742         7.93468
     2013.49486         3.52531         7.83124
     2013.49760        -3.38196         7.83691
     2013.50034        -8.43223         7.79866
     2013.50308        -4.42650         7.92051
     2013.50581        -3.10276         7.78590
     2013.50855        -1.97103         7.84966
     2013.51129         0.14970         7.74340
     2013.51403        -1.74957         7.65980
     2013.51676        -1.23384         7.98569
     2013.51950        -2.75011         7.68530
     2013.52224         2.86662         7.77173
     2013.52498         2.08435         8.05937
     2013.52772         2.24508         7.72073
     2013.53045        -5.82019         7.75898
     2013.53319        -2.91446         7.77882
     2013.53593         1.77627         7.89926
     2013.53867         1.46800         7.79582
     2013.54141         0.12273         7.94460
     2013.54414        -2.29154         7.71222
     2013.54688        -4.07881         7.72073
     2013.54962         1.20392         7.68955
     2013.55236         0.56665         7.88509
     2013.55509         4.17238         7.82558
     2013.55783        -0.46489         7.66830
     2013.56057        -5.45216         7.88934
     2013.56331        -3.08643         8.01544
     2013.56605        -0.80170         7.85533
     2013.56878         6.25403         7.77315
     2013.57152        -2.75624         7.78449
     2013.57426         6.21349         7.72923
     2013.57700        -1.04078         7.73773
     2013.57974         1.52395         7.85108
     2013.58247         2.82068         7.75048
     2013.58521         1.19842         7.71931
     2013.58795         2.55415         7.72356
     2013.59126         8.30140        10.03312
     2013.59342         1.56261         7.87800
     2013.59616         6.97734         7.88650
     2013.59890         5.87407         7.78307
     2013.60164         9.01980         7.85250
     2013.60438         4.58253         7.83833
     2013.60711         4.24526         7.92759
     2013.60985         2.50599         7.91909
     2013.61259         7.04872         7.78732
     2013.61533        10.37545         7.86808
     2013.61807         7.78118         8.14155
     2013.62080         4.67491         8.09195
     2013.62354       -10.31136         8.00269
     2013.62628        -1.31863         8.05370
     2013.62902         2.37510         7.74198
     2013.63175         5.35183         7.80432
     2013.63449         7.21156         8.14580
     2013.63723         3.78929         7.67113
     2013.63997         8.38402         7.83833
     2013.64271         8.34075         7.96443
     2013.64544         6.33748         7.80716
     2013.64818         3.93821         7.80574
     2013.65092         7.17494         7.84400
     2013.65366         5.55967         7.97435
     2013.65639        13.84140         7.86383
     2013.65913         9.23913         8.03103
     2013.66187         5.07286         7.80291
     2013.66461         1.89959         7.80574
     2013.66735         0.42133         7.89500
     2013.67008         5.87106         7.95451
     2013.67282         7.93879         7.98144
     2013.67556         7.60452         7.96302
     2013.67830         7.51625         7.78307
     2013.68104        12.47798         7.83408
     2013.68377         2.11371         7.74198
     2013.68651         7.07644         7.76040
     2013.68925         5.24317         7.66263
     2013.69199         8.26090         7.64421
     2013.69472         8.11863         7.63854
     2013.69746         2.76036         7.65696
     2013.70020         3.94409         7.64846
     2013.70294         7.20482         7.67397
     2013.70568         8.00155         7.88367
     2013.70841         2.71428         7.73773
     2013.71115         6.58901         7.81707
     2013.71389         4.53174         7.67822
     2013.71663         5.49347         7.75756
     2013.71937         6.62420         7.75615
     2013.72210         9.83093         7.93184
     2013.72484         9.80966         8.09762
     2013.73032         6.52112         7.76465
     2013.76591         5.38962         8.22089
     2013.76865        -0.66165         7.73773
     2013.77138        -3.63092         7.75473
     2013.77412         0.76581         7.74198
     2013.77686        -2.32246         7.71506
     2013.77960        -1.41073         7.72214
     2013.78234        -8.23500         7.71222
     2013.78507        -9.38827         7.66972
     2013.78781        -8.34254         7.71931
     2013.79055        -2.22681         7.80149
     2013.79329        -3.93608         7.76748
     2013.79603        -1.74235         7.59320
     2013.79876        -3.37362         7.58612
     2013.80150         0.56911         7.76323
     2013.80424        -0.18816         7.85250
     2013.80698         1.49757         7.74906
     2013.80971         4.00030         7.69097
     2013.81245         5.02503         7.63713
     2013.81519        -4.22524         7.63571
     2013.81793        -0.49651         7.68672
     2013.82067        -0.80578         7.88650
     2013.82340         2.01595         9.99061
     2013.83516         1.15021        15.01780
     2013.84083        -7.27049        15.84669
     2013.84257        -5.89693         9.57121
     2013.84531         3.24580         7.96018
     2013.84804        -2.64947         7.67680
     2013.85078        12.22926         7.87517
     2013.85352         2.65399         7.69805
     2013.85626        -0.25028         7.70939
     2013.85900        -4.65455         7.66830
     2013.86173        -4.78882         7.73064
     2013.86447        -1.95609         7.73914
     2013.86721        -2.41836         7.68955
     2013.86995        -0.76663         7.74623
     2013.87269        -2.03990         7.66830
     2013.87542         6.68583         7.72923
     2013.87816         2.69856         7.67822
     2013.88090         5.73329         7.80007
     2013.88364        12.17502         8.14580
     2013.88637        -3.39225         7.67822
     2013.88911        -5.43752         7.66830
     2013.89185       -11.93379         7.64138
     2013.89459       -10.28506         7.62438
     2013.89733        -2.55433         7.63429
     2013.90006        -6.49460         7.76465
     2013.90280        -8.65187         7.76890
     2013.90554        -5.02413         7.69664
     2013.90828        -2.19540         7.67397
     2013.91102        -1.50167         7.63854
     2013.91375        -9.96094         7.74198
     2013.91649         0.17879         7.72214
     2013.91923         8.70852         8.02111
     2013.92197        -8.89475         7.73914
     2013.92470        -4.50702         7.60170
     2013.92744         0.42571         7.75615
     2013.93018        -2.02456         7.63854
     2013.93292        -3.91983         7.59745
     2013.93566        -7.12910         7.62579
     2013.93839        -4.95537         7.59604
     2013.94113        -5.00764         7.58187
     2013.94387        -3.48991         7.71506
     2013.94661        -4.72118         7.71222
     2013.94935        -0.41945         7.63996
     2013.95208        -5.26472         7.64421
     2013.95482       -10.35999         7.79582
     2013.95756        -1.58126         7.63004
     2013.96030        -5.27453         7.68955
     2013.96303        -0.62880         7.73489
     2013.96577         1.88393         7.65130
     2013.96851         1.10566         7.71222
     2013.97125         5.19539         7.66547
     2013.97399        -1.50888         7.71789
     2013.97672        -4.00515         7.68105
     2013.97946        -1.46442         7.80574
     2013.98220        -4.42669         7.74481
     2013.98494        -6.69795         7.64705
     2013.98767        -9.73222         7.61446
     2013.99041        -9.06149         7.76182
     2013.99315       -14.86976         7.68672
     2013.99589        -6.20203         7.69239
     2013.99863        -8.64730         7.72781
     2014.00410        -8.15884         7.64563
     2014.00684        -4.16411         7.81991
     2014.00958        -6.74138         7.69522
     2014.01232        -8.02765         7.77032
     2014.01505        -8.05392         7.79299
     2014.01779        -0.36119         7.82274
     2014.02053        -4.98446         7.72073
     2014.02327        -3.63173         8.00411
     2014.02600         2.33400         7.95593
     2014.02874        10.60173         7.96443
     2014.03148         9.06146         7.70231
     2014.03422        -6.62881         7.62863
     2014.03696        -6.66808         7.68247
     2014.03969        -7.17735         7.70656
     2014.04243        -2.17862         7.86667
     2014.04517         1.67511         7.85533
     2014.04791        -0.83316         7.60879
     2014.05065        -3.39543         7.73348
     2014.05338        -5.32670         7.65555
     2014.05612        -8.12497         7.62863
     2014.05886        -8.22824         7.65271
     2014.06160        -7.59651         7.65696
     2014.06433        -1.78477         7.87517
     2014.06707        -0.09704         7.88792
     2014.06981        -0.35631         7.72214
     2014.07255         0.90242         7.70372
     2014.07529        -0.05685         7.62012
     2014.07802         0.96788         7.82274
     2014.08179         2.14876        16.13432
     2014.08350        -2.69866         7.88367
     2014.08624        -3.48893         7.78165
     2014.08898        -3.33220         7.93468
     2014.09171        -0.94647         7.99135
     2014.09445        -6.85374         7.66972
     2014.09719        -6.90601         7.84683
     2014.09993        -0.89928         7.68814
     2014.10266        -2.07255         7.85391
     2014.10540         2.53318         7.62721
     2014.10814         5.16391         7.68955
     2014.11088        -7.40436         7.94176
     2014.11362        -2.74463         7.74056
     2014.11635         5.98310         7.82983
     2014.11909        -0.90717         7.80574
     2014.12183         0.72956         7.87092
     2014.12457         1.18329         7.65980
     2014.12731         3.03802         7.69805
     2014.13004         0.13375         7.75756
     2014.13278         1.45548         8.00269
     2014.13552        -0.31079         7.92193
     2014.13826        -4.70506         7.71222
     2014.14099        -1.48033         7.63996
     2014.14373        -1.69959         7.74340
     2014.14647        -4.50186         7.80291
     2014.14921        -3.94813         7.70514
     2014.15195        -3.84640         7.69239
     2014.15468        -2.11867         7.79299
     2014.15742         2.69406         7.77598
     2014.16016         3.10179         7.95593
     2014.16290        -2.19648         7.84258
     2014.16564        -4.58975         7.75756
     2014.16837        -5.81402         8.05653
     2014.17111        -6.85229         8.00977
     2014.17385         1.00344         8.03953
     2014.17659         0.48017         7.97860
     2014.17932         0.59490         8.19114
     2014.18206        -0.69437         7.91342
     2014.18480        -2.02864         7.75756
     2014.18754        -6.51591         7.85391
     2014.19028        -4.49918         7.78307
     2014.19301        -4.73945         7.70939
     2014.19575        -1.42772         7.76040
     2014.19849         1.83201         7.83549
     2014.20123        -7.70226         7.78449
     2014.20397        -2.13453         7.88084
     2014.20670        -6.36380         7.78590
     2014.20944        -5.10607         7.73064
     2014.21218        -2.20934         7.80291
     2014.21492        -1.03661         7.93893
     2014.21765        -0.29488         7.71081
     2014.22039        -4.23715         7.74198
     2014.22313        -3.90541         7.75190
     2014.22587        -1.59268         7.71931
     2014.22861         2.24305         7.86525
     2014.23134         1.26078         7.74340
     2014.23408         8.44051         7.73489
     2014.23682        -0.36776         7.73773
     2014.23956         5.44897         8.02961
     2014.24230        -0.58030         7.80432
     2014.24503        -9.25557         7.71081
     2014.24777         0.94916         8.03811
     2014.25051        -8.27011         7.70089
     2014.25325        -7.16538         7.76890
     2014.25598         1.26435         7.95593
     2014.25872        -6.49692         7.75190
     2014.26146        -7.14819         7.94743
     2014.26420        -8.98846         7.70514
     2014.26694        -5.61273         7.85958
     2014.26967        -3.74700         7.96727
     2014.27241        -2.37927         7.93609
     2014.27515        -7.55054         7.91626
     2014.27789        -5.13781         7.69947
     2014.28062        -2.74808         7.82558
     2014.28336        -5.58735         7.78449
     2014.28610        -7.40462         8.11463
     2014.28884        -7.67389         8.05653
     2014.29158        -8.88216         7.68672
     2014.29431        -4.10643         7.74906
     2014.29705         0.18330         7.91768
     2014.29979       -10.42297         7.79582
     2014.30253        -9.56023         7.88509
     2014.30527        -5.60650         7.96443
     2014.30800        -2.34877         7.71647
     2014.31074        -1.22804         8.14013
     2014.31348        -2.01431         7.71081
     2014.31622         0.27342         7.68814
     2014.31895        -3.23385         7.83833
     2014.32169       -15.09212         7.95168
     2014.32443       -13.93939         7.86525
     2014.32717       -10.88066         7.90067
     2014.32991        -3.14093         7.72923
     2014.33264        -4.47220         7.89217
     2014.33538        -8.27047         7.84400
     2014.33812        -7.26774         8.08204
     2014.34086        -5.67701         7.91059
     2014.34360        -6.84628         7.73773
     2014.34633        -4.84355         7.74198
     2014.34907        -6.30882         7.98852
     2014.35181        -5.32309         8.10046
     2014.35455        -8.79636         7.81566
     2014.35728        -9.49663         7.71506
     2014.36002       -13.36790         7.71506
     2014.36276       -10.56217         7.70656
     2014.36550        -6.22944         7.74481
     2014.36824        -7.73771         7.95451
     2014.37097        -6.74198         7.82841
     2014.37371        -4.93925         7.78449
     2014.37645        -3.36152         7.84966
     2014.37919         0.42121         7.89926
     2014.38193        -7.70105         7.97152
     2014.38466        -8.64432         7.91059
     2014.38740        -5.48459         7.88225
     2014.39014       -10.11186         7.97152
     2014.39288        -5.21213         7.88367
     2014.39561        -6.97840         7.98144
     2014.39835        -6.16467         8.07495
     2014.40109        -3.80294         7.92901
     2014.40383        -5.66921         7.88225
     2014.40657       -12.79048         7.87942
     2014.40930       -11.47075         7.84966
     2014.41204       -12.86102         7.87942
     2014.41478        -8.42529         7.85817
     2014.41752        -3.74756         7.83408
     2014.42026        -6.15883         7.79299
     2014.42299        -9.02610         7.85817
     2014.42573        -9.20437         7.85958
     2014.42847        -7.01864         7.92901
     2014.43121       -10.65191         7.87800
     2014.43394        -4.80418         7.81566
     2014.43668        -3.21045         8.08204
     2014.43942        -9.72372         7.81707
     2014.44216        -5.43099         7.82274
     2014.44490        -8.15826         8.16280
     2014.44763         0.99947         8.01828
     2014.45037        -6.49880         7.82274
     2014.45311        -1.35607         7.83691
     2014.45585        -7.08234         7.83975
     2014.45859        -5.73261         7.76607
     2014.46132        -7.02687         7.81991
     2014.46406        -6.44114         7.80716
     2014.46680        -3.63241         7.85108
     2014.46954        -4.34168         7.76040
     2014.47227        -4.38695         7.87092
     2014.47501        -3.07922         7.78024
     2014.47775        -4.59949         7.85250
     2014.48049         1.54224         7.79582
     2014.48323         0.58597         7.86950
     2014.48596         7.60470         8.22514
     2014.48870         0.89343         7.91342
     2014.49144         0.55116         7.71081
     2014.49418        -2.12311         7.68955
     2014.49692        -5.28738         7.71222
     2014.49965        -6.31465         7.74481
     2014.50239        -6.86692         7.81424
     2014.50513        -0.47119         7.83408
     2014.50787        -4.05546         7.72781
     2014.51060         0.04527         7.68530
     2014.51334         2.89400         7.61021
     2014.51608        -2.13327         7.76182
     2014.51882        -2.71354         8.11321
     2014.52156         2.38619         7.88650
     2014.52429         5.20392         7.72214
     2014.52703         4.91365         7.81141
     2014.52977        -0.53862         8.09904
     2014.53251        -1.41089         7.78590
     2014.53525        -0.89816         7.77032
     2014.53798         8.52257         7.75190
     2014.54072         4.79931         8.02394
     2014.54346         2.08904         7.69522
     2014.54620         3.94777         7.89784
     2014.54893         2.07850         8.03386
     2014.55167         3.74323         7.81424
     2014.55441         3.63396         7.79724
     2014.55715        -3.02031         8.02111
     2014.55989         1.64442         7.72781
     2014.56262         1.68715         7.82558
     2014.56536         3.87588         7.73631
     2014.56810        -1.13539         7.78024
     2014.57084         2.90634         7.69380
     2014.57357        -0.04593         7.72073
     2014.57631         2.73880         7.70089
     2014.57905         2.04853         7.80291
     2014.58179         1.84826         8.07212
     2014.58453         2.97199         7.90917
     2014.58726         0.02272         8.06928
     2014.59000        -1.22555         7.87517
     2014.59274         0.62818         7.97577
     2014.59548        -4.68609         7.98710
     2014.59822        -1.92436         7.98852
     2014.60095         2.45437         7.99135
     2014.60369         0.42810         7.82274
     2014.60643        -2.22417         7.85533
     2014.60917        -1.99744         7.92901
     2014.61190         0.49229         8.35125
     2014.61464        -8.12498         8.02394
     2014.61738        -2.30925         8.19822
     2014.62012         2.71149         7.95735
     2014.62286        -0.21378         7.93468
     2014.62559         7.08895         7.91059
     2014.62833         4.31868         7.88225
     2014.63107         0.19241         8.03244
     2014.63381         1.10414         8.16563
     2014.63655         6.03087         8.01402
     2014.63928         0.32760         7.91909
     2014.64202        -0.43667         7.82274
     2014.64476         0.09306         8.04803
     2014.64750         2.00479         7.93609
     2014.65023        -6.94448         7.78165
     2014.65297         6.05425         7.90067
     2014.65571        -0.93902         7.86383
     2014.65845         8.28571         8.10471
     2014.66119         6.50644         8.25490
     2014.66392         4.82817         7.85958
     2014.66666         6.51190         7.86525
     2014.66940         8.19063         7.84116
     2014.67214         3.21936         7.89500
     2014.67488        -0.69291         7.86950
     2014.67761         1.27082         7.85391
     2014.68035         2.86055         7.78024
     2014.68309        -1.05672         7.82416
     2014.68583        -1.79599         7.88934
     2014.68856         4.70074         7.85533
     2014.69130         1.41247         7.82558
     2014.69404         2.11620         7.85250
     2014.69678        -2.48307         7.78449
     2014.69952         5.93867         7.80432
     2014.70225         3.99140         7.73206
     2014.70499         1.47513         7.76040
     2014.70773         7.27186         7.99419
     2014.71047         5.14658         7.97293
     2014.71321         7.19932         7.77315
     2014.71594         2.81805         7.84541
     2014.71868         3.71078         7.71506
     2014.72142         3.79751         7.76748
     2014.72416        -0.28876         7.97435
     2014.72689         7.80097         8.10896
     2014.72963        10.03870         7.87942
     2014.73237        -0.46957         7.90067
     2014.73511         0.30416         7.80149
     2014.73785        -2.60511         7.78874
     2014.74058         0.54562         7.74340
     2014.74332         4.74235         8.04803
     2014.74606         4.77608         7.93043
     2014.74880         2.51881         7.77740
     2014.75154         0.23254         7.97293
     2014.75427        -3.62373         7.77598
     2014.75701        -0.41800         7.78449
     2014.75975        -3.51127         7.77598
     2014.76249         3.76046         7.80857
     2014.76522         4.60819         7.76182
     2014.76796        -1.93108         7.88225
     2014.77070         1.79465         7.75331
     2014.77344        -5.19862         7.78732
     2014.77618        -0.23589         8.21664
     2014.77891         0.50885         7.86100
     2014.78165         4.86358         7.78024
     2014.78439         6.76731         7.80716
     2014.78713        15.54904         7.90634
     2014.78987         5.91177         7.77457
     2014.79260         0.63950         7.78874
     2014.79534         8.95423         7.81424
     2014.79808        12.33496         7.92334
     2014.80080         8.08570         7.96018
     2014.80355         3.06342         8.11037
     2014.80629        10.76015         8.04095
     2014.80903         3.54288         8.07070
     2014.81177         5.29161         7.75331
     2014.81451        12.44734         7.84541
     2014.81724         6.30207         8.03386
     2014.81998         1.62480         7.78307
     2014.82272         8.93953         8.26340
     2014.82523         9.47945        10.67781
     2014.82825         0.45994         8.46885
     2014.83093        12.36372         7.97719
     2014.83367         2.46145         7.87092
     2014.83641         0.93418         7.97293
     2014.83902         0.11302         8.27332
     2014.84188         5.61164         8.23365
     2014.84462        -5.57263         8.03953
     2014.84736         4.98610         8.24215
     2014.85010        -2.18717         7.92618
     2014.85284        -3.56644         7.85108
     2014.85557         6.49029         8.38100
     2014.85831         2.99303         7.99702
     2014.86105        -2.87924         7.84683
     2014.86379        -4.94451         7.79157
     2014.86653        -4.65678         7.88225
     2014.86926        -7.15405         8.07070
     2014.87200        -3.46532         7.86100
     2014.87474        -7.59759         7.91626
     2014.87748        -5.30886         7.89784
     2014.88021        -6.28113         8.32574
     2014.88295        -5.14840         7.92618
     2014.88569        -1.74067         8.22939
     2014.88843         4.17306         8.26623
     2014.89117         6.40779         8.54253
     2014.89390         1.72352         8.31158
     2014.89664         2.58025         8.33991
     2014.89938        -7.55502         8.11888
     2014.90212        -4.62129         8.13588
     2014.90485       -11.07656         8.19397
     2014.90759         2.04317         8.14438
     2014.91033         2.17990         7.85391
     2014.91307         0.29963         7.83975
     2014.91581        -0.19764         7.82699
     2014.91854        -3.85791         7.84541
     2014.92128        -5.76818         7.85817
     2014.92402         2.69255         7.85817
     2014.92676         0.16128         7.92901
     2014.92950        -9.52699         7.96302
     2014.93223        -7.63026         7.89500
     2014.93497       -11.82053         8.03244
     2014.93771        -9.17379         7.95735
     2014.94045        -0.63006         8.16138
     2014.94318         3.98267         8.35125
     2014.94592       -11.66560        14.93845
     2014.94866        -5.18187         7.81707
     2014.95140        -6.96714         7.68814
     2014.95414        -3.07141         7.69239
     2014.95687        -1.90568         7.71931
     2014.95961         1.41405         7.80432
     2014.96235         0.90178         7.73348
     2014.96509        -1.57649         7.90634
     2014.96783         0.22624         7.73631
     2014.97056        -5.03703         7.76890
     2014.97330       -11.76130         7.84258
     2014.97604        -9.91157         7.82274
     2014.97878        -4.97584         7.87517
     2014.98151         4.73089         7.95168
     2014.98425        -7.06538         7.71506
     2014.98699        -2.49565         7.71506
     2014.98973        -4.88492         7.73206
     2014.99247        -4.98719         7.75756
     2014.99520       -15.36846         7.75473
     2014.99794        -8.68973         7.71647
     2015.00068       -11.03100         7.60454
     2015.00342        -9.36927         7.69380
     2015.00616       -15.40054         7.75190
     2015.00889       -11.43181         7.90067
     2015.01163        -8.35708         7.89926
     2015.01437        -9.72835         7.84400
     2015.01711        -4.56561         7.88084
     2015.01984        -3.37488         7.80716
     2015.02258        -1.19615         8.07353
     2015.02532        -3.05142         7.88792
     2015.02806        -0.68369         7.80574
     2015.03080         0.05404         7.79866
     2015.03353        -7.94323         7.83833
     2015.03627        -3.80950         7.81424
     2015.03901        -2.42577         8.12029
     2015.04175         3.74096         7.84683
     2015.04449         3.81469         7.89500
     2015.04722         6.07242         8.13163
     2015.04996        -4.77785         7.96585
     2015.05270        -7.62412         7.86808
     2015.05544        -7.07039         7.87517
     2015.05817        -1.09366         7.82416
     2015.06091        -1.34393         7.94743
     2015.06365        -0.19920         8.14155
     2015.06639        -0.16147         7.79866
     2015.06913        -1.95774         7.84116
     2015.07186        -3.65701         7.80291
     2015.07460        -1.33628         7.80716
     2015.07734        -7.28955         7.74340
     2015.08008       -10.86882         7.79440
     2015.08282        -6.47509         7.75615
     2015.08555         1.20364         7.94035
     2015.08829        -0.72263         7.79582
     2015.09103         1.05910         7.75615
     2015.09377        -0.42517         7.82558
     2015.09650        -2.72143         8.31299
     2015.09924        20.33230         8.00127
     2015.10198         7.74203         7.92618
     2015.10472         3.76276         7.81707
     2015.10746         5.54349         7.89784
     2015.11019        -5.34878         7.95451
     2015.11293        -2.77405         8.10896
     2015.11567        -4.99732         7.81566
     2015.11841        -6.79159         7.76748
     2015.12115         2.02614         7.89784
     2015.12388        -7.58513         7.69097
     2015.12662        -5.21940         7.78307
     2015.12936        -5.47867         7.78449
     2015.13210        -1.25394         8.07920
     2015.13483        -5.10921         7.81849
     2015.13757        -7.47648         7.89075
     2015.14031        -7.13175         7.86667
     2015.14305        -3.24702         7.81849
     2015.14579        -2.76329         7.71789
     2015.14852        -1.44056         7.70939
     2015.15126        -8.41483         7.87092
     2015.15400        -5.92610         7.72214
     2015.15674        -1.51637         7.79299
     2015.15948         2.75436         7.81141
     2015.16221        -0.57891         7.75756
     2015.16495        -2.47518         7.72639
     2015.16769        -1.62145         7.78024
     2015.17043        -1.24472         7.81141
     2015.17316         0.93701         8.40651
     2015.17590        -1.02125         7.92334
     2015.17864        -2.81752         7.72214
     2015.18138        -3.27179         7.78165
     2015.18412        -3.49906         7.90351
     2015.18685         2.01067         7.93468
     2015.18959         7.06240         7.95026
     2015.19233        -1.72887         7.99561
     2015.19507         0.08086         7.81141
     2015.19780         4.36359         7.85108
     2015.20054        -1.27568         7.83833
     2015.20328        -5.68895         7.80291
     2015.20602        -4.19822         7.89359
     2015.20876        -6.54549         8.08629
     2015.21149       -13.21376         7.79299
     2015.21423        -5.96403         8.22656
     2015.21697         6.17270         8.05086
     2015.21971        -0.30557         7.75898
     2015.22245        -2.50184         7.98994
     2015.22518       -11.22311         8.06078
     2015.22792        -4.25438         7.80999
     2015.23066         0.15035         7.78024
     2015.23340         0.86508         8.01261
     2015.23613        -3.74619         7.99844
     2015.23887        -2.87746         8.17697
     2015.24161        -4.44673         8.21097
     2015.24435         4.07200         8.55812
     2015.24709         2.96973         8.01402
     2015.24982         0.68346         7.63288
     2015.25256        -3.24881         7.78732
     2015.25530        -4.49507         7.78307
     2015.25804        -8.09334         7.83408
     2015.26078        -1.08661         7.81707
     2015.26351         0.85312         7.74056
     2015.26625         3.65185         7.76748
     2015.26899        -8.03942         7.70656
     2015.27173        -1.23069         7.92193
     2015.27446         2.65104         7.98002
     2015.27720        -3.14623         7.69805
     2015.27994        -3.19850         7.75190
     2015.28268        -7.31777         7.83691
     2015.28542        -9.99904         7.94318
     2015.28815       -12.03531         7.86525
     2015.29089        -7.72558         7.72781
     2015.29363        -7.76285         7.67397
     2015.29637        -6.82112         7.75615
     2015.29911        -2.14039         7.77882
     2015.30184        -0.11766         7.78732
     2015.30458        -8.39493         7.68105
     2015.30732        -6.21720         7.66688
     2015.31006        -0.62747         7.61871
     2015.31279       -10.82374         7.76040
     2015.31553       -10.39701         7.54361
     2015.31827        -9.88928         7.54361
     2015.32101       -10.76555         7.61304
     2015.32375        -9.90282         7.58895
     2015.32648        -8.24309         7.73914
     2015.32922        -5.50236         7.88792
     2015.33196        -6.08863         7.68530
     2015.33470        -3.75490         7.55778
     2015.33744        -7.80016         7.56628
     2015.34017        -9.80943         7.82416
     2015.34291        -7.97970         7.59462
     2015.34565        -3.61497         7.56912
     2015.34839        -2.82224         7.60454
     2015.35112        -5.41151         7.60454
     2015.35386        -3.31178         7.66688
     2015.35660        -7.19905         7.73914
     2015.35934        -7.51532         7.69380
     2015.36208        -6.10159         7.61162
     2015.36481        -2.02086         7.54645
     2015.36755        -4.32613         7.55211
     2015.37029        -5.74640         7.57053
     2015.37303        -4.85667         7.49402
     2015.37577        -8.51094         7.58329
     2015.37850        -6.78321         7.76890
     2015.38124        -5.63048         7.67255
     2015.38398        -2.64775         8.18830
     2015.38672        -6.37802         7.76890
     2015.38945        -7.38429         7.48268
     2015.39219        -7.12056         7.48694
     2015.39493        -6.27583         7.64138
     2015.39767        -7.74810        13.28917
     2015.40041        -4.85437         7.62863
     2015.40314        -1.87364         7.77032
     2015.40588       -13.20491         7.61021
     2015.40862        -7.94918         7.70372
     2015.41136        -2.39045         7.82841
     2015.41410         2.74928         7.82699
     2015.41683        -2.86998         7.64421
     2015.41957        -9.81725         7.67680
     2015.42231        -6.43752         7.63146
     2015.42505        -8.71479         7.85817
     2015.42778        -3.18806         7.70514
     2015.43052         6.26667         7.70797
     2015.43324        -3.93059         7.72781
     2015.43600        -1.50587         7.61021
     2015.43874        -1.71714         7.71647
     2015.44147         0.95859         8.00127
     2015.44421         3.36332         7.59604
     2015.44695        -3.77095         7.61162
     2015.44969        -8.39322         7.69380
     2015.45243        -3.19849         7.88650
     2015.45516        -6.55976         7.80149
     2015.45790        -5.74503         7.77173
     2015.46064        -6.37730         7.81566
     2015.46338        -0.74257         8.08912
     2015.46611         1.47316         7.66830
     2015.46885         0.29189         7.67963
     2015.47159         3.26462         7.72498
     2015.47433        -2.97665         7.88509
     2015.47707        -6.16792         7.78590
     2015.47980        -2.50219         7.74056
     2015.48254         2.85754         7.77740
     2015.48528        -2.88873         7.74198
     2015.48802        -0.88200         7.77032
     2015.49076        -7.74927         7.76040
     2015.49349        -2.95954         7.83691
     2015.49623         6.61820         8.00269
     2015.49897        -0.98007         7.80432
     2015.50171        -2.58734         7.71222
     2015.50444         4.54139         7.61446
     2015.50718        -6.18388         7.72923
     2015.50992        -3.03115         7.81707
     2015.51266         4.92358         7.65413
     2015.51540        -1.27969         7.79015
     2015.51802         7.09613         8.02819
     2015.53550        15.74564        15.38336
     2015.53730         0.67915         7.81141
     2015.54004        -1.08312         7.84825
     2015.54277        -0.59939         7.82983
     2015.54551         7.66434         7.81991
     2015.54825         6.39707         7.90776
     2015.55099         6.31880         7.98002
     2015.55373         5.88753         7.83691
     2015.55646         6.99826         7.86950
     2015.55916         5.93002         7.97435
     2015.56195        10.76171         7.99419
     2015.56468         1.35145         7.98852
     2015.56741         7.61118         7.82416
     2015.57015         8.34891         7.98427
     2015.57289        -1.91936         8.22656
     2015.57563         3.85938         7.77598
     2015.57837         7.25911         7.81424
     2015.58110         4.06684         7.89217
     2015.58384         9.40857         7.94885
     2015.58658         4.28830         7.95310
     2015.58932        -0.63697         8.01969
     2015.59206         6.73576         7.82699
     2015.59479         3.99349         7.90351
     2015.59753         8.12322         7.91059
     2015.60027        11.43595         7.98144
     2015.60301         6.90868         8.20531
     2015.60574        -0.35659         8.00127
     2015.60848         5.61014         7.93609
     2015.61122        -1.21613         7.89784
     2015.61396         9.68760         7.91626
     2015.61670         3.42233         7.77315
     2015.61943         5.05806         7.63004
     2015.62217         7.31479         7.59179
     2015.62491         8.54452         7.70797
     2015.62765         8.20325         7.71506
     2015.63039         7.44198         7.69805
     2015.63312        12.62171         8.19397
     2015.63586         6.80944         8.05653
     2015.63860         2.61317         7.69805
     2015.64134         5.34090         7.72498
     2015.64407         9.73763         7.73348
     2015.64681         1.11436         7.72639
     2015.64955        10.04809         7.81566
     2015.65229         1.32482         7.77032
     2015.65503        15.56256         7.66972
     2015.65776        -5.16171         8.27332
     2015.66050        11.34402         7.90776
     2015.66324         2.86575         7.74481
     2015.66598         9.63448         7.81707
     2015.66872        10.51721         7.98710
     2015.67145         8.07294         7.95877
     2015.67419         5.77867         7.61304
     2015.67693         1.64140         7.60029
     2015.67967        -1.19487         7.74198
     2015.68240         0.89586         7.60737
     2015.68514         3.84159         7.87658
     2015.68788         6.97232         7.74340
     2015.69062        10.07305         7.58895
     2015.69336         5.61678         7.82841
     2015.69609         3.58051         7.60454
     2015.69883        15.19224         7.85391
     2015.70157        16.33197         7.81282
     2015.70431         7.34770         7.71081
     2015.70705         6.82843         7.65838
     2015.70978         2.49216         7.77173
     2015.71252         2.31889         7.68105
     2015.71526         4.78662         7.54928
     2015.71800         7.70635         7.69805
     2015.72073        10.64708         7.75473
     2015.72347         6.97681         7.55070
     2015.72621        -3.38546         7.74906
     2015.72895        -0.14373         7.67397
     2015.73169         3.96000         7.86525
     2015.73442         2.07874         7.71647
     2015.73716         3.68647         7.66972
     2015.73990        13.13420         7.79015
     2015.74264         8.78393         7.75615
     2015.74538         9.66066         7.91909
     2015.74811         3.11239         7.99419
     2015.75085        -1.98088         7.76323
     2015.75359        -1.41915         7.70372
     2015.75633         8.55458         7.64705
     2015.75906         8.03731         7.67963
     2015.76180         3.51204         7.81849
     2015.76454         6.03777         7.75756
     2015.76728         2.85550         7.78449
     2015.77002        11.43823         7.77740
     2015.77275         9.12996         7.93184
     2015.77549         6.57469         7.64138
     2015.77823         4.01142         7.66830
     2015.78097         6.95915         7.73773
     2015.78371         7.35688         7.72214
     2015.78644         7.20361         7.63996
     2015.78918         4.00034         7.71789
     2015.79192         6.53807         7.78590
     2015.79466         8.10480         7.64421
     2015.79739        12.04653         8.00127
     2015.80013         3.87126         7.95451
     2015.80287         1.82899         7.80716
     2015.80561         0.89472         7.77315
     2015.80835         2.36445         7.74481
     2015.81108         5.83818         7.93184
     2015.81382         7.09992         8.14721
     2015.81656         3.75065         7.72639
     2015.81930         2.71938         7.71506
     2015.82203         3.78311         7.81141
     2015.82477         7.48084         7.81707
     2015.82751        11.44357         7.83124
     2015.83025         9.65230         7.92193
     2015.83299         2.76103         8.24215
     2015.83572         3.28576         7.83833
     2015.83846        -0.37151         7.77032
     2015.84120        -2.65578         7.84116
     2015.84394        -4.77805         7.81849
     2015.84668         2.90968         7.88792
     2015.84941        -1.94259         7.87233
     2015.85215        14.31214         7.96443
     2015.85489         8.41287         7.77315
     2015.85763         1.28760         7.84258
     2015.86036        -0.14067         7.83408
     2015.86310        -1.00994         7.72639
     2015.86584         9.91379         7.82983
     2015.86858         6.93052         7.76040
     2015.87132         0.60725         7.94460
     2015.87405        -8.95702         7.83124
     2015.87679         1.83571         8.08629
     2015.87953         2.31044         7.87800
     2015.88227         6.09417         7.85817
     2015.88501        -9.85210         7.79866
     2015.88774        -6.38937         7.81707
     2015.89048        -1.80264         7.77032
     2015.89322         4.39110         7.77032
     2015.89596         5.14183         7.66830
     2015.89869        -2.73644         7.67255
     2015.90143        -7.98871         7.72781
     2015.90417        -8.55898         7.80007
     2015.90691        -3.74925         7.74056
     2015.90965        -3.49252         7.78449
     2015.91238        -2.83779         7.95451
     2015.91512        -7.21106         7.70231
     2015.91786         0.68767         7.71081
     2015.92060         7.81840         7.82558
     2015.92334        -3.16887         7.78449
     2015.92607        -4.17014         7.82133
     2015.92881        -1.40641         7.71506
     2015.93155         2.54232         8.07920
     2015.93429         0.50305         8.46885
     2015.93702        -5.49822         8.27332
     2015.93976         8.70751         8.14296
     2015.94250         3.48124         8.08487
     2015.94524         3.91997         7.87658
     2015.94798         0.19870         8.09904
     2015.95071         3.90843         7.72923
     2015.95345        -6.20484         7.69522
     2015.95619         2.71989         7.75756
     2015.95893         0.42262         7.98144
     2015.96172         5.31831         8.69981
     2015.96440         0.99408         7.81849
     2015.96714         2.48681         7.79015
     2015.96988         4.80954         7.88509
     2015.97262        13.37628         7.71789
     2015.97535         0.64901         7.84966
     2015.97809         1.09974         7.78024
     2015.98083        -3.61253         7.78590
     2015.98357       -13.19780         7.72073
     2015.98631       -12.55607         7.89642
     2015.98904        -5.15434         7.99135
     2015.99178        -7.36461         7.66405
     2015.99452        -6.72188         7.73773
     2015.99726        -5.95815         7.71222
     2016.00000        -7.08342         7.72498
     2016.00273        -6.74269         7.73489
     2016.00547        -6.42396         7.75898
     2016.00821         2.57077         7.91909
     2016.01095         2.39250         7.78307
     2016.01368         1.81123         7.79440
     2016.01642        -4.47004         7.90634
     2016.01916        -6.04331         8.01686
     2016.02190        -4.03258         7.87092
     2016.02464        -3.71785         7.84966
     2016.02737       -10.18112         7.89075
     2016.03011         0.63361         7.66830
     2016.03285         3.54134         7.87092
     2016.03559        -0.36193         7.76323
     2016.03833        -4.79420         7.84400
     2016.04106         3.35653         7.90351
     2016.04380        -0.24974         7.91909
     2016.04654         8.07599         7.68814
     2016.04928         3.88272         7.66263
     2016.05201        -5.82154         7.67680
     2016.05475        -2.13081         7.66263
     2016.05749         0.15492         7.70231
     2016.06023         1.22265         7.63429
     2016.06297        -6.56162         7.64563
     2016.06570        -6.69989         7.86242
     2016.06844        -6.01516         7.89500
     2016.07118        -4.83043         7.91059
     2016.07392         2.15030         7.87517
     2016.07666        -0.42897         8.13305
     2016.07939         2.53176         7.86242
     2016.08213        -0.27751         8.03244
     2016.08487        -3.55978         7.79582
     2016.08761        -7.47305         7.76040
     2016.09034        -6.29332         7.76040
     2016.09308        -1.94459         7.88084
     2016.09542       -17.61853         9.15605
     2016.10483       -11.51733        11.90910
     2016.10677       -12.08594         7.71081
     2016.10951       -11.34021         7.98002
     2016.11225        -7.30348         7.84541
     2016.11498        -6.91675         7.85817
     2016.11772        -8.65002         7.82699
     2016.12046        -8.99729         7.68389
     2016.12320       -10.99456         7.88225
     2016.12594       -10.34883         7.86808
     2016.12867        -2.79610         7.80432
     2016.13141         2.21264         7.71506
     2016.13415         0.32137         7.79724
     2016.13689        -7.85390         7.67680
     2016.13963        -4.85217         7.80432
     2016.14236       -19.89244         7.70372
     2016.14510       -14.88971         7.70089
     2016.14784       -14.67998         7.73348
     2016.15058       -12.61525         7.63004
     2016.15331       -12.07952         7.94035
     2016.15605        -5.50979         7.66688
     2016.15879       -12.54406         7.92476
     2016.16153       -11.94433         7.93468
     2016.16427        -5.97460         8.11037
     2016.16700        -4.53987         7.87517
     2016.16974        -9.89814         7.88792
     2016.17248       -12.42741         7.94743
     2016.17522        -9.93668         8.03670
     2016.17796        -3.58495         7.80857
     2016.18069        -0.93122         7.85817
     2016.18343        -8.88249         8.02394
     2016.18617        -4.82976         7.81991
     2016.18891        -6.70403         7.95168
     2016.19164        -9.14730         7.70089
     2016.19438         1.91343         7.78165
     2016.19712        -0.75784         7.57620
     2016.19986        -3.11011         7.82558
     2016.20260       -11.95538         7.78590
     2016.20533       -16.17765         7.94460
     2016.20807        -9.52492         7.87092
     2016.21081       -12.49418         8.07070
     2016.21355       -11.22545         7.68814
     2016.21629       -14.89272         7.85391
     2016.21902        -8.63699         7.55636
     2016.22176       -10.42426         7.58187
     2016.22450       -16.10353         7.46001
     2016.22724       -14.90480         7.62296
     2016.22997       -10.58407         7.55211
     2016.23271       -15.04834         7.53794
     2016.23545       -15.98461         7.66122
     2016.23819       -13.80588         7.49402
     2016.24093        -7.66615         7.60454
     2016.24366       -10.93742         7.58329
     2016.24640        -9.58169         7.55778
     2016.24914       -13.31196         7.51102
     2016.25188       -13.17223         7.65696
     2016.25462        -5.52750         7.70939
     2016.25735       -14.83377         7.90634
     2016.26009       -14.80604         7.64846
     2016.26252       -22.93605         8.56662
     2016.26647        -9.12833        13.34018
     2016.26830        -7.87185         7.56628
     2016.27104       -10.11112         7.58187
     2016.27378        -3.04239         7.52944
     2016.27652       -10.68266         7.54078
     2016.27926       -13.64193         7.62154
     2016.28142       -14.79472        10.11955
     2016.28815       -15.23130        11.45286
     2016.29021       -16.05500         7.66688
     2016.29300       -12.03932         7.77457
     2016.29568       -10.86154         7.62863
     2016.29842        -6.75981         7.89075
     2016.30116        -5.65008         7.82983
     2016.30390       -13.35335         7.66547
     2016.30663        -5.16462         7.71222
     2016.30937       -14.39289         7.62438
     2016.31211       -13.37316         7.77457
     2016.31485        -9.80743         7.60596
     2016.31759        -8.14770         7.57053
     2016.32032       -12.93597         7.58895
     2016.32306       -15.14824         7.60454
     2016.32580       -16.24251         7.66122
     2016.32854       -11.14878         7.65413
     2016.33128       -13.73005         7.60454
     2016.33401        -9.07132         7.64705
     2016.33675       -11.04959         7.72356
     2016.33949        -9.83586         8.14580
     2016.34223        -7.85913         7.67680
     2016.34496       -10.72340         7.79015
     2016.34770        -5.37467         7.71364
     2016.35044        -1.23494         7.92476
     2016.35318        -8.80121         7.56061
     2016.35592       -13.85748         7.62012
     2016.35865       -17.61775         7.55070
     2016.36133       -11.27797         7.78732
     2016.36413        -3.77429         7.59462
     2016.36687         0.83844         7.70372
     2016.36961         2.52218         7.57337
     2016.37234        -1.83009         7.57762
     2016.37508        -6.97436         7.58329
     2016.37782       -19.08863         7.82133
     2016.38056        -6.96490         7.80574
     2016.38329        -5.07017         7.55636
     2016.38603        -9.74044         7.57195
     2016.38877         1.01129         7.56487
     2016.39151       -11.53498         7.54645
     2016.39425       -11.23525         7.57337
     2016.39698         1.33548         7.58895
     2016.39972        -1.03679         7.57195
     2016.40246        -8.48106         7.63429
     2016.40525       -14.85238        10.28958
     2016.41427       -15.46485        27.44548
     2016.41615       -13.59341         7.88225
     2016.41889       -20.59968         7.96018
     2016.42162        -2.04695         7.57478
     2016.42436       -12.84422         7.60737
     2016.42710        -7.33949         7.56912
     2016.42984       -11.62776         7.63146
     2016.43258        -3.77603         7.53086
     2016.43531        -3.22230         7.87375
     2016.43805        -8.21957         7.54078
     2016.44079        -4.46184         7.80716
     2016.44353       -12.44111         7.53086
     2016.44626       -11.17438         7.56061
     2016.44900        -9.57664         7.60454
     2016.45174        -5.21291         8.08487
     2016.45448        -4.38518         7.53086
     2016.45722        -4.29645         7.58612
     2016.45995        -2.69272         7.59745
     2016.46269        -5.38999         7.55353
     2016.46543        -8.68026         7.55636
     2016.46822        -5.26158         7.75190
     2016.47096         1.07615         7.69522
     2016.47370        -5.09912         7.75190
     2016.47644        -1.51739         8.02678
     2016.47918         0.06834         7.92901
     2016.48191        -8.60193         7.65838
     2016.48465        -6.24920         7.87800
     2016.48750        -1.85856         9.93960
     2016.49013        -1.50574         7.67963
     2016.49287        -6.90901         7.76465
     2016.49560        -4.36228         7.71222
     2016.49828        -5.09950         7.61587
     2016.50102        -5.63377         7.65838
     2016.50376        -3.95704         7.75756
     2016.50650        -3.89031         7.79724
     2016.50924        -0.20558         7.69097
     2016.51197        -7.32685         7.61304
     2016.51477        -6.91016         7.78874
     2016.51751        -7.85743         7.91768
     2016.52024       -14.86470        10.57012
     2016.52298        -3.17797         7.82416
     2016.52572        -4.28724         7.77457
     2016.52846        -5.19951         7.74340
     2016.53120        -7.23878         7.65413
     2016.53393        -4.53705         7.72498
     2016.53667        -4.17232         7.78307
     2016.53941        -3.17259         7.73489
     2016.54215        -5.22886         7.71222
     2016.54488        -2.45413         7.74765
     2016.54762        -8.40140         7.64705
     2016.55036        -2.09967         7.89217
     2016.55310        -1.46994         7.72498
     2016.55586         0.55677         8.27615
     2016.55857        -8.18048         8.17555
     2016.56131         0.82325         7.77740
     2016.56405         0.63798         7.76182
     2016.56679        -1.91129         7.97010
     2016.56953        -7.27656         8.12454
     2016.57226         0.44917         7.75898
     2016.57500        -4.15010         7.96727
     2016.57774        -3.55437         7.98569
     2016.58048        -5.20264         7.61587
     2016.58321        -2.74391         7.68672
     2016.58595        -7.57817         7.77598
     2016.58869        -7.04444         7.71364
     2016.59137        -5.64167         7.52378
     2016.59411         3.00306         7.59462
     2016.59685         2.06879         7.51952
     2016.59958        -1.77748         7.71364
     2016.60232        -1.34175         7.83833
     2016.60506        -1.45602         7.71506
     2016.60780         0.27072         7.63996
     2016.61054        -2.49955         7.46285
     2016.61327        -2.73582         7.51527
     2016.61601        -4.70309         7.55070
     2016.61875        -2.14536         7.62296
     2016.62149        -7.82363         7.58754
     2016.62423         1.50810         7.69805
     2016.62696        -4.24917         7.58470
     2016.62970        -0.72944         7.62863
     2016.63244        -2.78671         7.70231
     2016.63518         4.76202         7.57195
     2016.63791        -0.45025         7.70514
     2016.64065         5.40748         7.68814
     2016.64339        -4.88779         7.88367
     2016.64613        -2.09306         7.57053
     2016.64887        -3.90333         7.71364
     2016.65160        -3.74060         7.65980
     2016.65434        -7.50087         7.65696
     2016.65708        -5.63114         7.81991
     2016.65982        -4.08141         7.53511
     2016.66256        -4.89768         7.66263
     2016.66529        -0.31095         7.78307
     2016.66803        -0.70122         7.82133
     2016.67077        -0.27849         7.71222
     2016.67351        -3.20276         7.60596
     2016.67624         2.49697         7.61304
     2016.67898        -1.37030         7.49544
     2016.68172         4.77643         7.51527
     2016.68446         2.16316         7.97860
     2016.68720        -3.49710         7.98285
     2016.68993        -4.99737         7.66688
     2016.69267        -1.25164         7.68105
     2016.69541        -3.31691         7.63713
     2016.69815         0.22382         7.50961
     2016.70089         1.44955         7.49685
     2016.70362         0.31028         7.62863
     2016.70636        -2.69999         7.90351
     2016.70910         2.53974         8.01119
     2016.71184         1.80647         7.74198
     2016.71457         3.63120         7.72356
     2016.71731        -4.01107         7.65130
     2016.72005         4.23266         7.70514
     2016.72279        -2.35161         7.60879
     2016.72553         1.91512         7.88934
     2016.72826        -4.46315         7.88225
     2016.73100        -4.92842         7.48977
     2016.73374        -1.75269         7.59745
     2016.73648        -0.14796         7.47843
     2016.73921         0.38777         8.14863
     2016.74195         2.26350         7.60454
     2016.74469        -6.47577         7.47560
     2016.74743        -3.49404         7.59037
     2016.74994        10.09188         8.53120
     2016.75655        -7.00460        13.01287
     2016.75838         2.17788         7.62296
     2016.76112        -1.38139         7.63571
     2016.76386        -0.07066         7.47135
     2016.76659        -2.07292         7.74198
     2016.76933         2.37881         7.55211
     2016.77207         8.03954         7.61729
     2016.77481         3.69527         7.64846
     2016.77754        -3.02000         7.46993
     2016.78028        -3.14627         7.54219
     2016.78302         6.69446         7.64421
     2016.78576         1.54519         7.75331
     2016.78844        15.33697         7.93326
     2016.79523        20.88934        28.47133
     2016.79671        -3.32989         7.55636
     2016.79945        -9.92616         7.74340
     2016.80219         4.34157         7.70372
     2016.80492        -4.32070         7.73348
     2016.80766        -2.70697         7.64280
     2016.81040        -3.23424         7.64563
     2016.81314        -2.42951         7.65413
     2016.81587        -5.42778         7.72356
     2016.81861        -2.21405         7.60596
     2016.82135         0.87668         7.62012
     2016.82409        -2.35959         8.30449
     2016.82683        -8.21786         7.62438
     2016.82956        -3.63313         7.59745
     2016.83230         6.97260         7.69522
     2016.83504        -7.33367         7.52661
     2016.83778        -6.04294         7.66972
     2016.84052        -7.92021         7.61021
     2016.84325        -9.33448         7.47560
     2016.84599        -0.68774         7.96302
     2016.84873         3.17799         7.56628
     2016.85147       -10.54128         7.58329
     2016.85420        -7.55055         7.61446
     2016.85694        -0.45582         7.79015
     2016.85974        -6.61014         7.95735
     2016.86242        -8.24636         7.75190
     2016.86516        -8.96263         8.01686
     2016.86789        -8.22190         7.71222
     2016.87063         1.55683         7.63429
     2016.87337         5.66956         7.89075
     2016.87611        -3.15071         7.63288
     2016.87885        -6.40998         7.54928
     2016.88158       -12.57625         7.61021
     2016.88432        -5.93352         7.66263
     2016.88678        -1.61756         8.76357
     2016.89099        -9.81505        22.86746
     2016.89253        -4.33933         7.64421
     2016.89527         6.19040         7.97010
     2016.89801         6.33213         7.53936
     2016.90075        -1.73114         7.50536
     2016.90349        -4.24641         7.73064
     2016.90622        -2.63468         7.64988
     2016.90896        -3.86295         7.64138
     2016.91170       -11.06022         7.55495
     2016.91444        -6.01849         7.71931
     2016.91718       -16.47876         7.80007
     2016.91991       -16.42103         7.71364
     2016.92265        -9.34930         7.68105
     2016.92539        -3.31557         7.61587
     2016.92813       -13.68983         7.84825
     2016.93086       -12.28910         7.56487
     2016.93360       -15.35437         7.53936
     2016.93634        -7.13064         7.59462
     2016.93908        -6.66991         7.72073
     2016.94182        -3.13618         7.69239
     2016.94455        -3.46545         7.68955
     2016.94729        -7.18372         7.75473
     2016.95003       -13.76899         7.67822
     2016.95277        -8.75026         7.67822
     2016.95551       -10.54253         7.53794
     2016.95824        -8.64980         7.55211
     2016.96098        -9.76507         7.55070
     2016.96372       -13.95634         7.55778
     2016.96646        -7.78961         7.51527
     2016.96919         0.26712         8.89109
     2016.97170       -14.70596         8.33141
     2016.98327        -7.32255         8.96052
     2016.98562        -9.62950         7.56912
     2016.98836         0.95323         7.71789
     2016.99110        -4.53804         7.59604
     2016.99384        -7.66731         7.52661
     2016.99657        -6.12258         7.57903
     2016.99931        -9.54585         7.49827
     2017.00205         2.40888         7.67822
     2017.00479        -8.61339         7.63571
     2017.00752       -11.88565         7.51244
     2017.01015       -11.91983         8.25348
     2017.02982        -1.32214        10.23007
     2017.03216       -14.87308         7.59037
     2017.03490       -15.14235         7.43026
     2017.03764       -15.18062         7.57478
     2017.04038       -14.08989         7.82274
     2017.04312        -8.66116         7.54219
     2017.04585        -6.22643         7.93468
     2017.04859         5.12130         7.89359
     2017.05133         3.42403         7.70656
     2017.05281        14.07680        30.45358
     2017.06616       -14.43526        18.07406
     2017.06776       -11.15559         7.53511
     2017.07049        -8.28886         7.48268
     2017.07323       -15.45613         9.14472
     2017.07597       -22.41740         7.71506
     2017.07871       -13.74367         7.71931
     2017.08145       -15.86394         7.59179
     2017.08418       -15.00721         7.54219
     2017.08692       -12.48847         7.59462
     2017.08966       -13.33974         7.51102
     2017.09240       -16.12702         7.62438
     2017.09514         0.91472         7.52803
     2017.09787         7.86645         7.68105
     2017.10061         4.92618         7.72781
     2017.10335       -11.85009         7.67538
     2017.10609        -4.34036         7.57053
     2017.10882         1.34037         7.65130
     2017.11156        -9.44890         7.82841
     2017.11430       -16.38117         7.50819
     2017.11704       -21.04144         7.55778
     2017.11978       -18.68871         7.55353
     2017.12251       -18.36698         7.56345
     2017.12531         1.65770         7.84116
     2017.12805         3.07343         7.89926
     2017.13078        -0.75484         7.76040
     2017.13347        -0.10906         7.53228
     2017.13620        -2.16233         7.66263
     2017.13894        -2.46160         7.63429
     2017.14168        -6.74987         7.69664
     2017.14442       -13.66314         7.54078
     2017.14715       -14.64141         7.63004
     2017.14988       -15.19266         7.92334
     2017.15263       -11.79595         7.80857
     2017.15537        -1.09622         7.80716
     2017.15811         0.66651         7.73914
     2017.16084        -5.67876         7.61446
     2017.16358       -12.21703         7.51952
     2017.16632       -15.64529         7.79866
     2017.16911        -9.41761         7.83833
     2017.17185        -6.84288         7.83549
     2017.17459        -0.69715         7.78449
     2017.17733        -5.82842         8.00694
     2017.18001        -4.75164         7.64138
     2017.18275       -14.63891         7.63854
     2017.18548        -5.16518         7.61304
     2017.18822       -14.29745         7.75190
     2017.19096       -11.46672         7.66688
     2017.19370       -10.33199         7.56770
     2017.19644       -11.50626         7.61871
     2017.19917        -1.56853         7.74765
     2017.20191         0.78620         7.68247
     2017.20465       -20.89007         7.85250
     2017.20739       -11.04134         7.62154
     2017.21013        -6.68461         7.69239
     2017.21286       -12.60388         7.53228
     2017.21560       -12.73315         7.64705
     2017.21834        -4.90542         7.75048
     2017.22108        -2.57169         7.58895
     2017.22381        -8.27496         7.70089
     2017.22655         5.54077         7.87800
     2017.22929       -14.70650         7.52803
     2017.23203        -4.85877         7.66688
     2017.23477        -1.80704         7.68389
     2017.23750        -9.18331         7.58470
     2017.24024       -11.12558         7.90917
     2017.24298       -14.97685         7.63571
     2017.24572       -17.60111         7.55070
     2017.24846       -19.48038         7.83408
     2017.25119       -14.75165         7.56770
     2017.25393       -15.56592         7.56345
     2017.25667       -16.67119         7.64138
     2017.25941       -18.55346         7.86100
     2017.26186        -5.85950         8.52128
     2017.29871         0.20895        14.59414
     2017.30047        -9.74251         7.83549
     2017.30321       -16.59878         7.56770
     2017.30595       -11.22605         7.70797
     2017.30869       -17.77032         7.61021
     2017.31143         2.25841         7.57762
     2017.31416       -13.11686         7.57478
     2017.31690        -6.38913         7.64138
     2017.31964       -18.16440         7.81282
     2017.32238       -17.75267         7.71364
     2017.32512       -20.03993         7.55920
     2017.32785       -14.78820         7.57478
     2017.33059       -20.06847         7.59745
     2017.33333       -16.09174         7.58329
     2017.33607       -16.79601         7.63571
     2017.33880       -13.67228         7.70797
     2017.34154        -2.91155         7.88084
     2017.34428       -12.89082         7.58045
     2017.34702       -16.25409         7.52094
     2017.34976       -14.14336         7.54503
     2017.35249       -13.65763         7.51811
     2017.35523       -18.14890         7.53511
     2017.35797        -8.39717         7.73064
     2017.36071       -10.07144         7.79299
     2017.36344        -6.50371         7.59604
     2017.36618       -13.14898         7.64280
     2017.36892       -13.52725         7.51669
     2017.37166        -6.82252         7.68389
     2017.37440       -13.04979         7.57903
     2017.37713       -17.95506         7.73489
     2017.37987       -21.51033         7.68389
     2017.38261       -17.06960         7.62296
     2017.38535       -14.96587         7.57620
     2017.38809       -14.41014         7.60029
     2017.39082       -15.28141         7.67822
     2017.39356       -14.95468         7.56770
     2017.39630       -11.21995         7.61162
     2017.39904       -12.26622         7.53086
     2017.40177       -14.27949         7.61729
     2017.40451       -13.96275         7.66830
     2017.40725       -14.57302         7.53228
     2017.40999       -17.45429         7.65838
     2017.41273        -8.09256         7.60596
     2017.41546       -10.77083         7.61162
     2017.41752        -8.19654        10.99661
     2017.44951       -24.07905        27.11960
     2017.45191         0.18295        13.32176
     2017.45379         1.05539         7.95735
     2017.45653        -8.31888         7.89217
     2017.45927       -12.11115         7.62438
     2017.46201        -8.57642         7.59320
     2017.46475        -5.47069         7.65696
     2017.46748       -14.23796         7.86950
     2017.47022       -15.64123         7.81566
     2017.47296        -8.72750         7.86242
     2017.47570       -14.80777         7.52094
     2017.47843       -12.43004         7.55778
     2017.48117        -9.53931         7.69239
     2017.48391        -9.01457         7.91201
     2017.48665       -12.73084         7.72214
     2017.48939        -5.70211         7.61021
     2017.49212        -5.76738         7.58612
     2017.49486       -10.22465         7.63854
     2017.49760        -8.47592         7.65271
     2017.50034        -7.61919         7.60737
     2017.50308        -6.79146         7.66122
     2017.50581       -10.65773         7.60029
     2017.50855       -11.63800         7.74340
     2017.51129        -8.39027         7.90351
     2017.51403        -5.41254         7.71364
     2017.51676       -14.24681         7.70089
     2017.51950       -18.72708         7.81707
     2017.52224        -9.23735         7.77315
     2017.52498        -7.11162         7.57478
     2017.52772       -12.41489         7.85817
     2017.53045        -8.60816         7.52519
     2017.53319       -12.55743         7.62579
     2017.53593       -11.66170         7.65696
     2017.53867        -9.04497         7.60596
     2017.54141        -0.20324         7.58329
     2017.54414        -6.67451         7.67963
     2017.54688        -8.51978         7.80857
     2017.54962        -9.85105         7.79866
     2017.55236       -12.24332         7.73348
     2017.55509        -6.95859         7.58187
     2017.55783        -9.63286         7.62579
     2017.56057        -7.70913         7.63004
     2017.56331       -10.61139         7.73064
     2017.56605        -7.25266         7.65838
     2017.56878        -8.31293         7.62296
     2017.57152        -9.68820         7.57337
     2017.57426       -10.70347         7.66122
     2017.57700        -9.45574         7.65413
     2017.57974       -11.34001         7.64421
     2017.58247        -7.00828         7.52378
     2017.58521        -6.67955         7.49827
     2017.58795       -13.25682         7.78732
     2017.59069        -8.17009         8.15855
     2017.59342       -10.24236         7.83833
     2017.59616        -8.96763         7.72498
     2017.59890        -7.17790         7.65838
     2017.60164        -5.80117         7.58045
     2017.60438       -13.35044         7.63571
     2017.60711       -12.94671         7.66263
     2017.60985        -5.67298         7.91484
     2017.61259       -14.48825         7.89642
     2017.61533        -3.55152         7.82274
     2017.61807        -4.23879         7.74198
     2017.62080        -6.89006         7.74623
     2017.62354        -5.10233         7.72214
     2017.62628        -3.40560         8.01686
     2017.62902        -4.69787         8.14721
     2017.63175        -8.72814         7.85250
     2017.63449       -17.54241         7.75048
     2017.63723        -4.48968         7.87800
     2017.63997        -4.17395         7.84966
     2017.64271        -7.95421         7.71647
     2017.64544        -0.72848         8.00694
     2017.64818        -7.04975         8.01686
     2017.65092        -7.03802         7.94176
     2017.65366       -11.52629         8.00552
     2017.65639        -5.64056         8.00552
     2017.65913        -3.76783         7.83549
     2017.66187        -1.52410         7.76890
     2017.66461        -2.22837         7.77457
     2017.66735        -5.07364         7.80149
     2017.67008        -1.11091         7.48694
     2017.67282        -3.61318         7.80716
     2017.67556        -1.56245         7.62863
     2017.67830        -2.90872         7.75331
     2017.68104        -4.74099         8.09337
     2017.68377        -5.97926         7.92193
     2017.68651         3.09847         7.83691
     2017.68925         1.47520         7.63854
     2017.69199        -7.19207         7.70797
     2017.69472        -4.08234         7.71364
     2017.69746        -2.54661         7.71931
     2017.70020         1.31612         7.97010
     2017.70294        -1.80115         7.91059
     2017.70568        -1.16542         7.86242
     2017.70841         1.91031         7.53511
     2017.71115        -5.83596         7.91768
     2017.71389         4.87177         7.77032
     2017.71663        -0.34050         7.91342
     2017.71937         8.27123         8.01828
     2017.72210         1.68197         7.86242
     2017.72484        -9.61730         7.78732
     2017.72758        -2.73457         7.50394
     2017.73032        -0.58484         7.56345
     2017.73305        -3.75411         7.52519
     2017.73579        -4.77238         7.52803
     2017.73853        -1.49165         7.55920
     2017.74127        -5.03992         7.65838
     2017.74401        -0.81319         7.87092
     2017.74674        -6.90246         7.74056
     2017.74948        -0.89873         7.73348
     2017.75222        -7.89500         7.55353
     2017.75496        -1.59927         7.58329
     2017.75770        -5.09954         7.82841
     2017.76043        -6.47081         7.61304
     2017.76317        -6.71708         7.73064
     2017.76591        -3.59935         8.03386
     2017.76865        -8.77862         7.64705
     2017.77138       -10.87989         7.53086
     2017.77412        -4.52516         7.74340
     2017.77686        -3.16043         7.60312
     2017.77960         3.35330         7.72498
     2017.78234        -1.98097         7.70231
     2017.78507       -10.42024         7.59320
     2017.78781        -6.69451         7.61304
     2017.79055        -8.94078         7.56487
     2017.79329        -3.79205         7.76465
     2017.79603         1.54568         7.44868
     2017.79876        14.19141         7.88934
     2017.80150        15.89315         7.83408
     2017.80424        18.38688         7.56770
     2017.80698        -1.73039         7.87658
     2017.80971       -10.74066         7.63854
     2017.81245       -13.09293         7.82416
     2017.81519        -7.06320         8.38525
     2017.81793        -4.73747         8.52553
     2017.82067       -18.94274         8.42918
     2017.82340         0.47899         8.31866
     2017.82614       -11.51028         8.39376
     2017.82888       -16.22755         8.38667
     2017.83162       -17.85582         8.57229
     2017.83436       -11.12709         8.44902
     2017.83709        -2.77536         8.75082
     2017.83983       -14.85363         8.32716
     2017.84257        -5.19490         8.50711
     2017.84531        -8.38517         8.37959
     2017.84804       -21.99144         8.52695
     2017.85078        -8.73471         8.72815
     2017.85352        -0.30498         9.20706
     2017.85626        15.01575         8.97044
     2017.85900         1.83148         9.03278
     2017.86173       -13.95979         8.80466
     2017.86447        -4.79006         8.90526
     2017.86721         5.37867         9.27365
     2017.87816        10.77859         8.92793
     2017.88033       -26.87020        12.72241
     2017.89006        31.44073        16.08189
     2017.89185        18.64325         9.19714
     2017.89459         9.04698         9.16597
     2017.89733       -10.33229         8.31158
     2017.90006        -3.33656         8.52553
     2017.90280        11.34217         8.92510
     2017.90554         8.75490         8.54962
     2017.90828         3.43163         8.53403
     2017.91102         5.13736         9.29916
     2017.91375        -4.01291         8.84292
     2017.91649        -6.09818         8.82450
     2017.91923        16.62755         8.79616
     2017.92197        19.54128         8.40226
     2017.92470         7.47601         8.33708
     2017.92744        -2.61726         8.53828
     2017.93018        -3.68253         8.35975
     2017.93292        -7.94680         8.46035
     2017.93566        -6.57907         8.50144
     2017.93839         5.59466         8.37675
     2017.94113        -5.01661         8.59921
     2017.94387       -14.36288         8.31724
     2017.94661       -17.79915         8.48727
     2017.94935         7.35358         8.44335
     2017.95207       -11.28067         8.49861
     2017.95482        -0.09996         8.57512
     2017.95756        -0.35823         8.45043
     2017.96030        -7.05549         8.39092
     2017.96303        -8.05776         8.67997
     2017.96577        -1.03403         8.82733
     2017.96851        -7.25630         8.46177
     2017.97125        -5.54357         8.16988
     2017.97399       -12.22284         8.34275
     2017.97672        -8.52311         8.32574
     2017.97946        -3.93538         8.36967
     2017.98220       -11.11765         8.44476
     2017.98494       -18.94792         8.16563
     2017.98767       -17.33519         8.44760
     2017.99041       -22.10946         8.44618
     2017.99315        -3.03973         8.41643
     2017.99863       -27.35927         8.42918
     2018.00136       -28.76954         8.55528
     2018.00410       -29.15381         8.60062
     2018.00684        -8.21108         8.64597
     2018.00958       -15.76335         8.44902
     2018.01232        -6.89562         8.58787
     2018.01505        -6.95989         8.23931
     2018.01779         1.89984         8.48019
     2018.02053        -2.03343         8.61338
     2018.02327         5.35630         8.37109
     2018.02600        -1.48197         8.63463
     2018.02874        -5.61524         8.70264
     2018.03148       -18.84151         8.44193
     2018.03422        -6.90178         8.56378
     2018.03696       -17.96905         8.21523
     2018.03969        -3.94231         8.55245
     2018.04243       -15.96858         8.78907
     2018.04517        -7.28985         8.59071
     2018.04791        -7.86612         8.51844
     2018.05065       -11.69039         8.24781
     2018.05338       -12.91366         8.24640
     2018.05612       -10.68793         8.31724
     2018.05886       -20.33320         8.35408
     2018.06160         5.35153         8.48869
     2018.06433        -3.61474         8.60487
     2018.06707       -10.97501         8.61621
     2018.06981        -9.10228         8.35975
     2018.07255       -15.52255         8.81033
     2018.07529       -12.03982         8.68139
     2018.07802       -10.32409         8.68280
     2018.08076       -12.11636         8.92651
     2018.08350       -13.94063         8.43626
     2018.08624       -11.89690         8.52836
     2018.08898       -10.18017         9.01436
     2018.09171        -4.71944         8.78057
     2018.09445        -5.92171         8.71114
     2018.09719       -15.10098         8.47027
     2018.09993       -10.94625         8.52978
     2018.10266        -9.97552         8.79191
     2018.10540        -8.34579         8.87409
     2018.10814        -1.07206         8.63746
     2018.11088       -13.00633         8.35975
     2018.11362       -20.30060         8.43343
     2018.11635       -21.27987         8.40792
     2018.11909       -23.24813         8.55387
     2018.12184       -10.56442         9.08237
     2018.12457        -9.85167         8.50427
     2018.12731       -15.55594         8.46460
     2018.13004         4.24779         8.67147
     2018.13278       -16.86948         8.63463
     2018.13552        -5.05575         8.51703
     2018.13826         1.53298         8.89676
     2018.14099        -7.94929         8.78057
     2018.14373        -6.03056         8.78199
     2018.14647       -12.28183         9.06537
     2018.14921        -1.14910         9.09938
     2018.15195        -0.26537         8.86700
     2018.15468         2.55736         8.73098
     2018.15742        -7.45491         8.50002
     2018.16016        -4.57218         8.67714
     2018.16290       -13.76045         8.75507
     2018.16564         4.67528         8.99311
     2018.16837         2.89501         8.69697
     2018.17111        -7.72526         8.43485
     2018.17385       -13.01853         8.54678
     2018.17659       -16.16980         8.76640
     2018.17932       -20.85807         8.62046
     2018.18206        -1.53234         8.92226
     2018.18480       -14.39461         8.56237
     2018.18754        -5.32688         8.46744
     2018.19028        -4.47115         8.46035
     2018.19301        -6.74342         8.67714
     2018.19575        -3.89769         8.50994
     2018.19849        15.12205         8.73098
     2018.20123         9.93878         8.78057
     2018.20397        14.21051         8.73948
     2018.20670        13.50224         8.76782
     2018.20944       -14.99903         8.53261
     2018.21218       -12.61730         8.42918
     2018.21492       -28.21457         8.53970
     2018.21765        -4.36884         8.53120
     2018.22039         7.04989         8.56237
     2018.22313         5.02162         8.63463
     2018.22587         1.79235         8.55387
     2018.22861        -3.31192         8.35125
     2018.23134       -17.53719         8.38100
     2018.23408       -23.56846         8.27048
     2018.23682        -6.29873         8.29174
     2018.23944       -10.08191         8.57370
     2018.24230        -1.18127         8.39234
     2018.24503         0.51946         8.30307
     2018.24777        -3.90081         8.32574
     2018.25051       -10.26408         8.47594
     2018.25325        -3.54435         8.87267
     2018.25598        -4.97162         8.50994
     2018.25872         5.52811         8.72248
     2018.26146         4.26984         8.56804
     2018.26420         3.33257         8.45327
     2018.26694        16.72630         8.40084
     2018.26967        -5.77897         8.26482
     2018.27241        -6.50324         8.63888
     2018.27515         5.73849         8.34416
     2018.27789        19.22323         8.73806
     2018.28062        -8.49904         8.58362
     2018.28336        -9.75931         8.19539
     2018.28610        15.85142         8.45185
     2018.28884        16.09015         8.39517
     2018.29158         0.07188         8.44476
     2018.29431        -7.81939         8.36825
     2018.29705       -14.92366         8.30591
     2018.29979         2.75607         8.43060
     2018.30253        -9.11620         8.69556
     2018.30527        -2.45947         8.40934
     2018.30800        -5.69574         8.77915
     2018.31074        -9.11901         8.26057
     2018.31348       -15.75028         8.30024
     2018.31622        -5.90255         8.27190
     2018.31895         6.24518         8.57654
     2018.32169         7.91491         8.43060
     2018.32443        11.10864         8.46460
     2018.32717       -13.51063         8.51844
     2018.32991        -6.80490         8.65305
     2018.33264         1.89583         8.53545
     2018.33538        -5.03344         9.03703
     2018.33812        -5.43371         8.74231
     2018.34086        -7.45398         8.42493
     2018.34360       -13.18425         8.39517
     2018.34633        -7.80652         8.41501
     2018.34907         4.67721         8.52978
     2018.35181         8.71794         8.44902
     2018.35455         4.28467         8.45752
     2018.35728         0.36941         8.71256
     2018.36002         1.34214         8.31724
     2018.36276        10.91387         8.45185
     2018.36550        -2.21040         8.43485
     2018.36824         1.98233         8.65163
     2018.37097       -11.47494         8.53970
     2018.37371        10.62579         8.61763
     2018.37645        -2.53648         8.84433
     2018.37919        -4.17575         8.48727
     2018.38193        -3.85802         8.29032
     2018.38466         3.83071         8.51844
     2018.38740         3.13544         8.60204
     2018.39014         3.22917         8.67289
     2018.39288        12.76190         8.63321
     2018.39561         5.85563         8.63888
     2018.39835        -3.21464         8.36967
     2018.40109         3.91509         8.85708
     2018.40383        -9.61918         8.71964
     2018.40657        16.19055         8.57654
     2018.40930        12.08128         8.55670
     2018.41204         1.40201         8.72531
     2018.41478        -2.69326         8.34841
     2018.41752        -1.35453         8.20814
     2018.42299         4.78793         8.50002
     2018.42573         5.08466         8.66722
     2018.42847        11.91739         8.54820
     2018.43102         5.58728         9.02145
     2018.43394        -4.40515         9.65622
     2018.43668        12.29159        10.95269
     2018.43942        -5.30668         8.45610
     2018.44216        18.28005         8.39234
     2018.44490         6.99078         8.87267
     2018.44763        -6.88649         8.55812
     2018.45037        -5.78776         8.44335
     2018.45311        -2.53503         8.22231
     2018.45585         2.14170         8.50144
     2018.45859         5.06943         8.41784
     2018.46132        11.38916         8.76640
     2018.46406         3.36689         8.44335
     2018.46680        -6.81738         8.50286
     2018.46894        10.58184        10.94844
     2018.47319        17.74132        16.15557
     2018.47501         1.94481         8.48160
     2018.47775         0.30754         8.61196
     2018.48049         3.99927         8.75790
     2018.48323         1.89200         8.50002
     2018.48596         6.06773         8.44051
     2018.48870        18.19946         8.50144
     2018.49144         8.63719         8.39234
     2018.49418        12.81592         8.54536
     2018.49692        12.97665         8.56804
     2018.49965        19.68138         8.59212
     2018.50239        12.21811         8.46460
     2018.50513         7.30984         8.40934
     2018.50787        21.01457         8.43910
     2018.51060        10.87930         8.60204
     2018.51334         4.34603         8.34700
     2018.51608        11.19076         8.25207
     2018.51882         2.57150         8.51561
     2018.52156         5.43623         8.44618
     2018.52429         3.93796         8.45893
     2018.52703         4.77469         8.24356
     2018.52977        -4.30858         8.37817
     2018.53251         5.41415         8.34700
     2018.53525        10.39088         8.27048
     2018.53798        21.89761         8.46744
     2018.54072        11.33834         8.47594
     2018.54346         5.96207         8.28324
     2018.54620        13.21480         8.50144
     2018.54893        11.16353         8.63746
     2018.55167        13.01726         8.19964
     2018.55441        19.68699         8.25065
     2018.55715         8.31572         8.42776
     2018.55989         7.52345         8.61054
     2018.56262         5.82118         8.45468
     2018.56536        12.44291         8.50427
     2018.56810         3.38564         8.23790
     2018.57084         0.61537         8.42068
     2018.57267        -0.50815        14.42269
     2018.57631         7.02483        13.78509
     2018.57905        -1.37344         8.90526
     2018.58179         7.99329         8.84433
     2018.58453        14.67502         8.56520
     2018.58726         9.26875         8.52978
     2018.59000         5.56148         8.45610
     2018.59274        10.73921         8.41076
     2018.59548         7.90194         8.83158
     2018.59822        12.86168         8.53970
     2018.60095         8.21641         8.58787
     2018.60369        18.36114         8.50002
     2018.60643        13.62887         8.53261
     2018.60917        15.18160         8.42776
     2018.61190        12.87333         8.20814
     2018.61464        24.93306         8.70973
     2018.61738         2.72979         8.56237
     2018.62012        14.60252         8.33991
     2018.62286         7.57925         8.68139
     2018.62559         3.04898         8.84717
     2018.62833        23.52471         8.54820
     2018.63107        19.57744         8.48869
     2018.63381        13.14717         8.70264
     2018.63648        -1.15404         8.87125
     2018.64021        -5.98614        19.04181
     2018.64202        13.49136         9.09512
     2018.64476        17.20609         8.56378
     2018.64750        12.14382         8.29316
     2018.65023        13.39055         8.52978
     2018.65297        13.61328         8.50569
     2018.65571         9.44401         8.35692
     2018.65845        15.77574         8.63180
     2018.66119        24.70847         8.67855
     2018.66392        15.15620         8.15572
     2018.66666        16.73893         8.19681
     2018.66940        22.86266         8.56804
     2018.67214        20.81739         8.41218
     2018.67488         4.87012         8.59212
     2018.67761        21.96086         8.38100
     2018.68035         6.48859         8.55953
     2018.68309        -1.56468         8.57229
     2018.68583        21.42205         8.64030
     2018.68856        17.48078         8.47452
     2018.69130        19.31951         8.59496
     2018.69404        15.75824         8.96902
     2018.69678        13.58297         8.65022
     2018.69952         5.14270         8.67855
     2018.70225         9.15343         8.61054
     2018.70499        -1.42784         8.33708
     2018.70773        -5.00611         9.31191
     2018.71047         3.45462         8.83725
     2018.71321         6.07035         8.57087
     2018.71594        14.36108         8.43060
     2018.71868        -8.51819         8.41359
     2018.72142         2.82454         8.48160
     2018.72416        -3.94273         8.78199
     2018.72689         5.95500         8.33283
     2018.72963        10.20173         8.30449
     2018.73237         1.47846         8.30024
     2018.73511        -0.67281         8.61196
     2018.73785        12.70192         8.31016
     2018.74058         2.55865         8.54253
     2018.74332        15.66338         8.23506
     2018.74606        23.50311         8.31583
     2018.74880        12.26284         8.22231
     2018.75154        -1.06443         8.72531
     2018.75427        -1.89770         8.29599
     2018.75701         4.57904         8.92368
     2018.75975        22.40377         9.05120
     2018.76249        19.48750         8.72673
     2018.76522         4.49523         8.45185
     2018.76796        37.13096         8.62046
     2018.77070        15.24269         8.49011
     2018.77344         1.19942         8.50144
     2018.77618        14.45915         8.47452
     2018.77891         9.17788         8.91518
     2018.78165         7.95161         8.43626
     2018.78439        17.73234         8.30024
     2018.78713         9.19107         8.55812
     2018.78987         3.41080         8.40226
     2018.79260        -2.91347         8.29882
     2018.79534        13.96826         8.24923
     2018.79808         9.80699         8.29032
     2018.80082        18.50272         8.21948
     2018.80355        20.59345         8.61621
     2018.80629        16.18618         8.74515
     2018.80903         4.57191         8.58646
     2018.81177         9.47364         8.93360
     2018.81451        33.67737         8.61621
     2018.81724        30.15410         8.99736
     2018.81998        26.62683         8.80466
     2018.82272        35.97056         8.77207
     2018.82546        34.46829         8.74373
     2018.83093        21.86875         8.67147
     2018.83367        -4.80752         8.98886
     2018.83641         4.92622         8.73665
     2018.83915        14.98295         8.42776
     2018.84188        36.74368         8.91659
     2018.84462         6.49241         8.59637
     2018.84736        -1.15386         8.37817
     2018.85010        20.60187         8.77632
     2018.85284        -4.97640         8.37534
     2018.85557        -9.21867         8.76782
     2018.85831         4.09806         8.39517
     2018.86105         2.71879         8.23931
     2018.86379        -2.11448         8.50144
     2018.86653         6.75725         8.40084
     2018.86926         0.89998         8.65163
     2018.87200         1.30671         8.41218
     2018.87474         2.19144         8.46602
     2018.87748         6.32917         8.56520
     2018.88021         6.00790         8.48727
     2018.88295         2.40363         8.51844
     2018.88569        -0.08864         8.78199
     2018.88843        17.29509         8.76215
     2018.89117        24.28682         8.62896
     2018.89390        24.03555         8.75223
     2018.89664        22.59828         8.96760
     2018.89938        19.12001         9.15322
     2018.90212        19.70174         8.71964
     2018.90759        33.45420         8.87267
     2018.91307        18.07966         9.16597
     2018.91581        35.35040         8.98461
     2018.91854        24.13713         8.77065
     2018.92128        10.67286         8.53970
     2018.92402        -5.14941         8.48444
     2018.92676         0.97732         8.60913
     2018.92950         2.82205         8.44476
     2018.93223        -2.23022         8.54253
     2018.93497        17.52951         8.82450
     2018.93771        14.89024         8.77915
     2018.94045        26.46597         8.61054
     2018.94318        32.04570         8.63746
     2018.94592        32.06843         9.12488
     2018.94866         5.81816         8.90951
     2018.95140        11.23289         8.96619
     2018.95414        36.09162         8.49011
     2018.95687        26.19335         8.70548
     2018.95961        23.39608         8.78624
     2018.96235        26.92281         8.85567
     2018.96509        -8.83646         9.03703
     2018.96784        10.47126         8.66297
     2018.97056        -0.04300         8.48869
     2018.97330        -1.15627         8.45043
     2018.97604        22.21646         8.95202
     2018.97878        31.65719         8.81599
     2018.98151         1.01892         8.15572
     2018.98425         9.76965         8.90101
     2018.98699        -3.18062         9.41251
     2018.98973        13.46411         8.53545
     2018.99247        16.23084         8.41501
     2018.99520        17.78858         8.92085
     2018.99794        -4.89369         8.36967
     2019.00068         0.13904         8.27048
     2019.00342        -3.40223         8.72956
     2019.00616         5.80150         8.66439
     2019.00889        12.98823         8.68847
     2019.01163         2.91396         8.58220
     2019.01437        19.94869         8.70548
     2019.01711        18.44342         8.71539
     2019.01984        -1.37085         8.59212
     2019.02258        12.44988         8.46744
     2019.02532        16.85461         8.77207
     2019.02806         1.08934         8.79899
     2019.03080        -2.99793         8.47594
     2019.03353        -2.27720         8.55812
     2019.03627        -3.94647         8.44618
     2019.03901         3.77026         8.43910
     2019.04175         7.10299         8.58646
     2019.04449         6.25772         8.56945
     2019.04722        12.26745         8.67997
     2019.04996         2.20418         8.58220
     2019.05270        10.63491         8.83866
     2019.05544         8.18664         8.66439
     2019.05817        -4.61063         9.14897
     2019.06091         7.12410         8.72815
     2019.06365         4.47083         8.67005
     2019.06639         2.87856         8.73806
     2019.06913         6.07129         8.43768
     2019.07186         3.28402         8.60062
     2019.07460       -10.77624         8.17130
     2019.07734        -8.40551         8.53970
     2019.08008        -6.41478         8.33850
     2019.08282        -4.18905         8.77490
     2019.08555         5.60368         8.76924
     2019.08829        14.89941         7.96868
     2019.09103         6.08814         7.62863
     2019.09377         7.77687         7.61021
     2019.09650         4.87560         7.68247
     2019.09924        -0.33367         7.71364
     2019.10198        -3.94794         7.57337
     2019.10472        -0.22021         7.46568
     2019.10746        13.42952         7.67538
     2019.11019         2.53225         7.69097
     2019.11293        16.97698         7.87942
     2019.11567        21.27071         8.08912
     2019.11841        24.62744         7.62012
     2019.12115        24.35917         7.82841
     2019.12388        17.36890         7.79724
     2019.12662        20.55463         7.63854
     2019.12936        10.08736         7.60737
     2019.13210        -3.94491         7.52944
     2019.13483        -7.07618         7.69097
     2019.13757        10.57255         7.67822
     2019.14031         4.78528         7.55636
     2019.14305        -3.05399         7.51527
     2019.14579         3.74674         7.56487
     2019.14852        15.77347         7.60312
     2019.15126         4.88520         7.45151
     2019.15400        -6.47406         7.52094
     2019.15674        -2.33333         7.56203
     2019.15948        -3.07360         7.46852
     2019.16221        -1.23787         7.77032
     2019.16495        -1.27214         7.53653
     2019.16769       -10.49241         7.53794
     2019.17043        -8.58968         7.50110
     2019.17316        -6.38095         7.45293
     2019.17590         3.06878         7.62296
     2019.17864        10.91951         7.69239
     2019.18138         4.84024         7.56203
     2019.18412        -8.44703         7.56203
     2019.18685        -3.69030         7.45860
     2019.18959        -5.02857         7.59887
     2019.19233         6.21716         7.65696
     2019.19507         2.15789         7.60454
     2019.19780        -6.69238         7.51244
     2019.20054        -4.56465         7.70939
     2019.20328        -5.93092         7.51811
     2019.20602        -7.87919         7.66972
     2019.20876        -9.87546         7.54786
     2019.21149        -4.08773         7.56061
     2019.21423         1.05100         7.48268
     2019.21697        -0.38027         7.54786
     2019.21971        -2.27954         7.89784
     2019.22245         0.65619         7.57620
     2019.22518        -3.08908         7.56487
     2019.22792         3.13565         7.64988
     2019.23066        -3.84962         7.61446
     2019.23340        -0.33188         7.63288
     2019.23613        -2.74415         7.62012
     2019.23887         5.52858         7.57903
     2019.24161        -5.59569         7.72214
     2019.24435        -3.22096         7.60170
     2019.24709        -5.62923         7.70089
     2019.24982         9.92450         7.54786
     2019.25256         9.01723         7.86525
     2019.25530        -3.13904         7.51527
     2019.25804        20.91569         7.76607
     2019.26078         5.48242         7.77457
     2019.26351         6.58615         7.64846
     2019.26625        14.38788         7.71364
     2019.26899        -3.55539         8.02253
     2019.27173        -0.70566         7.90634
     2019.27446         1.84107         7.50677
     2019.27720         1.80780         7.69664
     2019.27994         1.92253         7.60029
     2019.28268        -7.77674         7.53369
     2019.28542         6.39799         7.53653
     2019.28815         5.09072         7.53369
     2019.29089        -1.79355         7.69097
     2019.29363         0.57218         7.55778
     2019.29637        -1.94709         7.60312
     2019.29911         3.01164         7.55495
     2019.30184         1.50037         7.50110
     2019.30458        -3.97090         7.50110
     2019.30732        -1.75017         7.69664
     2019.31006         1.86156         7.67255
     2019.31279        -4.83370         7.61871
     2019.31553         8.73003         7.65555
     2019.31827         1.03876         7.62579
     2019.32101         1.71049         7.48835
     2019.32375        -9.59878         7.59179
     2019.32648        -5.13805         7.73773
     2019.32922         1.45868         7.75331
     2019.33173         2.93760         8.26482
     2019.33570         3.15831        16.18674
     2019.33744        -0.85613         7.55636
     2019.34017        -4.75440         7.62154
     2019.34291         1.39033         7.63713
     2019.34565         4.95606         7.61587
     2019.34839         0.82779         7.63713
     2019.35112        -0.16748         7.53086
     2019.35386        -0.26475         7.57195
     2019.35660        -1.74702         7.59179
     2019.35832        12.39556        16.60190
     2019.36295         2.16872        13.37985
     2019.36481        11.23517         7.65838
     2019.36755        -4.35810         7.53228
     2019.37029        11.72863         7.65696
     2019.37303         5.31836         7.76040
     2019.37577        -0.01591         7.88792
     2019.37850        19.29182         7.64846
     2019.38124         6.82755         7.63429
     2019.38398        17.69828         7.71364
     2019.38672        -0.83499         7.63571
     2019.38945         2.35474         7.71364
     2019.39219         2.21848         7.91342
     2019.39493         5.38421         7.57053
     2019.39767        17.47894         7.62296
     2019.40041         1.49267         7.61587
     2019.40314         3.16840         7.59887
     2019.40588         3.78413         7.59887
     2019.40862         6.45986         7.66122
     2019.41136         3.49459         7.54503
     2019.41410         5.02932         7.61021
     2019.41683         3.60905         7.64988
     2019.41957         6.74978         7.83975
     2019.42231         3.23451         7.70797
     2019.42505         9.38424         7.76748
     2019.42778         7.67497         7.91201
     2019.43052         9.50470         7.64563
     2019.43326        -2.25957         7.65980
     2019.43600        -1.14184         7.60737
     2019.43874        -4.35311         7.64846
     2019.44147         3.25362         7.63004
     2019.44421         2.05835         7.64705
     2019.44695         0.96308         7.78874
     2019.44969         3.71081         7.74481
     2019.45243         3.14254         7.64988
     2019.45516         1.63827         7.81849
     2019.45790         1.06300         7.82841
     2019.46064        -1.96427         7.79299
     2019.46338        -3.01454         7.99844
     2019.46611         3.20719         8.04661
     2019.46885         8.16192         7.81707
     2019.47159         5.69766         7.72073
     2019.47433        -2.67361         7.70797
     2019.47707         4.75412         7.72073
     2019.47980        10.75485         7.82133
     2019.48254        -2.16942         7.69947
     2019.48528         0.61731         7.76465
     2019.48802        13.53004         7.77740
     2019.49076        -9.78323         7.63288
     2019.49349         3.21950         7.69380
     2019.49623         0.88023         7.79866
     2019.49897         5.54696         7.72498
     2019.50171         0.03869         7.58187
     2019.50444         0.98542         7.50677
     2019.50718        -0.79585         7.47135
     2019.50992        -5.63212         7.70797
     2019.51266        -3.56439         7.63429
     2019.51540         4.52634         7.67255
     2019.51813         2.03107         7.66405
     2019.52087        19.93180         7.77740
     2019.52361        -1.23547         7.75331
     2019.52635         1.08626         7.64138
     2019.52908         3.77299         8.16280
     2019.53182        -1.00928         7.92051
     2019.53456        -1.98055         7.93751
     2019.53730         1.75818         7.96443
     2019.54004         0.86091         7.93609
     2019.54277        10.22564         7.94743
     2019.54551         0.52737         8.26198
     2019.54825         5.24810         7.53511
     2019.55099        -0.33416         7.60312
     2019.55373        -1.24443         7.85250
     2019.55646         6.03530         7.87233
     2019.55920         3.05503         7.96302
     2019.56194         5.31576         7.58470
     2019.56468        -1.27651         8.02253
     2019.56741        -3.99878         7.91201
     2019.57015        -3.78605         7.58045
     2019.57289        -3.40132         7.73914
     2019.57563         1.58241         7.66122
     2019.57837         2.31414         7.87375
     2019.58110        -4.12513         7.77032
     2019.58384         1.18360         8.50711
     2019.58658        -0.95567         7.86667
     2019.58932        13.19106         7.68955
     2019.59206         4.13379         8.15572
     2019.59479         6.18052         7.93043
     2019.59753         6.25525         7.99844
     2019.60027         5.00298         8.00552
     2019.60301         7.34871         7.73206
     2019.60574         9.96144         8.22373
     2019.60848         7.37117         8.14296
     2019.61122        -0.96410         7.70797
     2019.61396         2.09363         7.73489
     2019.61670         2.35236         7.68672
     2019.61943         9.24509         7.81707
     2019.62217         3.04882         7.79299
     2019.62491         6.98555         7.76465
     2019.62765         4.87328         7.70372
     2019.63039         8.15002         7.67822
     2019.63312         3.80575         7.65130
     2019.63586         9.34748         8.24073
     2019.63860        12.55821         7.79440
     2019.64134         5.12694         7.76890
     2019.64407        10.06767         7.78024
     2019.64681        -3.93560         7.73206
     2019.64955         0.20813         7.57053
     2019.65229         8.20486         7.57903
     2019.65503         3.31659         7.70514
     2019.65776        -3.03268         7.90917
     2019.66050         6.08705         7.71931
     2019.66324        -3.88922         7.66972
     2019.66598        -0.33849         7.76040
     2019.66872         5.89824         7.61021
     2019.67145         1.12297         7.67255
     2019.67408         1.36080         7.92476
     2019.67800        13.80454        17.90403
     2019.67967         9.22516         7.82983
     2019.68240         4.71089         7.73631
     2019.68514         5.37862         7.78590
     2019.68788        17.67335         7.97860
     2019.69062         7.17908         7.78307
     2019.69336        -0.72019         7.55778
     2019.69609         1.69654         7.69947
     2019.69883        -0.52873         7.76323
     2019.70157         1.13800         7.62438
     2019.70431        19.12173         7.84258
     2019.70705        10.99246         7.65696
     2019.70978        11.53620         7.87800
     2019.71252        19.42593         7.71364
     2019.71526         2.39066         7.49685
     2019.71800         4.50839         7.83691
     2019.72073         1.47312         7.85391
     2019.72347         3.85485         7.63004
     2019.72621        -0.23142         7.60737
     2019.72895         8.62431         7.75048
     2019.73169         5.34104         7.68247
     2019.73442         7.58077         7.67397
     2019.73716         2.96850         7.66830
     2019.73990        11.42723         7.80149
     2019.74264         6.09296         7.70089
     2019.74538        -1.12231         7.56628
     2019.74811         1.88042         7.71364
     2019.75085         3.67915         7.70231
     2019.75359         2.19488         8.09479
     2019.75633         3.42061         7.80574
     2019.75906        -3.17966         7.55920
     2019.76180        -0.63993         7.49685
     2019.76454        -4.54320         7.64846
     2019.76728         4.54153         7.94743
     2019.77002         0.82926         7.72214
     2019.77275         1.69299         7.90209
     2019.77549         1.72372         7.67538
     2019.77823         1.37645         7.62154
     2019.78097         1.78918         7.74906
     2019.78371         3.80991         7.67963
     2019.78644         1.74564         7.83266
     2019.78918        12.23238         8.10046
     2019.79192        25.36711         7.89075
     2019.79466        29.78884         7.99844
     2019.79739        21.84957         7.99277
     2019.80013        14.64030         7.80857
     2019.80287        -4.27097         7.92334
     2019.80561         7.90076         8.72531
     2019.80835        -1.00451         7.67397
     2019.81108        -1.21778         7.70797
     2019.81382         1.61595         7.94318
     2019.81656        -2.61632         7.66547
     2019.81930         0.14241         7.65555
     2019.82203         2.30314         7.69097
     2019.82477         2.70887         7.75756
     2019.82751         1.59860         7.72498
     2019.83025        -4.55467         7.82558
     2019.83299         1.83606         7.80149
     2019.83572        -4.35421         7.70514
     2019.83846         6.29752         7.78165
     2019.84120         3.83325         7.66830
     2019.84394         3.08098         7.97577
     2019.84668        -2.45929         7.65130
     2019.84941         1.97844         7.65130
     2019.85215         2.95617         7.73206
     2019.85489         1.59490         8.11179
     2019.85763         9.12763         7.67397
     2019.86036        -2.82464         7.68814
     2019.86310         4.06409         7.93043
     2019.86584         4.71382         7.85391
     2019.86858         8.42856         7.85817
     2019.87132         3.85929         7.87233
     2019.87405         7.56302         7.68389
     2019.87679         3.37275         8.99594
     2019.87953        12.45748         7.77740
     2019.88227        18.46321         7.79299
     2019.88501         7.32394         7.62438
     2019.88774         2.24167         7.86667
     2019.89048         9.07540         7.64988
     2019.89322        11.48713         7.64563
     2019.89596         0.57286         7.78307
     2019.89869        11.72859         7.67822
     2019.90143        18.84432         7.73206
     2019.90417         8.69305         7.69097
     2019.90691         4.83778         7.67255
     2019.90965         3.74751         7.61162
     2019.91238         4.85824         7.62438
     2019.91512        12.22697         7.75473
     2019.91786        27.16970         7.68105
     2019.92060         5.16843         7.58612
     2019.92607         5.59489         7.63854
     2019.92881         0.10062         7.76890
     2019.93155        19.00735         7.69947
     2019.93429        10.26708         7.64563
     2019.93702        -0.39719         7.61446
     2019.93976         4.72254         7.88225
     2019.94250        18.94227         7.74765
     2019.94524        18.31400         7.90776
     2019.94798        -1.29026         7.70797
     2019.95071         4.32347         8.06078
     2019.95345         1.30020         7.61871
     2019.95619         3.22193         7.63288
     2019.95893        -0.28534         7.66547
     2019.96167        -3.01561         7.69522
     2019.96440         8.82312         7.86950
     2019.96714        14.31385         8.06503
     2019.96988        16.08358         7.64705
     2019.97262         0.77231         7.61446
     2019.97535         3.16904         7.71931
     2019.97809        -2.68023         7.63996
     2019.98083        -0.39850         7.60879
     2019.98357        -7.05177         7.60737
     2019.98631        -2.48604         7.56770
     2019.98904        -5.42231         7.66122
     2019.99178         0.28542         7.73489
     2019.99452        -7.54285         7.70089
     2019.99726        -4.88612         7.81282
     2020.00000        16.51061         7.82558
     2020.00273        -0.87666         7.59745
     2020.00547        -1.77193         7.81991
     2020.00821        -1.20620         8.02253
     2020.01095         4.96353         7.79157
     2020.01368         4.20626         7.87658
     2020.01642         0.13599         7.88792
     2020.01916         4.42672         7.68105
     2020.02190        -2.56055         7.80716
     2020.02464        -2.70182         7.87942
     2020.02737        12.45892         7.76748
     2020.03011        10.35765         7.75898
     2020.03285        -7.20362         7.58754
     2020.03559        -0.61989         7.53794
     2020.03833        -6.44416         7.51244
     2020.04106         1.29357         7.72639
     2020.04380       -10.92770         7.71647
     2020.04654         5.80903         7.52661
     2020.04928       -10.40924         7.64988
     2020.05201        -8.53951         7.51952
     2020.05475         0.13822         7.70231
     2020.05749         0.31795         7.49544
     2020.06023         5.16568         7.54928
     2020.06297         2.36941         7.73631
     2020.06570        -1.61786         7.61304
     2020.06844        -0.35713         7.73064
     2020.07118         3.95160         7.64138
     2020.07392        11.29433         7.72498
     2020.07666         7.21006         7.51527
     2020.07939        -5.75221         7.56061
     2020.08213        -2.48648         7.66263
     2020.08487        -1.53875         7.59462
     2020.08761        -8.83702         7.53228
     2020.09034        -1.40429         7.53936
     2020.09308        -4.67956         7.47135
     2020.09582        -4.31783         7.52094
     2020.09856        -3.17710         7.53936
     2020.10130        -7.40837         7.51811
     2020.10403        -3.22664         7.59604
     2020.10677        -9.90591         7.48268
     2020.10951       -11.91917         7.52803
     2020.11225        -8.67844         7.47985
     2020.11498        -7.51871         7.46710
     2020.11772        -5.43498         7.81566
     2020.12046        -6.98525         7.72923
     2020.12320        -1.99952         7.46143
     2020.12594        -5.35479         7.55070
     2020.12867        -9.55206         7.54928
     2020.13141        -8.38033         7.62579
     2020.13415        -9.20560         7.46001
     2020.13689        -5.51787         7.62012
     2020.13963        -5.26014         7.64138
     2020.14236        -7.34841         7.54645
     2020.14510         3.67932         7.73489
     2020.14784        -6.30395         7.50961
     2020.15040        -6.13507         8.06787
     2020.15332       -10.14249         7.51102
     2020.15605       -11.03276         7.50677
     2020.15879        -0.94403         7.56912
     2020.16153         5.73270         7.69522
     2020.16427         0.65143         7.61162
     2020.16700         0.96316         7.53653
     2020.16974        -1.36011         7.50677
     2020.17248        -3.46038         7.53653
     2020.17522        -2.81465         7.54078
     2020.17796         4.64108         7.54645
     2020.18069         0.90981         7.56345
     2020.18343        -1.83246         7.46001
     2020.18617        -5.25673         7.50677
     2020.18891        -4.95499         7.61729
     2020.19164        -6.54526         7.63288
     2020.19438        -7.59353         7.59179
     2020.19712        -4.60580         7.62154
     2020.19986         3.77193         7.91626
     2020.20260        -4.82434         7.68955
     2020.20533        -4.19061         7.66263
     2020.20807        -3.49888         7.58329
     2020.21081        -6.92815         7.64421
     2020.21355        -2.93842         8.39942
     2020.21629         0.85731         8.01544
     2020.21902        -5.55196         7.77032
     2020.22176        -0.75623         7.58895
     2020.22450         0.17450         7.65413
     2020.22724         4.75823         7.56912
     2020.22997         0.19496         7.62721
     2020.23271         0.91169         7.68247
     2020.23545         2.72142         7.62012
     2020.23819         0.35715         7.60170
     2020.24093         4.62988         7.68247
     2020.24366         6.76361         7.67113
     2020.24640        10.05334         7.68389
     2020.24914        -1.82193         7.67397
     2020.25188        -4.04420         7.55778
     2020.25462        -7.99047         7.56628
     2020.25735         1.74426         7.64138
     2020.26009        12.51899         7.58895
     2020.26283         2.10572         7.64421
     2020.26557        -4.53355         7.57762
     2020.26830        -7.22981         9.85459
     2020.27104         3.53892         7.58895
     2020.27378        -1.32935         7.62438
     2020.27652         0.34038         7.59887
     2020.27926        -2.67589         7.89500
     2020.28199        -3.67016         7.75473
     2020.28473        -3.52043         7.59179
     2020.28747        -2.97770         7.61021
     2020.29021        -1.68997         7.64846
     2020.29295        -2.41524         7.63429
     2020.29568         2.83549         7.67397
     2020.29842         5.29322         7.68105
     2020.30116         5.65895         7.62296
     2020.30390         1.50968         7.66830
     2020.30663         9.49441         7.72214
     2020.30937        -1.83186         8.05795
     2020.31211        -2.85813         7.92051
     2020.31485         3.76360         7.95877
     2020.31759         1.03233         7.57478
     2020.32032        -1.74794         7.60879
     2020.32306         3.42279         7.59887
     2020.32580        -1.21848         7.65130
     2020.32854         2.74825         7.65980
     2020.33128        -0.75002         7.51102
     2020.33401        11.79071         7.62296
     2020.33675        10.80344         7.71789
     2020.33949         1.14117         7.68672
     2020.34223        -4.23910         7.81707
     2020.34496         4.77563         7.89500
     2020.34770        -2.50463         7.83833
     2020.35044         0.90810         7.65696
     2020.35318        -1.25617         7.67963
     2020.35592        -2.53044         7.73064
     2020.35865         4.88029         7.81707
     2020.36139         1.68502         7.66263
     2020.36413         4.47175         7.64988
     2020.36687        14.61648         7.66972
     2020.36961        12.66421         7.81991
     2020.37234         2.72094         7.75048
     2020.37508        23.45967         7.71647
     2020.37782         8.35340         7.59745
     2020.38056         0.25113         7.52236
     2020.38329        -7.74214         7.58329
     2020.38603        -2.76241         7.62154
     2020.38877         0.37332         7.95310
     2020.39151        -1.56595         7.49119
     2020.39425        -2.77822         7.49544
     2020.39698        -3.01249         7.48977
     2020.39972        -6.28376         7.61446
     2020.40246        -4.99103         7.54645
     2020.40520        -0.05130         7.77457
     2020.40794         1.01843         7.58329
     2020.41067        -0.60084         7.62154
     2020.41341        13.65789         7.58895
     2020.41615        -5.90438         7.61871
     2020.41889        -3.07865         7.84683
     2020.42162        -3.28592         7.62438
     2020.42436        -3.98619        12.28883
     2020.42710         1.54055         8.06362
     2020.42984         6.79128         7.77740
     2020.43258         0.20001         7.82416
     2020.43531        -6.98426         7.69380
     2020.43805        13.17447         7.80857
     2020.44079        -4.70480         7.74056
     2020.44353         4.47393         7.82274
     2020.44626         0.76566         7.63996
     2020.44900         4.87739         7.67397
     2020.45174        -0.12988         7.69239
     2020.45448        12.61885         7.66263
     2020.45722         5.75758         7.54503
     2020.45995        -0.80569         7.54361
     2020.46269        -5.48096         7.52236
     2020.46543         3.09377         7.57620
     2020.46817         7.42550         7.66122
     2020.47091         8.66623         7.59320
     2020.47364        -0.28604         7.45576
     2020.47638        -0.87831         7.50536
     2020.47912         4.19342         7.67538
     2020.48186         1.78715         7.56912
     2020.48459        -2.53212         7.84966
     2020.48733         3.80461         8.13305
     2020.49007         1.51534         7.65838
     2020.49281        -2.34693         7.72498
     2020.49555        -3.62420         7.94885
     2020.49828         1.44653         7.51527
     2020.50102        -1.35974         7.87375
     2020.50376         0.14999         7.57337
     2020.50650        -5.10827         7.53086
     2020.50924        -0.50254         7.54503
     2020.51197         0.17919         7.48977
     2020.51471        -4.32708         7.58045
     2020.51745         3.05465         7.78590
     2020.52019         5.96038         8.46744
     2020.52292         2.55911         7.79724
     2020.52566         3.91284         7.79015
     2020.52840         4.24257         7.68389
     2020.53114        -0.74870         7.72781
     2020.53388        -4.47297         7.72214
     2020.53661         3.07276         7.80007
     2020.53935        -1.94851         7.83833
     2020.54209         7.26922         7.76607
     2020.54483        -1.50705         7.70514
     2020.54757         5.71368         7.75190
     2020.55030         1.33841         7.74623
     2020.55304         3.33614         7.77315
     2020.55578         4.49587         8.18830
     2020.55852        10.61660         7.94885
     2020.56125         7.73533         7.89926
     2020.56399        -0.29194         7.62863
     2020.56673         0.97079         7.73489
     2020.56947         7.14252         7.74906
     2020.57221         6.97225         8.02678
     2020.57494         5.83598         7.69380
     2020.57768         4.13471         7.83408
     2020.58042        -3.57856         7.79299
     2020.58316         7.31917         8.08062
     2020.58590        -1.96909         7.83691
     2020.58863        -0.63036         7.83408
     2020.59137         2.42437         7.76890
     2020.59411         7.43610         7.73773
     2020.59685         2.85783         8.33991
     2020.59958         3.24156         7.90492
     2020.60232         4.90429         7.72781
     2020.60506         6.94602         7.82274
     2020.60780         2.69875         7.80999
     2020.61054         4.99648         7.81707
     2020.61327         3.93421         7.96018
     2020.61601         1.03894         7.69947
     2020.61875        -1.56133         7.63996
     2020.62149         5.44240         7.91909
     2020.62423         4.73913         7.81424
     2020.62696         7.27686         7.85533
     2020.62970         3.23559         7.87942
     2020.63244         2.01332         7.72214
     2020.63518         8.21705         8.14296
     2020.63791        13.78578         8.18122
     2020.64065         5.39851         7.81991
     2020.64339         1.99124         7.63004
     2020.64613         6.00397         7.75473
     2020.64887         5.37570         7.90492
     2020.65160         3.84643         7.73489
     2020.65434         4.39516         7.79866
     2020.65708         8.75089         7.78590
     2020.65982         8.94662         8.04661
     2020.66256        -2.60465         7.80716
     2020.66529         4.30309         7.90776
     2020.66803         8.42882         7.83124
     2020.67078         3.70153         7.82699
     2020.67351         6.48828         7.74906
     2020.67624         5.81001         7.75048
     2020.67898         2.50774         7.68955
     2020.68172         2.88547         7.76040
     2020.68446         3.82620         7.87800
     2020.68720         2.31893         7.69805
     2020.68993         9.37766         7.78165
     2020.69267         4.81939         7.84258
     2020.69541         5.50512         8.07495
     2020.69815         3.94585         7.79724
     2020.70089         4.95658         7.66688
     2020.70362        -1.62069         7.93468
     2020.70636        -2.38396         8.33991
     2020.70910        -1.75323         8.10187
     2020.71184         7.56350         7.93468
     2020.71457        16.41923         8.05086
     2020.71731        17.19596         8.09762
     2020.72005        -0.98331         7.94601
     2020.72279        -1.13958         7.74340
     2020.72553        13.17815         7.94743
     2020.72826         7.64388         8.35408
     2020.73100        25.24761         8.17272
     2020.73374        15.79834         8.00411
     2020.73648        13.32807         7.90776
     2020.73921        -1.85820         7.89784
     2020.74195         6.93053         9.45644
     2020.74469         5.44127         7.72498
     2020.74743         2.08700         7.76890
     2020.75017         1.70873         7.74765
     2020.75290         0.51146         7.75756
     2020.75564         1.95019         7.74906
     2020.75838         7.38392         7.67680
     2020.76112         2.48865         7.71364
     2020.76386         6.45038         7.61021
     2020.76659         8.28411         7.65413
     2020.76933         6.96884         7.80857
     2020.77207         7.32857         7.63288
     2020.77481        13.31930         7.95451
     2020.77754        11.61803         7.74340
     2020.78028        18.27476         8.01686
     2020.78302         0.92249         8.21664
     2020.78576        12.83822         7.93751
     2020.78850        -1.31705         7.72923
     2020.79123        -1.89032         7.81282
     2020.79397        -0.22759         7.84116
     2020.79671         2.57214         7.70656
     2020.79945         2.99587         7.77740
     2020.80219         1.54260         7.91626
     2020.80492        -0.69267         7.76040
     2020.80766         0.34606         7.75615
     2020.81040         3.29379         7.80432
     2020.81314         2.76452         7.67963
     2020.81587        -2.36075         7.69664
     2020.81861        -1.23802         7.70231
     2020.82135        -0.01729         7.67397
     2020.82409         2.52645         7.71081
     2020.82683         3.09018         7.73773
     2020.82956        10.79791         8.11179
     2020.83230         5.38864         7.92051
     2020.83504         4.31937         7.80857
     2020.83778         5.03210         7.62012
     2020.84052        13.50983         8.33991
     2020.84325        16.96656         8.03103
     2020.84599         9.11529         8.39801
     2020.84873        35.63202         7.91909
     2020.85147        26.56575         7.75190
     2020.85420        10.49948         7.61871
     2020.85694        10.49921         7.74198
     2020.85968        17.11794         7.88367
     2020.86242        29.51367         7.92193
     2020.86516         9.81740         7.93326
     2020.86789        26.97013         8.05228
     2020.87063        29.06486         7.91201
     2020.87337        32.59959         7.97293
     2020.87611        22.44432         8.25207
     2020.87885        33.13505         8.11179
     2020.88158        25.54078         7.98285
     2020.88432        23.35751         7.77032
     2020.88706        20.74524         8.17839
     2020.88980         3.03497         7.89642
     2020.90349         8.10063         7.82274
     2020.90622         1.59536         7.88934
     2020.90896         6.68609         8.04378
     2020.91170        10.39782         8.17555
     2020.91444         9.04455         8.00269
     2020.91718        -5.65572         7.73489
     2020.91991        -1.94199         7.84966
     2020.92265        -0.64826         8.07637
     2020.92539        -8.61553         7.79015
     2020.92813        -6.22180         7.71931
     2020.93086        -3.26707         7.71931
     2020.93360         2.42366         7.89500
     2020.93634        -6.38861         7.91768
     2020.93908         2.76712         7.84258
     2020.94182        -2.88115         7.82274
     2020.94455        15.43758         7.83408
     2020.94729        11.71231         7.78590
     2020.95003         7.82104         8.00269
     2020.96087         9.36006         8.29316
     2021.27583        -0.55905         7.72356
     2021.27857        -5.50432         7.74623
     2021.28131        -3.82959         7.67113
     2021.28405        -3.32086         7.76040
     2021.28679        -0.33513         7.75756
     2021.28952         3.61360         7.90634
     2021.29226        -3.52167         7.82133
     2021.29500         4.94006         7.72781
     2021.29774        -0.52221         7.88792
     2021.30047         1.85053         7.79299
     2021.30321         8.34526         7.80007
     2021.30595        10.87299         8.03386
     2021.30869         3.91672         8.04520
     2021.31143        12.10445         7.76040
     2021.31416        10.15118         7.64280
     2021.31690         4.56091         7.65271
     2021.31964         4.00464         7.87375
     2021.32238        -1.19563         7.93184
     2021.32512        -4.11490         7.94885
     2021.32785        -4.26917         7.78874
     2021.33059        -1.35744         7.84400
     2021.33333         4.62629         7.62012
     2021.33607        -5.38698         7.63004
     2021.33880         0.61675         7.77457
     2021.34154        -0.47452         7.56770
     2021.34428        -8.65379         8.27332
     2021.34702       -13.78106         7.68814
     2021.34976        -5.70533         7.67680
     2021.35249        -4.74760         7.62721
     2021.35523        -3.12987         7.72639
     2021.35797       -11.28314         7.61446
     2021.36071        -9.89541         7.83266
     2021.36344        -6.70868         7.60312
     2021.36618       -10.24095         7.62012
     2021.36892        -4.00122         7.72639
     2021.37166        -5.78949         7.88084
     2021.37440        -3.62476         7.67538
     2021.37713        -7.30403         7.71931
     2021.37987        -5.14529         7.90209
     2021.38261        -6.82956         8.02536
     2021.38535        -2.81083         7.90067
     2021.38809        -9.43210         7.86100
     2021.39082         0.29663         8.01119
     2021.39356         2.24436         7.86100
     2021.39630         0.47109         7.70089
     2021.39904        -2.25918         7.64421
     2021.40177         2.05755         8.06220
     2021.40451        -5.57472         7.79724
     2021.40725        -4.21999         7.68389
     2021.40999         3.97474         7.64846
     2021.41273        -3.10453         7.68389
     2021.41546        -3.10180         7.72214
     2021.41820        -9.85607         7.79440
     2021.42094         0.41166         7.81566
     2021.42368        -1.04461         7.91768
     2021.42642         0.65012         7.85250
     2021.42915         1.51185         7.64846
     2021.43189        -0.93842         7.69805
     2021.43463        -6.89269         7.63004
     2021.43737        -7.66496         7.62438
     2021.44010        -6.25623         7.82416
     2021.44284        -6.68850         8.00269
     2021.44558        -4.32877         7.75331
     2021.44832        17.71996         7.96727
     2021.45106        17.45769         7.95451
     2021.45379         1.76242         7.98427
     2021.45653        -5.83385         7.74198
     2021.45927         5.31489         7.62863
     2021.46201        -2.55538         7.57053
     2021.46475        -2.35865         7.67822
     2021.46748         0.96808         7.63429
     2021.47022         0.79081         7.97293
     2021.47296         4.17354         7.75473
     2021.47570        -0.85573         7.77457
     2021.47843        -1.66500         8.11463
     2021.48117        -1.93327         7.78165
     2021.48391        -5.05654         7.66830
     2021.48665        -6.78681         7.76182
     2021.48939        -3.73008         7.80716
     2021.49760        -3.91689         7.99277
     2021.50034        -0.37916         7.92476
     2021.50308        -3.30243         7.81707
     2021.50581        -8.20370         7.74340
     2021.50855        -6.07197         7.85108
     2021.51129         0.43076         7.70514
     2021.51403        -1.89951         7.79724
     2021.51676        -1.74278         7.95168
     2021.51950        -1.21305         7.87800
     2021.52224        -4.74232         7.76465
     2021.52772        -1.26086         7.66547
     2021.54141        -0.93720         8.01119
     2021.54414       -11.29547         7.85817
     2021.54688       -12.43074         7.96443
     2021.55236        -2.10228         7.92759
     2021.55509        -3.51555         7.88509
     2021.55783       -10.31982         7.98427
     2021.56057        -3.33909         7.62863
     2021.56331         0.83264         7.72639
     2021.56605        -0.49463         7.72639
     2021.56878        -2.46790         7.84966
     2021.57152        -5.68217         7.84116
     2021.57426        -2.58844         8.19539
     2021.57700         1.63229         7.88367
     2021.57974        -1.29198         7.80149
     2021.58271        -3.88345         8.53261
     2021.58795        -1.85779         7.74765
     2021.59069        -7.58906         7.80574
     2021.59342        -4.66733         7.84966
     2021.59616        -1.77660         7.98285
     2021.59890         5.97013         7.92901
     2021.60164         0.12186         7.89784
     2021.60438        -3.59341         7.72923
     2021.60711        -1.00368         7.75473
     2021.60985         1.27505         7.80574
     2021.61259        -1.08222         7.79299
     2021.61533        -7.99849         7.71364
     2021.61807        -3.16275         7.73206
     2021.62080        -5.60502         7.72214
     2021.62354         2.75871         7.80716
     2021.62628         0.33344         8.16847
     2021.62902         1.19117         7.74765
     2021.63175        -1.37310         7.94318
     2021.63449        -6.09837         7.71081
     2021.63723         4.90736         8.12171
     2021.63997         1.45109         7.89359
     2021.64271        -3.04818         7.86242
     2021.64544        -2.47645         7.70656
     2021.64818        -3.36472         7.66830
     2021.65092        -3.25099         7.98002
     2021.65366        -2.19326         7.79582
     2021.65639        -5.72953         7.79724
     2021.65913        -3.54380         7.91909
     2021.66187         1.32193         7.68530
     2021.66461        -2.64534         7.70656
     2021.66735         1.61639         7.64846
     2021.67008         0.50412         7.85675
     2021.67282         0.97385         8.07353
     2021.67556        -0.79142         8.15430
     2021.67830        -5.55769         7.99419
     2021.68104         5.87304         7.85250
     2021.68377         5.66077         7.74906
     2021.68651        -0.04150         8.17839
     2021.68919         7.64528         7.85250
     2021.69199        -0.39304         7.69664
     2021.69472         5.18969         7.79724
     2021.69746        -1.78757         7.73914
     2021.70020        -0.47684         7.71222
     2021.70294         1.53289         7.80574
     2021.70568        -0.60338         7.89075
     2021.70841         3.13935         7.69239
     2021.71115         7.12708         7.77882
     2021.71389        11.91681         8.12879
     2021.71663        13.05254         7.88650
     2021.71937        -0.87973         7.76607
     2021.72210        -3.50600         7.64705
     2021.72484        -4.39727         7.81707
     2021.72758        -4.12554         7.77173
     2021.73032        -4.45681         8.13730
     2021.73305         5.98992         7.78732
     2021.73579        10.51865         7.75331
     2021.73853        12.90438         8.38667
     2021.74127        18.95311         7.83691
     2021.74401        -3.88216         7.83691
     2021.74674         0.95357         8.08204
     2021.74948         2.18130         7.80007
     2021.75222         1.89603         7.79157
     2021.75496         1.01476         7.92476
     2021.75770         0.12549         7.83408
     2021.76043         1.39422         8.20389
     2021.76317        -0.36105         7.86667
     2021.76591         5.04768         7.78874
     2021.76865        -0.55659         7.71789
     2021.77138        -3.05486         7.70797
     2021.77412         7.39787         8.25915
     2021.77686         0.21160         7.77457
     2021.77960        11.13034         7.78165
     2021.78234        12.42207         7.84116
     2021.78507        14.73680         7.75048
     2021.78781         3.35653         7.76748
     2021.79055         0.27126         7.76748
     2021.79329         4.25599         7.81566
     2021.79603         6.16872         7.70372
     2021.79876         2.27845         7.65980
     2021.80150        15.06418         7.98285
     2021.80424        11.26491         8.11321
     2021.80698        12.26264         8.34700
     2021.80971        12.95937         7.95735
     2021.81245        30.87110         8.24923
     2021.81519        10.92883         7.66830
     2021.81793        20.60556         7.87233
     2021.82067         8.60929         8.02253
     2021.82335        23.53707         8.60487
     2021.82614        25.29175         8.17414
     2021.82888         5.28948         7.95593
     2021.83162         3.62121         7.78732
     2021.83436         9.82594         8.01402
     2021.83709        16.42267         8.04095
     2021.83983        22.74140         8.12738
     2021.84257        11.48613         8.48869
     2021.84531         0.36686         7.88367
     2021.84804         4.87559         7.94601
     2021.85078         8.57432         7.98427
     2021.85352        10.96105         7.89359
     2021.85626         9.65478         7.86525
     2021.85900         6.38252         7.95877
     2021.86173        19.31625         8.21948
     2021.86447        21.94898         8.16705
     2021.86721        19.08371         8.47452
     2021.86995        10.04744         8.03103
     2021.87269        14.46917         8.28607
     2021.87542         5.32090         7.91484
     2021.87816         6.39563         9.17164
     2021.88090        -1.29064         7.98002
     2021.88364         9.64009         7.93184
     2021.88637       -12.81018         7.68955
     2021.88911        -8.44845         7.71647
     2021.89185       -11.92872         7.99419
     2021.89459         5.31001         8.03386
     2021.89733        -2.76826         7.72923
     2021.90006       -11.20453         7.80149
     2021.90280         8.96920         7.95593
     2021.90554         0.75593         7.90351
     2021.90828        11.38966         7.99986
     2021.91102         7.16239         7.97719
     2021.91364        -3.32278         8.26482
     2021.91649        -8.15315         7.74198
     2021.91923        -0.33642         8.20106
     2021.92197        -8.64369         8.30024
     2021.92470        -7.71396         8.06503
     2021.92744        -3.43723         8.04520
     2021.93018         2.25450         8.00269
     2021.93292        20.49823         8.22231
     2021.93566        10.13196         8.54111
     2021.93839         9.28570         8.18547
     2021.94113        19.23543         8.32008
     2021.94387        25.07216         8.22514
     2021.94661        12.40189         7.98569
     2021.94935        21.26062         8.04236
     2021.95208         8.50235         8.29457
     2021.95756        17.14881         8.22656
     2021.96030        -4.14846         8.01686
     2021.96303         1.88927         8.16988
     2021.96577        -2.50600         8.63463
     2021.96851         9.09073         8.31016
     2021.97125        10.30546         8.32149
     2021.97399        19.39219         8.25915
     2021.97672        17.81992         8.11321
     2021.97946        16.32665         8.16138
     2021.98220        12.61738         8.26482
     2021.98494         8.56311         8.14155
     2021.98767        -0.57216         8.08629
     2021.99041         4.75557         7.86950
     2021.99315         7.81730         7.88650
     2021.99589        13.37003         8.51278
     2021.99863         5.34776         7.97010
     2022.00136        -1.56051         8.05512
     2022.00410        -5.32678         7.93893
     2022.00684         3.49395         8.11604
     2022.00958         4.20068         8.01402
     2022.01232        -6.55759         8.01261
     2022.01505         9.93814         8.17555
     2022.01779         7.20388         8.07212
     2022.02053        -8.50739         7.94601
     2022.02327       -11.05066         8.42776
     2022.02600       -15.80893         8.21097
     2022.02874        -7.65620         8.10896
     2022.03148       -16.14247         8.09762
     2022.03422        -4.07874         8.15713
     2022.03696       -11.26501         7.98852
     2022.03969       -19.16928         7.86525
     2022.04243       -10.07155         7.89359
     2022.04517        -9.15182         7.89075
     2022.04791        -5.24509         7.99986
     2022.05065        -1.19836         7.90492
     2022.05338        11.34137         8.18547
     2022.05612       -19.41290         7.89500
     2022.05886       -20.88217         7.94176
     2022.06160       -16.16444         8.00694
     2022.06433       -11.54171         7.91909
     2022.06707       -15.65598         7.86383
     2022.06981        -5.79025         7.88225
     2022.07255       -14.98152         7.99135
     2022.07529        -9.84879         7.85675
     2022.07802       -10.84606         7.80007
     2022.08076        -8.42033         7.88934
     2022.08350        -5.00560         7.91768
     2022.08624        -7.60687         7.78307
     2022.08898         0.41586         7.90917
     2022.09171        -3.80841         7.92476
     2022.09445       -18.24168         7.93326
     2022.09719       -11.31594         7.76748
     2022.09993       -11.21821         7.99844
     2022.10266       -11.39648         8.43910
     2022.10540       -10.82575         7.95451
     2022.10814        -4.35402         7.90351
     2022.11088        -5.55829         7.80574
     2022.11362        -3.36956         7.78449
     2022.11635        -2.76683         7.71647
     2022.11909        -5.26610         7.79440
     2022.12183         0.26463         7.97152
     2022.12457        -3.01764         7.99277
     2022.12731        -6.94691         7.73206
     2022.13004       -11.62118         8.01402
     2022.13278        -8.68545         7.77457
     2022.13552        -9.44672         7.81707
     2022.13826        -3.61599         7.67963
     2022.14099        -1.34626         7.82983
     2022.14373       -11.57453         7.70939
     2022.14647        -6.13980         7.72356
     2022.14921        -8.00507         8.34558
     2022.15195       -10.38734         8.03811
     2022.15468        -4.69261         7.86242
     2022.15742        14.60012         7.95310
     2022.16016        17.38585         8.01969
     2022.16290         6.70258         7.91768
     2022.16564         7.39131         7.84541
     2022.16837         1.41704         8.11179
     2022.17111        -6.19323         7.74481
     2022.17385        -4.70150         7.76607
     2022.17659        -4.33476         7.72356
     2022.17932       -10.23003         8.00694
     2022.18206       -11.06130         7.75331
     2022.18480        -6.14857         7.75048
     2022.18754        -5.89484         7.88934
     2022.19028        -8.35011         7.87092
     2022.19301        -4.15438         7.84541
     2022.19575        12.14235         7.87942
     2022.19849         0.41608         7.78732
     2022.20123         5.25481         7.91059
     2022.20397         0.67754         7.77032
     2022.20670        -5.62773         7.98710
     2022.20944        -3.31900         7.87658
     2022.21218         6.33873         8.05653
     2022.21492       -10.45454         7.79582
     2022.21765        -3.32081         7.84400
     2022.22039       -11.54808         7.83549
     2022.22313         0.85865         8.02678
     2022.22587        -8.68062         8.00977
     2022.22861        -2.08889         7.98427
     2022.23134         1.12784         7.84683
     2022.23408         0.10457         7.80999
     2022.23682         0.62030         8.16422
     2022.23956        -3.54297         7.73348
     2022.24230        -8.86824         7.85108
     2022.24503        -2.80651         7.82416
     2022.24777         0.45522         7.90776
     2022.25051       -10.10805         7.93326
     2022.25325        -2.73932         7.80574
     2022.25598        13.91242         8.41076
     2022.25872        -2.59185         7.99419
     2022.26146        -8.34512         7.81566
     2022.26420        -2.64339         7.86667
     2022.26694        -6.45266         8.22231
     2022.26967        -6.39193         7.80007
     2022.27241         0.88580         7.85250
     2022.27515        -8.07647         8.16422
     2022.27789         3.85326         7.98710
     2022.28062         2.24699         7.82983
     2022.28336        -2.45128         7.78732
     2022.28610        -3.06955         8.05795
     2022.28884        -8.62582         7.94601
     2022.29158        -9.46609         7.80574
     2022.29431        -0.54936         7.99561
     2022.29705         1.96437         7.84683
     2022.29979        12.95210         8.26482
     2022.30253         8.80583         8.19681
     2022.30527         5.39456         7.97293
     2022.30800        -1.08971         7.79582
     2022.31074        -3.76198         7.84258
     2022.31348         0.59075         7.87658
     2022.31622        -5.99352         7.78165
     2022.31895       -24.32079         7.95593
     2022.32181        -5.24915        10.10680
     2022.32443         8.53867         7.80574
     2022.32717         1.11540         8.00977
     2022.32991        -0.25287         7.82133
     2022.33264        -1.62614         8.48160
     2022.33538        -1.70340         8.01969
     2022.33812        -5.02167         8.03244
     2022.34086         2.92206         7.98710
     2022.34360         1.06079         7.90492
     2022.34633        -0.01948         7.80857
     2022.34907        -5.86475         7.82699
     2022.35181         2.35198         7.76040
     2022.35455        -4.27929         7.79157
     2022.35728        -4.56356         7.74340
     2022.36002         1.04817         7.79015
     2022.36276        -8.88710         7.75756
     2022.36550         8.23663         7.85817
     2022.36824        -1.96464         7.99986
     2022.37097        -4.78591         7.80999
     2022.37371       -10.33718         7.75331
     2022.37645        -4.87945         7.87092
     2022.37919        -8.26272         8.04803
     2022.38193       -14.36399         7.96018
     2022.38466       -12.89026         7.74198
     2022.38746       -31.55458         8.54536
     2022.39014        -6.80380         7.76465
     2022.39288       -10.57007         7.77315
     2022.39561       -11.95534         7.86383
     2022.39835        -6.67861         7.94035
     2022.40109        -6.31988         8.05228
     2022.40383         1.98485         7.86525
     2022.40657         8.51658         7.75048
     2022.40930       -13.71469         8.12454
     2022.41204        -3.73596         7.88509
     2022.41478        -5.76822         7.76040
     2022.41752         0.09451         8.05370
     2022.42026        -2.19676         8.09479
     2022.42299         2.82397         7.83833
     2022.42573        12.62070         7.95877
     2022.42847        -2.60957         7.83408
     2022.43121        -1.74584         7.95026
     2022.43394        -0.45511         8.16422
     2022.43668       -11.36538         7.94601
     2022.43942         8.95435         7.93751
     2022.44216        15.84608         7.91626
     2022.44490         1.42381         7.96868
     2022.44763        -0.78446         7.70089
     2022.45037       -10.05073         7.73064
     2022.45311        -8.56500         7.71789
     2022.45585        -5.81327         7.86100
     2022.45859       -17.58454         7.78732
     2022.46132       -10.19681         7.80574
     2022.46406       -11.38908         7.78732
     2022.46680       -10.85735         7.63854
     2022.46954        -8.31262         7.70514
     2022.47227       -18.13989         7.84541
     2022.47501        -4.84316         7.81282
     2022.47775        -6.19543         7.96585
     2022.48049        -7.55070         7.65838
     2022.48323         5.34103         7.71081
     2022.48596         4.07776         8.26340
     2022.48870        -5.55751         7.82841
     2022.49144        -7.31978         7.73914
     2022.49418        -4.25004         8.17697
     2022.49692        -5.81631         7.67397
     2022.49965       -16.64658         7.81991
     2022.50239       -23.24285         7.72923
     2022.50513        -7.89512         8.16422
     2022.50787         6.81961         8.29174
     2022.51060        -6.06966         8.05086
     2022.51334        -5.79293         7.75331
     2022.51608        -8.96520         7.69947
     2022.51882       -11.84947         7.82274
     2022.52156        -2.78074         7.79440
     2022.52429        -0.72501         7.72498
     2022.52703         0.51472         7.76040
     2022.52977         4.53445         7.75473
     2022.53251        -6.11682         7.77598
     2022.53525        -6.67009         7.85675
     2022.53798        -5.78236         7.84683
     2022.54072        -6.54663         7.61871
     2022.54346        -9.57690         7.62863
     2022.54620       -10.51517         7.71506
     2022.54893        -4.78044         7.75048
     2022.55167         1.84529         7.73914
     2022.55441        -1.32598         7.64846
     2022.55715         1.33575         7.66122
     2022.55989       -10.12952         7.67255
     2022.56262        -4.87079         7.70656
     2022.56536       -11.58806         7.82983
     2022.56810        -1.10133         7.65696
     2022.57084        -5.42160         8.00269
     2022.57357         2.45214         7.86100
     2022.57631        -7.14913         7.76465
     2022.57905        -7.65840         7.70939
     2022.58179         2.75033         7.99844
     2022.58453         1.35206         8.33566
     2022.58726        -6.99621         7.80857
     2022.59000         6.62252         8.18405
     2022.59274        -5.96375         7.63288
     2022.59548        -1.75702         7.62296
     2022.59816       -10.51124         7.84541
     2022.60095       -14.78856         7.94601
     2022.60369        -5.61183         7.76465
     2022.60643        -0.56010         7.89642
     2022.60917        -1.42037         7.86383
     2022.61185         6.55141         8.19822
     2022.61464         3.45009         7.61162
     2022.61738         4.83182         7.63146
     2022.62012        -3.00745         7.62296
     2022.62286         0.60028         7.74623
     2022.62559        -1.64599         7.70797
     2022.62833         0.95374         7.70514
     2022.63107         0.00147         7.70514
     2022.63381         6.06420         7.63854
     2022.63655         2.69493         7.70656
     2022.63928         4.35166         7.68955
     2022.64202        -0.30861         8.19256
     2022.64476         1.97212         8.37959
     2022.64750         3.95585         8.32574
     2022.65023         8.10058         7.80432
     2022.65297         5.06432         7.72781
     2022.65571         5.91005         7.79299
     2022.65845         6.71078         7.74906
     2022.66119         8.25251         7.58329
     2022.66392        14.02424         7.84825
     2022.66666         4.40997         7.53936
     2022.66940        10.17370         7.68389
     2022.67214        11.18643         7.58329
     2022.67488         9.90716         7.75615
     2022.67761         5.87189         7.66547
     2022.68035         7.42462         7.58329
     2022.68309        11.87635         7.92759
     2022.68583         4.66108         8.04378
     2022.68856         6.75881         7.77315
     2022.69130         6.32554         7.78732
     2022.69404         9.74827         7.80999
     2022.69678         4.18600         8.10612
     2022.69952         0.55973         7.85817
     2022.70225         9.08646         7.96160
     2022.70499        11.25919         7.90351
     2022.70773         7.39392         7.73206
     2022.71047         4.94365         7.67113
     2022.71321        11.87738         7.68389
     2022.71594        16.82311         7.73206
     2022.71868         8.00784         7.55211
     2022.72142        12.84557         7.96302
     2022.72416         7.48930         7.76182
     2022.72689         9.63703         7.73064
     2022.72963         5.87376         7.77032
     2022.73237         9.21750         7.52236
     2022.73511         5.86523         7.77457
     2022.73785         4.71496         7.60170
     2022.74058        18.56669         8.77632
     2022.74332        23.65142         8.36683
     2022.74606        13.24115         7.68955
     2022.74880         8.45588         7.54645
