# ================= DQRFIT RESULTS ================
# INPUT FILE: series/JUNI.rad
# OUTPUT: LDETRENDED
# FILTER FUNCTION: f(t)
# f(t)=+line(t)+annual(t)
# line(t)=+P 1+P 2*t
# annual(t)=+P 3*sin(2*pi*t+P 4)
# heav(t)=(t<0?0:1)
# TOTAL OBSERVATIONS MTOT=  767
# INITIAL TIME INTERVAL= 2018.3515 - 2004.7885 = 13.5630
# TOTAL OBSERVATIONS AFTER PREFILTER M=  766
# TIME-SPAN= 2018.3515 - 2004.7885 = 13.5630
# OBSERVATIONS: USED M=   766 REJECTED MTOT-M=     1 %USED=   99.8696
# N=  4 PARAMETERS
# MAXSIG= 175.00000
# MAXRES=  19.77713
# SCALE FACTOR FOR LENGTHS: SCL=  10.00000
# SCALE FACTOR FOR SIGMAS: SCLSIG=   1.00000
# CHI^2=    825.749 DOF=   762 CHI^2/DOF=   1.08366
# RMS=      5.952 SDEV=      5.956 MEAN=   -0.00423
#  P #       PARAMETER +-    SIGMA %error PARAMETER NAME
# P 1 =      1241.62421 +-   95.218   7.67 YZERO                              
# P 2 =        -0.61467 +-    0.047   7.70 SLOPE                              
# P 3 =         4.94406 +-    0.313   6.32 ANNUAL AMPLITUDE                   
# P 4 =        -3.12126 +-    0.089   2.86 ANNUAL PHASE                       
#       T            LDETRENDED       SIG_OBS
     2004.78851         3.50442         5.95342
     2004.79124         4.42011         5.85557
     2004.79398         3.08779         6.03046
     2004.79672        -2.78453         6.01172
     2004.79946         6.05515         5.94926
     2004.80220         2.27684         5.96279
     2004.80493         0.93652         5.94197
     2004.80767         8.64820         5.92844
     2004.81041        -3.26411         5.83996
     2004.81315       -14.75943         5.79727
     2004.81588         3.83425         5.84308
     2004.81862         5.40793         6.13456
     2004.82136         6.99762         5.96279
     2004.82410         5.74330         5.85349
     2004.82684         4.47798         5.85869
     2004.82957        10.12867         6.02837
     2005.20740         2.89690         6.13143
     2005.21013         0.56459         6.02629
     2005.21287        -5.58473         6.05232
     2005.21561        -1.39505         6.00443
     2005.21835         0.44063         5.97841
     2005.22109        -4.99668         6.00235
     2005.22382        -3.29600         5.92428
     2005.22656        -5.71332         5.94197
     2005.22930         0.04837         5.94093
     2005.23204        -1.59495         6.01276
     2005.23478        -4.42927         6.23345
     2005.23751         3.96041         6.09396
     2005.24025        10.49810         6.18765
     2005.24299        -0.31822         5.97216
     2005.24573         0.62746         6.11998
     2005.24846        -5.00185         5.93156
     2005.25120        -1.88217         6.00547
     2005.25394         9.51651         6.27301
     2005.25668         5.74319         6.26468
     2005.25942         1.42588         6.09188
     2005.26215         3.96656         6.16995
     2005.26489        10.70524         6.15017
     2005.26763        -1.05607         6.13351
     2005.27037         6.65761         6.11582
     2005.27311        -1.47971         6.08042
     2005.27584         0.91697         6.18765
     2005.27858        -3.21934         6.09500
     2005.28132         3.77134         6.19597
     2005.28406        -2.37598         6.17828
     2005.28679        -2.47829         6.11478
     2005.28953         2.35839         6.00131
     2005.29227         4.81607         6.18140
     2005.29501         3.36075         6.02213
     2005.29775         0.80244         5.91907
     2005.30048        -0.14288         5.96487
     2005.30322        -0.62020         5.97424
     2005.30596         1.85649         5.99298
     2005.30870        -1.60683         6.00027
     2005.31144         3.54685         5.93885
     2005.31417        -1.28247         5.94301
     2005.31691        -3.63778         6.02421
     2005.31965        -0.09910         6.07106
     2005.32239        -0.23142         6.19285
     2005.32512        -2.57873         6.00339
     2005.32786        -7.62105         5.97320
     2005.33060        -3.74537         5.96487
     2005.33334        -0.25168         5.97216
     2005.33608         1.51300         6.16474
     2005.33881        -1.12932         6.00964
     2005.34155        -2.38664         5.98986
     2005.34429        -7.35095         5.91074
     2005.34703        -2.23227         5.93052
     2005.34977        -2.73859         5.97008
     2005.35250        -5.05390         6.18036
     2005.35524         1.27578         6.16474
     2005.35798         0.18946         6.13143
     2005.36072        -3.60186         6.17932
     2005.36345       -10.98517         6.23553
     2005.36619        -4.14949         6.19806
     2005.36893         2.07819         6.32402
     2005.37167        -0.61512         6.22304
     2005.37441         7.17356         6.29695
     2005.37714         4.02324         6.34067
     2005.37988        -7.39208         6.41979
     2005.38262        -2.17839         6.41666
     2005.38536        -1.25071         6.24074
     2005.38810         0.24997         6.11894
     2005.39083        -0.70834         6.20326
     2005.55237         2.69695         6.10333
     2005.55510         6.36463         6.24698
     2005.55784        -0.98169         6.05960
     2005.56058         0.12499         6.12310
     2005.56332         1.73268         6.12415
     2005.56606        -2.12364         6.21055
     2005.56879         5.86304         6.26260
     2005.57153         4.11473         6.30736
     2005.57427        -3.10959         6.38023
     2005.57701        -2.18691         6.15954
     2005.57974       -10.53823         6.31465
     2005.58248         3.26246         6.16058
     2005.58522         9.49214         6.17099
     2005.58796         5.50282         5.98153
     2005.59070        -0.01849         5.96383
     2005.59343        -0.02181         5.98361
     2005.59617         4.16087         5.99819
     2005.59891         2.63855         6.02213
     2005.60165         2.31024         5.97320
     2005.60439        -0.06408         6.05336
     2005.60712        -2.25040         6.02317
     2005.60986         5.40829         6.10437
     2005.61260         2.74697         6.11165
     2005.61534         1.17365         5.95967
     2005.61807         6.27333         5.95551
     2005.62081         1.10402         6.04087
     2005.62355         0.40870         6.15433
     2005.62629         3.82938         6.05752
     2005.62903        13.03607         6.19285
     2005.63176         9.19275         6.05440
     2005.63450         4.18443         6.02317
     2005.63724         7.73511         6.02629
     2005.63998         6.09180         5.96487
     2005.95209       -11.70635         6.00027
     2005.95483        -9.14467         6.03358
     2005.95757        -3.50899         5.94405
     2005.96031        -1.07231         5.89721
     2005.96304        -7.39162         5.84828
     2005.96852       -15.24326         6.15329
     2005.97126       -14.90957         6.19389
     2005.97400        -0.83789         6.10228
     2005.97673       -11.31121         6.03566
     2005.97947       -13.11753         5.97424
     2005.98221        -8.83784         5.98569
     2005.98495         5.98384         5.98569
     2005.98768        -0.89148         6.09604
     2005.99042         1.74521         6.13039
     2005.99316        -2.73711         6.03358
     2005.99590        -4.44843         6.07001
     2006.66667        -3.02612         6.99233
     2006.66947        -8.17241         7.59506
     2006.67215        -6.95176         7.38999
     2006.67469        -4.06520         8.01563
     2007.25805        -3.35362         5.95967
     2007.26079        -2.02694         6.04191
     2007.26352        -3.18626         5.91387
     2007.26626         3.61243         5.95551
     2007.26900        10.07411         6.25531
     2007.27174         8.03979         6.00964
     2007.27447         4.30447         5.91699
     2007.27721        10.54716         5.89305
     2007.27995         1.67484         5.83059
     2007.28269         6.54452         5.88472
     2007.28543         6.14121         5.85453
     2007.28816         3.24589         5.87119
     2007.29090         0.87457         5.91491
     2007.29364         1.27025         5.87014
     2007.29638        -0.45506         5.83683
     2007.29911         2.61562         5.83475
     2007.30185         2.45530         5.83579
     2007.30459         1.62299         5.88055
     2007.30733         0.41067         5.93781
     2007.31007        -7.22165         5.95655
     2007.31280         3.25003         5.98465
     2007.31554         4.54572         5.83787
     2007.31828        -3.34260         5.90554
     2007.32102        -3.19192         5.86494
     2007.32376        -3.18623         5.83683
     2007.32649         2.51245         5.91491
     2007.32923         1.71813         5.86702
     2007.33197         3.09281         6.11894
     2007.33471         3.57250         6.08355
     2007.33744        -2.90082         5.87223
     2007.34018        -3.08014         5.87223
     2007.34292        -4.52945         5.90137
     2007.34566         2.52723         5.92532
     2007.34840        -2.30109         5.89617
     2007.35113        -0.44040         5.92948
     2007.35387        -1.69972         6.33755
     2007.35661        -5.34504         6.34484
     2007.35935        -0.33336         5.89513
     2007.36209        -5.05367         5.92219
     2007.36482        -4.16199         6.01276
     2007.36756        -4.28831         5.86182
     2007.89049        -2.81288         5.94614
     2007.89323        -1.63920         6.03150
     2007.89597         1.15349         6.02317
     2007.89870         1.01417         5.93260
     2007.90144         0.50185         5.99298
     2007.90418         2.53254         6.01796
     2007.90692        -1.61278         5.98673
     2007.90966        -0.25010         6.00235
     2007.91239         0.17858         5.97841
     2007.91513         2.90727         6.00339
     2007.91787         1.98795         6.00443
     2007.92061        -8.91037         6.10645
     2007.92334         0.88532         6.17828
     2007.92608         6.72400         6.05336
     2007.92882         2.82668         6.04191
     2007.93156        -0.34264         6.06689
     2007.93430        -2.42695         6.04607
     2007.93703        -3.69127         6.07938
     2007.93977        -4.06359         6.04191
     2007.94251         1.44910         6.05232
     2007.94525         0.80678         6.19910
     2007.94799         0.33546         6.15121
     2007.95072         0.34915         6.12727
     2007.95346         2.14483         6.15538
     2007.95620         1.28351         6.09604
     2007.95894         8.23519         6.14288
     2007.96167         8.32288         6.17724
     2007.96441        -0.61544         6.15121
     2007.96715         6.04024         6.29383
     2007.96989        -5.10607         6.04399
     2007.97263        -2.80439         6.10645
     2007.97536        -5.87071         6.14497
     2007.97810         1.66997         6.20326
     2007.98084         1.75566         6.15642
     2007.98358         5.87634         6.02525
     2007.98632         2.78502         6.17099
     2007.98905         2.26571         6.12310
     2007.99179        -3.67861         6.13976
     2007.99453         4.81207         6.25739
     2007.99727        -2.28225         5.96592
     2008.00000       -10.02756         5.97008
     2008.00274        -5.34688         5.97320
     2008.00548         1.55780         5.93156
     2008.00822        -0.33251         5.95446
     2008.01096        -9.48083         5.94197
     2008.01369         0.41585         5.92428
     2008.01643         1.69753         5.92948
     2008.01917        -3.75678         6.02629
     2008.02191        -6.59210         6.18452
     2008.02465       -15.14442         6.02942
     2008.02738        -6.88673         5.99090
     2008.03012        -4.01105         6.03878
     2008.03286       -10.81437         5.95030
     2008.03560        -6.90269         5.91907
     2008.03833        -4.62000         5.98049
     2008.04107        -6.51432         6.00755
     2008.04381        -6.14764         5.99819
     2008.04655        -4.73395         6.00860
     2008.04929        -6.49827         5.87327
     2008.05202        -2.90359         5.95655
     2008.05476        -5.28291         5.90241
     2008.05750        -4.47422         5.88680
     2008.06024        -1.74054         5.89305
     2008.06298        -1.12386         5.89929
     2008.06571        -9.12417         5.89096
     2008.06845        -0.17249         5.95134
     2008.07119         2.21219         5.95551
     2008.07393         8.06487         5.90866
     2008.07666         4.49556         6.18348
     2008.07940        -2.20976         6.26468
     2008.08214        -2.41308         5.92219
     2008.08488        -4.11839         5.96071
     2008.08762        -6.03671         5.87847
     2008.09035        -1.56003         6.00235
     2008.09309         1.75665         5.86286
     2008.09583        -4.27866         6.00964
     2008.09857         4.52302         6.06481
     2008.10131         3.59570         6.06065
     2008.10404        -0.90361         5.88159
     2008.10678        -3.87793         5.88472
     2008.10952        -9.39825         5.90346
     2008.11226        -6.00657         5.93364
     2008.11499        -6.92288         5.86806
     2008.11773        -0.00020         5.91178
     2008.12047        -3.32452         5.87431
     2008.12321        -3.35183         6.02109
     2008.12595        -3.88115         5.85765
     2008.12868        -4.40647         5.92844
     2008.13142        -3.40079         5.88472
     2008.13416        -0.62210         5.86910
     2008.13690        -3.19742         5.87431
     2008.13964        -0.36574         5.88680
     2008.14237        -3.65805         5.88576
     2008.14511         1.87963         5.91074
     2008.14785        -8.82869         5.94301
     2008.15059        -3.80200         5.89617
     2008.15332        -7.12032         5.91074
     2008.15606        -6.89364         5.87639
     2008.15880        -4.63496         5.83787
     2008.16154        -8.41627         5.87535
     2008.16428         4.02941         6.01276
     2008.16701        -3.81491         5.91491
     2008.16975       -10.57922         5.89096
     2008.17249        -6.48554         5.90658
     2008.17523        -4.27486         6.02421
     2008.17784        -6.15825         6.17411
     2009.36619       -12.94481         6.12206
     2009.36893        -3.75412         5.96487
     2009.37167        -7.61444         5.91907
     2009.37441        -8.46376         6.04087
     2009.37714       -13.64408         5.97841
     2009.37988        -4.71339         6.13456
     2009.38262        -0.60771         5.92948
     2009.38536        -3.74203         5.98882
     2009.38810        -4.61634         5.96175
     2009.39083        -7.90566         6.15850
     2009.39357        -5.24698         6.30736
     2009.39631        -6.42630         6.31569
     2009.39905        -2.40561         6.23345
     2009.40178        -4.47293         5.97841
     2009.40452        -4.43225         5.93989
     2009.40726         0.99044         6.02837
     2009.41000        -2.50588         6.37502
     2009.41274        -7.51020         6.46663
     2009.41547         0.15648         6.24594
     2009.41821        -8.09683         6.23033
     2009.42095       -12.82815         6.48953
     2009.42369        -5.55747         6.99650
     2009.42643        -1.09078         6.30840
     2009.42916        -4.79410         6.07418
     2009.43190        -4.68742         5.94822
     2009.43464        -6.29374         6.18452
     2009.43738         0.32095         5.96904
     2009.44011        -2.68037         6.01276
     2009.44285        -4.63569         5.92948
     2009.44559        -5.19300         5.97008
     2009.44833        -5.40432         5.92844
     2009.45107        -4.92364         6.24802
     2009.45380        -7.28396         6.10124
     2009.45654        -2.96327         6.13560
     2009.45928        -2.38959         6.06377
     2009.46202       -10.28591         6.04191
     2009.46475        -4.61722         6.07626
     2009.46749        -3.37454         6.13768
     2009.47023         0.42914         6.05752
     2009.47297        -5.59918         5.90241
     2009.47571        -1.16949         5.95759
     2010.30254        -8.84726         6.02421
     2010.30528       -19.68558         6.10333
     2010.30801       -12.64790         5.92948
     2010.31075       -12.19922         5.93364
     2010.31349       -15.43953         5.89825
     2010.31623       -14.34585         5.89825
     2010.31896       -12.68417         6.30632
     2010.32170       -12.42948         5.97008
     2010.32444        -5.68880         5.98569
     2010.32718       -10.89412         5.86182
     2010.32992       -13.84144         5.89096
     2010.33265        -6.77475         5.86598
     2010.33539       -17.03907         6.00027
     2010.33813        -9.88239         5.92844
     2010.34087        -9.27970         5.82226
     2010.34361        -8.01502         5.80144
     2010.34634       -13.65034         5.88264
     2010.34908       -13.61666         5.79415
     2010.35182       -14.82497         5.83891
     2010.35456       -12.34729         5.87951
     2010.35729       -13.44261         5.83163
     2010.36003       -16.22892         5.87743
     2010.36277       -12.39524         5.77333
     2010.36551       -16.26056         6.02317
     2010.36825       -15.33888         5.95863
     2010.37098       -13.12719         5.81081
     2010.37372       -13.36651         5.88784
     2010.37646        -9.99283         5.79519
     2010.37920       -14.19214         6.13976
     2010.38193        -7.70946         6.21888
     2010.38467        -6.47378         6.00651
     2010.38741        -9.32609         6.05232
     2010.39015        -9.43441         5.91491
     2011.26079        -9.55226         5.91074
     2011.26352        -2.23357         5.92636
     2011.26626        -8.53689         5.78478
     2011.26900        -1.91421         6.01276
     2011.27174        -5.75053         5.96904
     2011.27447        -8.22084         6.05336
     2011.27721       -12.24416         5.98153
     2011.27995        -3.88048         5.97945
     2011.28269        -4.48579         5.72961
     2011.28543        -6.01911         5.76188
     2011.28816       -10.05843         5.70983
     2011.29090        -9.33775         5.98049
     2011.29364        -0.27906         5.75147
     2011.29638        -1.62638         5.87119
     2011.29911        -4.80870         5.72649
     2011.30185        -9.64501         6.03150
     2011.30459        -4.42233         5.69318
     2011.30733        -5.11265         5.68693
     2011.31007        -8.35597         5.76605
     2011.31280         0.18072         5.98778
     2011.31554        -5.24260         5.73065
     2011.31828        -5.01392         5.74106
     2011.32102         0.95277         5.80768
     2011.32376        -5.02455         5.88264
     2011.32649       -10.71387         5.71295
     2011.32923       -10.85619         5.82330
     2011.33197        -9.23850         5.74210
     2011.33471       -15.81782         5.99402
     2011.33744       -10.64514         5.79727
     2011.34018        -6.84045         5.89825
     2011.34292        -9.94677         5.85661
     2011.34566        -5.73009         5.90554
     2011.34840        -4.92241         5.83996
     2011.35113        -4.85672         5.82746
     2011.35387        -7.38204         5.81289
     2011.35661       -11.17636         5.69422
     2011.35935       -12.20867         5.70775
     2011.36209       -10.40599         5.71816
     2011.36482        -6.39131         5.91282
     2011.36756        -6.06063         5.82850
     2011.37030        -9.36294         5.78270
     2011.37304        -6.82326         5.80456
     2011.37577        -6.03758         5.89825
     2011.37851        -9.45389         5.87119
     2011.38125       -12.32821         5.88159
     2011.38399       -14.23753         5.90346
     2011.38673       -13.08984         5.90970
     2011.38946        -8.93916         5.87639
     2011.39220       -10.03348         5.86806
     2011.39494        -4.56780         5.87223
     2011.39768        -4.78111         6.00235
     2011.40042         3.39257         6.02629
     2011.40315        -9.63475         5.92844
     2011.40589       -18.59106         5.95134
     2011.40863        -7.88038         5.85661
     2011.41137        -7.49570         5.91387
     2011.41410        -8.73002         5.85453
     2011.41684       -10.28633         5.84828
     2011.41958        -9.28465         5.76500
     2011.42232       -14.38797         5.80873
     2011.42506        -7.78228         5.93573
     2011.42779        -9.13560         5.77021
     2011.43053       -11.35692         6.00755
     2011.43327       -14.08624         5.84516
     2011.43601       -15.29755         5.86806
     2011.43875       -11.19387         5.92532
     2011.44148       -10.89219         5.86494
     2011.44422        -7.16450         5.89929
     2011.44696       -20.34882         6.07522
     2011.44970        -9.17014         5.84100
     2011.45243       -11.56246         5.87535
     2011.45517        -8.20277         6.02837
     2011.45791       -12.10509         5.91803
     2011.46065        -7.70341         5.81185
     2011.46339        -6.34972         6.07106
     2011.46612       -10.68504         5.81809
     2012.12321         9.06085         5.79936
     2012.12595         5.09053         5.81289
     2012.12868         2.89421         5.81809
     2012.13142         0.53190         5.90762
     2012.13416         8.60758         5.82746
     2012.13690         4.51026         5.81185
     2012.13964         4.00295         5.91803
     2012.14237        -0.63937         5.98673
     2012.14511        12.01731         5.92219
     2012.14785         1.43599         5.75459
     2012.15059         5.79568         5.83475
     2012.15332         2.60536         5.75147
     2012.15606         4.63004         5.82850
     2012.15880         7.76173         5.86286
     2012.16154        10.75741         5.79103
     2012.16428        10.58509         5.93364
     2012.16701         5.43977         5.84412
     2012.16975         2.76346         5.72961
     2012.17249         0.06914         5.67756
     2012.17523        -1.32618         5.73169
     2012.17797         3.79551         5.84620
     2012.18070         2.99119         5.78582
     2012.18344        -0.43713         5.75043
     2012.18618        -2.30045         5.75668
     2012.18892         1.57724         5.72649
     2012.19165        15.12592         5.97216
     2012.19439        10.53460         5.84100
     2012.19713         8.75029         5.92219
     2012.19987         1.62097         5.78374
     2012.20261        10.75365         5.80248
     2012.20534        -7.19766         5.88264
     2012.20808         8.73702         5.84516
     2012.21082         7.74070         5.79103
     2012.21356         6.08438         5.74523
     2012.21629         3.54507         5.74314
     2012.21903         2.19275         5.79207
     2012.22177         5.93743         5.88680
     2013.62355         5.11307         5.73377
     2013.62629         5.12075         5.83059
     2013.62903        -3.73257         5.73898
     2013.63176         3.18711         5.78166
     2013.63450         2.25280         5.98986
     2013.63724         0.33748         5.89721
     2013.63998         3.59416         5.97112
     2013.64272         3.93885         5.72336
     2013.64545         0.83353         5.73586
     2013.64819         4.20221         5.80352
     2013.65093         4.51289         5.78895
     2013.65367         3.36258         5.75772
     2013.65640         2.61026         5.78062
     2013.65914         5.90194         5.95655
     2013.66188         0.17863         5.83475
     2013.66462         2.03931         5.79207
     2013.66736         3.69399         5.77333
     2013.67009         0.19867         5.81809
     2013.67283         0.32536         5.86598
     2013.67557         5.16304         6.08147
     2013.67831         0.51372         5.86390
     2013.68105         7.45241         5.78166
     2013.68378         4.79809         5.70879
     2013.68652         4.67977         5.78999
     2013.68926         4.32245         5.77021
     2013.69200         5.29014         5.74939
     2013.69473        12.46682         5.80560
     2013.69747         4.24250         5.85453
     2013.70021         3.96019         5.80040
     2013.70295        -0.32913         5.77750
     2013.70569        10.80155         5.84100
     2013.70842         5.05823         5.86390
     2013.71116         4.36792         5.87327
     2013.71390         1.15860         5.80352
     2013.71664         0.59728         5.75980
     2013.71938         4.92097         5.75876
     2013.72211        16.99165         5.86494
     2013.72485        12.87533         5.73482
     2013.72759         6.77401         5.80977
     2013.73033        10.65270         5.86390
     2013.73306         6.77638         5.95551
     2013.73580        11.51606         5.75564
     2013.73854         3.87475         5.73169
     2013.74128         4.92143         5.71816
     2013.74402        18.62211         6.00860
     2015.48255         2.98774         5.89409
     2015.48529        -2.71558         5.85349
     2015.48803         2.84910         5.83163
     2015.49076        -2.22021         5.79311
     2015.49350        -0.23353         6.02109
     2015.49624         2.41515         5.99714
     2015.50172        -5.41948         6.07001
     2015.50445         0.36620         6.03566
     2015.50719         2.00888         5.81705
     2015.50993         6.85257         5.99402
     2015.51267         3.13825         6.00339
     2015.51541         2.97393         5.87951
     2015.51814         3.47562         5.87327
     2015.52088        10.50030         5.83891
     2015.52362         0.08198         5.99194
     2015.52636         1.11566         5.89513
     2015.52909         5.44935         5.84100
     2015.53183        11.74703         5.77437
     2015.53457         6.48371         5.88992
     2015.53731         3.94740         5.87431
     2015.54005         6.93908         5.98257
     2015.54278         7.86776         6.17307
     2015.54552         9.27244         6.04815
     2015.54826         0.86613         5.90241
     2015.55100         6.69581         6.00443
     2015.55374        12.42549         5.98986
     2015.55647        14.64918         6.10957
     2015.55921         3.10686         5.93989
     2015.56195         6.00154         5.96175
     2015.56469         4.23322         6.01068
     2015.56742        12.95991         5.95446
     2015.57016         8.99959         6.14809
     2015.57290         6.73627         6.14288
     2015.57564         5.36696         5.90554
     2015.57838         1.96364         5.92844
     2015.58111         3.87632         5.96175
     2015.58385         3.51200         5.94197
     2015.58659         8.59669         6.10749
     2015.58933         4.40537         6.01276
     2015.59206         9.73305         6.13039
     2015.59480        11.18974         5.98257
     2015.59754         8.70042         5.98257
     2015.60028         7.64310         6.00651
     2015.60302        13.34478         6.23449
     2015.60575        10.68147         5.95134
     2015.60849         9.98515         5.96487
     2015.61123         5.13083         5.91699
     2015.61397         3.02752         5.92948
     2015.61671        13.97320         6.00339
     2015.61944         9.98188         5.81289
     2015.62218         5.07956         5.81914
     2015.62492         8.77925         5.80664
     2015.62766         6.84393         5.74835
     2015.63039         9.07361         5.78999
     2015.63313         6.12730         5.87327
     2015.63587        14.21498         5.95446
     2015.63861         7.01366         5.82746
     2015.64135         5.68535         5.84308
     2015.64408         4.88003         5.89825
     2015.64682         2.83771         5.96071
     2015.64956         4.52939         5.82122
     2015.65230         2.09508         5.82330
     2015.65504        11.31276         5.83371
     2015.65777        13.67244         6.13768
     2015.66051        12.26813         6.01484
     2015.66325         8.88881         5.79623
     2015.66599         9.97549         5.91491
     2015.66872         6.30717         5.94926
     2015.67146         7.48286         5.92011
     2015.67420        14.11754         5.92844
     2015.67694        10.51222         5.88784
     2015.67968         7.55791         5.79415
     2015.68241         5.47759         5.78582
     2015.68515         6.93427         5.77750
     2015.68789        10.40895         5.81914
     2015.69063        10.86764         5.82642
     2015.69337         6.07732         5.98465
     2015.69610         8.57100         5.81497
     2015.69884        10.13069         5.84828
     2015.70158        13.17037         5.87431
     2015.70432        20.01905         5.93364
     2015.70705        18.18973         5.93052
     2015.70979         8.92042         5.84308
     2015.71253         5.05510         5.78895
     2015.71527         5.68178         5.81393
     2015.71801        10.25647         5.80977
     2015.72074         7.96115         5.81601
     2015.72348         8.54083         5.85453
     2015.72622         7.70151         5.80768
     2015.72896         2.44420         5.83371
     2015.73170         9.21388         5.87743
     2015.73443        11.01256         5.84412
     2015.73717        10.58125         5.90970
     2015.73991        10.70493         5.97841
     2017.89186        -6.22533         5.67027
     2017.89460         3.62435         5.74002
     2017.89734         6.10804         5.84100
     2017.90007         3.36372         5.73690
     2017.90281         0.50540         5.77229
     2017.90555         8.19208         5.72649
     2017.90829         4.23477         5.67652
     2017.91102         3.82545         5.76813
     2017.91376         1.18213         5.82330
     2017.91650         2.23182         5.70254
     2017.91924         5.78950         5.68589
     2017.92198        11.37818         5.70463
     2017.92471         1.52486         5.65570
     2017.92745        -2.22845         5.68068
     2017.93019        -3.65777         5.69005
     2017.93293        -2.93509         5.69109
     2017.93567        -3.11840         5.65258
     2017.93840        -1.11472         5.61198
     2017.94114        -2.63004         5.62343
     2017.94388         2.51764         5.66507
     2017.94662         1.14833         5.70879
     2017.94935        -0.37799         5.67652
     2017.95209         0.51669         5.75251
     2017.95483        -3.39762         5.64633
     2017.95757         2.20806         5.71087
     2017.96031         3.83374         6.63215
     2017.96304        -0.93658         6.15746
     2017.96578         6.41511         6.21679
     2017.97400        -2.00384         6.45414
     2017.97947        -3.09748         6.62694
     2017.98495        -5.04611         5.94718
     2017.98768        -8.35943         6.16266
     2017.99316        -1.97806         6.04399
     2017.99864        -5.32570         6.43644
     2018.00137        -3.35002         6.42811
     2018.00411        -6.86933         5.97945
     2018.00685        -7.11665         6.28446
     2018.01233        -9.65228         6.57385
     2018.01506        -6.20760         6.34588
     2018.01780        -1.84092         5.66299
     2018.03149         6.65950         6.69981
     2018.03423        -7.10982         5.65362
     2018.03697        -9.31314         5.68277
     2018.03970        -5.44046         5.69005
     2018.04244        -7.80077         5.85973
     2018.04792        -8.47341         6.77581
     2018.05339        -1.63804         5.69005
     2018.05613        -6.37136         5.70879
     2018.05887        -5.83067         5.69526
     2018.06161        -4.64499         5.68797
     2018.06434         0.50369         5.84932
     2018.06708         5.90837         5.94093
     2018.06982        -5.67294         5.83683
     2018.07256        -8.64426         5.82746
     2018.07530       -15.18958         5.82226
     2018.07803       -10.97189         5.85349
     2018.08077        -4.51621         5.89305
     2018.08351        -4.63553         5.90346
     2018.08625       -10.41085         5.81393
     2018.08898        -9.13716         5.82330
     2018.09172        -6.35048         5.79415
     2018.09446        -5.41180         5.83475
     2018.09720        -2.77711         5.98257
     2018.09994        -5.94143         5.87951
     2018.10267        -9.69575         5.77750
     2018.10541        -8.88107         5.94197
     2018.10815        -6.95438         5.82122
     2018.11089        -1.98470         5.87847
     2018.11363        -0.56702         5.86598
     2018.11636        -1.24733         5.79415
     2018.11910        -4.76065         5.93260
     2018.12184        -4.11397         5.94510
     2018.12458        -0.62529         5.78895
     2018.12731        -8.04760         5.78270
     2018.13005        -2.89292         5.80144
     2018.13279         3.26576         5.86286
     2018.13553         2.26245         5.80040
     2018.13827         0.15813         5.78999
     2018.14100        -4.82419         5.78062
     2018.14374        -3.27751         5.77229
     2018.14648        -3.06182         6.05440
     2018.14922        -2.89414         5.90658
     2018.15196        -1.77946         5.84308
     2018.15469        -2.22477         5.80664
     2018.15743        -4.08209         5.74002
     2018.16017        -5.10741         5.78999
     2018.16291       -13.01773         6.00027
     2018.16564        -3.24804         6.05544
     2018.16838        -4.03836         5.83371
     2018.17112        -3.65368         5.79311
     2018.17386        -6.84699         5.78062
     2018.17660        -6.36431         5.80144
     2018.17933        -8.58863         5.83996
     2018.18207        -2.89095         6.03046
     2018.18481         1.63874         5.94510
     2018.18755        -6.59358         5.78166
     2018.19029        -8.23390         5.80040
     2018.19302        -5.70721         5.78582
     2018.19576         0.33247         5.95655
     2018.19850         2.61015         5.85557
     2018.20124         3.70583         5.90241
     2018.20397        -4.12648         5.79519
     2018.20671        -1.73980         5.76500
     2018.20945        -2.61312         5.94614
     2018.21219        -3.82343         5.75251
     2018.21493       -13.48075         5.81914
     2018.21766        -4.75607         5.76292
     2018.22040        -2.41339         5.72961
     2018.22314        -8.08270         5.75251
     2018.22588       -10.31102         5.71920
     2018.22862        -7.90134         5.71191
     2018.23135        -6.86965         5.69838
     2018.23409        -7.82597         5.68068
     2018.23683        -5.87629         5.69318
     2018.23957       -12.24361         5.67444
     2018.24230       -11.99892         5.66715
     2018.24504        -9.47924         5.66507
     2018.24778        -3.19356         5.67340
     2018.25052         0.50213         5.84724
     2018.25326        -8.92119         5.66611
     2018.25599        -2.53051         5.66403
     2018.25873        -5.87082         5.82850
     2018.26147        -9.40214         5.82330
     2018.26421       -12.29346         5.75355
     2018.26695        -5.38778         5.90762
     2018.26968        -9.96409         5.63696
     2018.27242        -5.65941         5.86598
     2018.27516         0.55427         5.80248
     2018.27790         8.86996         6.04191
     2018.28063        -9.06436         5.74210
     2018.28337        -9.76168         5.64217
     2018.28611        -4.36600         5.70983
     2018.28885         4.76369         5.82122
     2018.29159        -0.35363         5.87223
     2018.29432        -3.19995         5.81081
     2018.29706        -5.71626         5.60053
     2018.29980        -8.87458         5.65466
     2018.30254        -7.44890         5.64841
     2018.30528        -6.32322         5.66715
     2018.30801        -2.81753         5.63696
     2018.31075        -7.03985         5.60990
     2018.31349        -5.05017         5.62239
     2018.31623        -9.30548         5.60781
     2018.31896         7.71720         5.96696
     2018.32170        -5.78012         5.64217
     2018.32444        -4.41644         5.69422
     2018.32718        -8.01575         5.69005
     2018.32992        -0.80507         5.82330
     2018.33265        -1.94339         5.62863
     2018.33539       -10.68070         5.81914
     2018.33813        -6.00402         5.79519
     2018.34087        -5.52734         5.70046
     2018.34361       -10.71066         5.66091
     2018.34634        -7.18397         5.66091
     2018.34908        -7.61129         5.71816
     2018.35148        -5.34782         6.73937
