# ================= DQRFIT RESULTS ================
# INPUT FILE: series/KAHL.rad
# OUTPUT: LDETRENDED
# FILTER FUNCTION: f(t)
# f(t)=+line(t)+annual(t)+jumps(t)
# line(t)=+P 1+P 2*t
# annual(t)=+P 3*sin(2*pi*t+P 4)
# jumps(t)=+P 5*heav(t-2009.5578  )+P 6*heav(t-2011.6500  )
# heav(t)=(t<0?0:1)
# TOTAL OBSERVATIONS MTOT= 1527
# INITIAL TIME INTERVAL= 2011.7752 - 2007.3593 =  4.4158
# TOTAL OBSERVATIONS AFTER PREFILTER M= 1504
# TIME-SPAN= 2011.7752 - 2007.3593 =  4.4158
# OBSERVATIONS: USED M=  1504 REJECTED MTOT-M=    23 %USED=   98.4938
# N=  6 PARAMETERS
# MAXSIG= 175.00000
# MAXRES=  23.32652
# SCALE FACTOR FOR LENGTHS: SCL=  10.00000
# SCALE FACTOR FOR SIGMAS: SCLSIG=   1.00000
# CHI^2=   1436.652 DOF=  1498 CHI^2/DOF=   0.95905
# RMS=      6.014 SDEV=      6.016 MEAN=   -0.02135
#  P #       PARAMETER +-    SIGMA %error PARAMETER NAME
# P 1 =      4432.52899 +-  541.454  12.22 YZERO                              
# P 2 =        -1.78315 +-    0.270  15.12 SLOPE                              
# P 3 =         3.44100 +-    0.225   6.53 ANNUAL AMPLITUDE                   
# P 4 =        -2.74074 +-    0.086   3.13 ANNUAL PHASE                       
# P 5 =       335.37369 +-    0.633   0.19 OFFSET 2009.5578                   
# P 6 =     -1175.32684 +-    1.155   0.10 OFFSET 2011.6500                   
#       T            LDETRENDED       SIG_OBS
     2007.35934         3.37201         5.82885
     2007.36208        -0.79811         5.84843
     2007.36481        -7.78823         5.84550
     2007.37029         3.81554         5.73483
     2007.37303         4.47142         5.96791
     2007.37577        -1.89270         5.97770
     2007.37850        -5.04582         5.85725
     2007.38124        -0.11793         6.00708
     2007.38398        -2.70505         5.80926
     2007.38672         0.52583         5.76226
     2007.38945        -0.25029         5.78184
     2007.39219        -3.88841         5.92776
     2007.39493         0.75848         5.74267
     2007.39767        -5.22864         5.77792
     2007.40041        12.40624         5.86508
     2007.40314         4.26412         5.80241
     2007.40588        -8.16100         5.74952
     2007.40862       -10.50911         5.75148
     2007.41136        -5.65123         5.74659
     2007.41410        -7.16335         5.65453
     2007.41683         2.52053         5.67412
     2007.41957         0.23641         5.63592
     2007.42231         2.26230         5.87488
     2007.43052         5.21394         5.63397
     2007.43326         1.44882         5.65159
     2007.43600         0.09571         5.69958
     2007.43874         0.37059         5.80632
     2007.44421        -3.52065         5.70252
     2007.44695        -2.15677         5.90328
     2007.44969        -3.59988         5.63886
     2007.45243        -5.94600         5.64963
     2007.45516        -5.03412         5.63886
     2007.45790        -1.48224         5.73483
     2007.46064        -2.66136         5.69370
     2007.47433        -3.42195         5.73092
     2007.47707        -6.55406         5.82003
     2007.47980        -5.62918         5.69958
     2007.48254       -10.79530         5.62221
     2007.48528        -7.43342         5.64376
     2007.48802        -2.02854         5.64768
     2007.49092         2.26064         7.46821
     2007.49454         7.58109        11.36488
     2007.49623        12.94311        15.13424
     2007.49926        19.25052         8.75600
     2007.50263         4.33752        10.05359
     2007.50356       -12.21581        10.07415
     2007.50823         9.97151        11.44029
     2007.51066        13.98984         8.33588
     2007.51311         0.64922         7.12252
     2007.51540         5.30328         5.73875
     2007.51813         1.02517         5.70937
     2007.52069        -2.07828         8.86177
     2007.52908       -10.53631        11.35313
     2007.53188         6.62969        10.78219
     2007.53456         4.31346        10.56381
     2007.53730         0.89534        10.49624
     2007.54004         1.24322        10.53149
     2007.54277         2.16410        10.50995
     2007.54551         4.33899        10.51876
     2007.54825         1.32387        10.49819
     2007.55099        -7.95625        10.51974
     2007.55365        -2.14450        10.87621
     2007.55647        -2.23548        10.48644
     2007.55920        -7.09260        10.45119
     2007.56205        -5.93252        17.30243
     2007.56468         0.07716        10.53149
     2007.56741         0.73204        10.54618
     2007.57015         1.21092        10.61375
     2007.57289        -3.68219        10.47861
     2007.57563         2.13069        10.47469
     2007.57837         4.73157        10.50799
     2007.58110         2.74245        10.54520
     2007.58384        -2.92267        10.50211
     2007.58658        -0.54778        10.48057
     2007.58932         1.19710        10.44139
     2007.59206         6.96598        10.48155
     2007.59479        -4.25014        10.77142
     2007.59753        -4.99126        10.73715
     2007.60027        -0.13837        10.45902
     2007.60301         3.22751        10.51876
     2007.60574        -0.01761        12.30600
     2007.60848        -0.75273        10.87817
     2007.61122         4.87315        10.68035
     2007.61396         1.65004        10.56675
     2007.61670         9.75592        11.34823
     2007.61943         6.77680        11.43246
     2007.62304        13.81522        19.15137
     2007.62491       -11.86844        11.06913
     2007.62770         1.98555        11.31886
     2007.63039        -3.47667        11.18175
     2007.63312       -12.10279        10.98001
     2007.63586        -7.56491        10.96043
     2007.63860         0.31997        10.97120
     2007.64134        -9.38614        10.64999
     2007.64407         7.11874        11.01233
     2007.64681        -1.61438        11.00646
     2007.64955         2.65350        11.00450
     2007.65229         0.92738        10.99177
     2007.65503         0.68827        10.77142
     2007.65776         3.65315        10.71658
     2007.66050        11.10903        10.84193
     2007.66324         5.16391        10.89775
     2007.66598         0.54479        10.91146
     2007.66872         8.32868        10.78024
     2007.67145         6.72656        10.65586
     2007.67419         2.62444        10.81843
     2007.67693        -6.39868        11.30612
     2007.67967         8.16920        10.74792
     2007.68531         3.02027        11.60971
     2007.68788         3.69285        10.96630
     2007.69062         9.47073        10.88796
     2007.69336        10.48661        10.74988
     2007.69609        12.14050        10.72637
     2007.69883        -1.67762        10.85466
     2007.70157         4.84126        10.81843
     2007.70431         3.96314        11.05346
     2007.70705         6.56402        10.83410
     2007.70978         6.61691        10.86544
     2007.71252         5.92479        11.13670
     2007.71526         9.46967        10.77730
     2007.71800        12.11355        10.56675
     2007.72073         6.00943        10.58731
     2007.72347        14.96632        10.57850
     2007.72621        12.06720        10.58242
     2007.72895        17.60508        10.80570
     2007.73169         9.63896        10.82039
     2007.73442        -0.89416        10.66076
     2007.73716         8.15873        10.89188
     2007.73990         5.08461        10.61963
     2007.74264        16.44849        10.49428
     2007.74538         7.73837        11.07697
     2007.74811        -7.52275        10.93790
     2007.75085         4.38814        11.28654
     2007.75359         2.95402        11.03779
     2007.75633        -0.54010        10.86935
     2007.75884        -1.52063        11.35215
     2007.76192         4.95788        11.08284
     2007.76454         9.55855        10.62453
     2007.76728         0.60843        11.21701
     2007.77002         8.62531        11.74388
     2007.77275         4.45319        11.31886
     2007.77549         1.65507        10.54128
     2007.77823         4.60696        10.94182
     2007.78040         8.44582        15.25666
     2007.78331         8.11601        10.07807
     2007.78747        26.09343        12.67422
     2007.78918        10.48448         5.82885
     2007.79192         8.92637         5.76323
     2007.79466         7.77725         5.76323
     2007.79739        11.39413         5.89544
     2007.80013        12.73801         5.68783
     2007.80270         1.15459         5.96791
     2007.80561         0.06378         5.89250
     2007.80835        -0.91034         5.76030
     2007.81108         2.77854         5.72210
     2007.81382         6.09942         6.08445
     2007.81656         2.57030         5.87781
     2007.81930         1.48019         5.71623
     2007.82203        -2.56493         5.65551
     2007.82477        -5.92105         5.73973
     2007.82751         1.13083         5.67608
     2007.83025         4.13871         5.70056
     2007.83299         3.36160         5.83374
     2007.83572         3.07048         5.56052
     2007.83846        -0.18164         5.67706
     2007.84120         9.57925         5.67901
     2007.84400        -2.17177         5.72112
     2007.84674        -4.85388         5.72015
     2007.84948        -2.05300         5.76128
     2007.85221         4.18888         5.82493
     2007.85495         5.24776         5.82493
     2007.85769         6.31464         5.80437
     2007.86043         3.89953         5.65159
     2007.86316         7.50441         5.89152
     2007.86590         6.52129         5.75344
     2007.86864         0.82417         5.67803
     2007.87219         3.16449        10.05065
     2007.87412         5.80594         5.78674
     2007.87685         0.45282         5.88369
     2007.87959        -4.01130         5.87781
     2007.88233         2.79558         5.75638
     2007.88507         1.90346         5.75246
     2007.88781        -5.53865         5.74854
     2007.89054        -3.79277         5.72406
     2007.89328        -0.41989         5.87879
     2007.89642         8.23870         7.38791
     2007.89869        -2.34124         5.87194
     2007.90153        -5.81818         5.92384
     2007.90423        -4.02136         5.96203
     2007.90697        -4.00448         5.86606
     2007.91332         4.33984        11.34040
     2007.91518         1.05117         5.88467
     2007.91792         3.26405         5.76030
     2007.92066         3.91793         6.00610
     2007.92340        -2.19619         5.83864
     2007.92614         0.24069         5.82297
     2007.92887        -3.91742         5.84746
     2007.93161        -3.24654         5.82003
     2007.93400        -6.45428         9.15458
     2007.94343        -9.01746        11.26891
     2007.94530        -7.38513         5.93559
     2007.94804        -9.30625         5.81318
     2007.95078        -6.44237         6.08934
     2007.95345        -2.72460         5.67216
     2007.95619        -5.83071         5.66922
     2007.95893         0.65317         5.75736
     2007.96167         1.02705         5.74071
     2007.96440         2.51693         5.70252
     2007.96714        -1.30819         5.63984
     2007.96988       -11.79230         5.66922
     2007.97262        -8.22242         5.72406
     2007.97535       -10.27254         5.62907
     2007.97809        -9.25266         5.67901
     2007.98083        -9.23978         5.68097
     2007.98357        -8.41589         5.60067
     2007.98631        -2.07301         5.80143
     2007.98904        -7.15413         5.71819
     2007.99178        -3.26225         5.65159
     2007.99452        -6.15437         5.75834
     2007.99726        -5.92148         5.62907
     2008.00045       -18.98579         7.25472
     2008.00273       -11.90072         5.62123
     2008.00547         3.09916         5.50176
     2008.00913         1.63668        10.03400
     2008.01060        10.53932         6.38901
     2008.01377         2.18695         5.70154
     2008.01642        -4.71831         5.48119
     2008.01916       -11.00643         5.56933
     2008.02190       -25.62155         5.64082
     2008.02446         5.15201         6.02177
     2008.02831       -12.30312        10.05848
     2008.03011        -7.37390         5.75736
     2008.03285       -11.30702         5.58304
     2008.03559       -10.52614         5.63397
     2008.03833        -8.08625         5.63201
     2008.04106       -11.66037         5.63886
     2008.04380        -6.84149         5.65845
     2008.04654        -6.68561         5.84354
     2008.04928       -11.59173         5.79947
     2008.05201       -10.31384         5.63397
     2008.05475        -6.71296         5.62907
     2008.05749        -8.66908         5.66824
     2008.06023        -4.91320         5.75932
     2008.06297         0.54268         5.71231
     2008.08327        -1.18311        13.06594
     2008.08487        -1.53726         5.63397
     2008.08761         0.74962         5.68391
     2008.09308       -23.91561         5.67118
     2008.09582         0.48827         5.76226
     2008.09856         0.41215         5.83570
     2008.10217        -5.36542         9.70202
     2008.10403        -0.09809         5.73386
     2008.10677        -2.50120         5.63201
     2008.10951        -8.07231         5.66237
     2008.11225        -2.97944         5.54191
     2008.11498        -3.36356         5.56150
     2008.11861        -8.16810         9.38472
     2008.12046        -3.93179         5.59773
     2008.12320        -1.18891         5.96203
     2008.12571       -10.04144        16.70310
     2008.12871        -2.26108         7.00794
     2008.13141        -6.40327         5.51939
     2008.13415         1.01762         5.58696
     2008.13689         2.75150         5.63690
     2008.13968         3.59248         7.42610
     2008.14236        -2.24874         5.56346
     2008.14510        -0.54586         5.57717
     2008.14784         3.34103         5.55954
     2008.15058        -3.17509         5.56248
     2008.15331        -9.15821         5.61438
     2008.15697         0.86432         9.85479
     2008.15879        -4.25145         5.57423
     2008.16153        -4.88656         5.63201
     2008.16427        -6.76468         5.64376
     2008.16664        -7.54244         6.56921
     2008.17014       -10.57221         6.82579
     2008.17248        -5.20704         5.56541
     2008.17522        -6.10915         5.70546
     2008.17796        -5.52027         5.54485
     2008.18069        -3.52539         8.52587
     2008.18343        -4.27951         5.66335
     2008.18611        -2.15073         5.65551
     2008.18891        -5.41274         5.48609
     2008.19164         2.50814         5.56737
     2008.19438        -4.07398         5.62123
     2008.19712         5.31190         6.84537
     2008.19986        -0.15622         5.62123
     2008.20260        -0.21733         5.50568
     2008.20533         0.04955         5.50861
     2008.20807        -4.98957         5.81612
     2008.21081         3.92731         5.92384
     2008.21355        -2.84381         6.26954
     2008.21629        -2.03992         5.61536
     2008.21902        -6.98504         5.70350
     2008.22176        -9.91316         5.67216
     2008.22450        -4.51728         5.76226
     2008.22724        -1.65540         5.69958
     2008.22997        -0.31251         5.76226
     2008.23271        -0.33463         5.76715
     2008.23544         7.68022         9.97524
     2008.23902         4.06962         9.06057
     2008.24093         0.45501         5.67803
     2008.24366        -0.31810         5.67020
     2008.24640        -4.80422         5.63984
     2008.24914        -5.46334         5.65355
     2008.25188         0.09154         5.82297
     2008.25462         1.61542         5.68391
     2008.25735         2.57231         5.72112
     2008.26009         6.33719         5.57325
     2008.26186         3.37334        10.38166
     2008.26646        -3.11746         9.37199
     2008.26830        -3.82217         5.62711
     2008.27104         4.23972         5.72602
     2008.27378         0.69960         5.63397
     2008.27652        -3.45852         5.68881
     2008.27926        -6.71164         5.71035
     2008.28199         0.43624         5.82591
     2008.28473         5.29313         5.72308
     2008.28747         8.46801         5.69958
     2008.29021         3.69489         5.71819
     2008.29295         4.97377         5.63495
     2008.29568         3.83265         5.65159
     2008.29842         2.79454         5.67706
     2008.30116         5.91042         5.62515
     2008.30390         8.85130         5.64572
     2008.30663         1.55918         5.72406
     2008.30937         1.80606         5.77107
     2008.31211        -4.29505         6.16181
     2008.31462        -2.36058         6.30381
     2008.32389         8.00496         8.84806
     2008.32580        13.09736         5.90621
     2008.32854         5.67824         5.71819
     2008.33128         0.20212         5.92580
     2008.33401         0.48000         5.60067
     2008.33675         2.62688         5.70937
     2008.33880        -6.52846         8.22424
     2008.34223         1.29765         5.65747
     2008.34496         1.14553         6.05507
     2008.34770         3.46341         5.65649
     2008.35044         1.91329         5.57227
     2008.35318        -0.53682         6.11481
     2008.35592         8.04706         5.60361
     2008.35865         6.66494         6.11187
     2008.36139         8.35782         6.04332
     2008.36413         4.52870         5.52820
     2008.36687         0.19359         5.55366
     2008.36961        -4.21553         5.53114
     2008.37234        -7.93165         5.55856
     2008.37468       -12.23048        11.35901
     2008.37873        20.50774         9.71475
     2008.38056         0.58300         7.05788
     2008.38329        -2.19412         5.72308
     2008.38603         6.06076         5.58500
     2008.38877         2.99264         5.68685
     2008.39151         1.95052         5.77694
     2008.39425         1.44841         5.60850
     2008.39698         5.21329         5.67216
     2008.39972         9.67717         5.59479
     2008.40246         0.54005         6.45169
     2008.40520         3.86693         8.29475
     2008.40794         2.04982         5.61438
     2008.41067        -2.64630         5.69566
     2008.41341         2.87358         5.76128
     2008.41615        -3.81454         5.76519
     2008.41889         1.92734         5.72504
     2008.42162        -6.54777         5.81416
     2008.42465         6.15862         8.30650
     2008.42710         6.30499         5.79751
     2008.42984         5.91788         5.81514
     2008.43258         4.98075         5.85039
     2008.43531        -0.22736         5.81220
     2008.43805         4.59652         5.83766
     2008.44079        -1.56359         5.80241
     2008.44353        -2.94072         5.69468
     2008.44626        -1.20484         5.72308
     2008.44900        -0.73895         5.83472
     2008.45174        -4.47107         5.84941
     2008.45448         0.93681         5.79555
     2008.45722         0.90669         5.66139
     2008.45995         7.86857         5.74757
     2008.46269        -1.35554         5.89936
     2008.46543        -1.52666         5.79457
     2008.46817         4.14022         5.73679
     2008.47091         5.33411         5.77205
     2008.47364        -9.76502         5.87879
     2008.47638         1.52687         5.84256
     2008.47912         0.09775         5.82787
     2008.48186        -4.42037         5.78870
     2008.48459         3.97551         5.84060
     2008.48733        -0.99861         5.81808
     2008.49007        -2.76072         5.77597
     2008.49281         4.71517         5.77792
     2008.49555         3.69904         5.83277
     2008.49828         7.67592         6.13635
     2008.50103        -3.01119         5.91111
     2008.50376        11.42368         5.97672
     2008.50650         2.12457         5.90132
     2008.50924         9.41345         5.85039
     2008.51197        12.42233         5.81122
     2008.51471         2.33121         5.77890
     2008.51745         7.00809         5.76715
     2008.52019         2.47298         5.82199
     2008.52292        -2.78914         5.94637
     2008.52567         6.22575         5.90426
     2008.52840         4.87962         5.76323
     2008.53034        10.69908         9.52672
     2008.53679         4.41059         6.44385
     2008.53895        11.22044         7.29879
     2008.54270         3.34812         8.45438
     2008.54483         0.21791         5.96203
     2008.54757         7.45480         5.87977
     2008.55030         9.23968         5.76911
     2008.55304        12.85556         5.93363
     2008.55578         6.30344         5.85529
     2008.55852         8.47732         5.98064
     2008.56125        -0.73479         5.74561
     2008.56399         1.62609         5.71819
     2008.56673         7.11597         5.77694
     2008.56947        13.84185         5.75050
     2008.57221        15.21773         5.81612
     2008.57494        15.01262         5.97770
     2008.57768        17.55850         8.39660
     2008.58042         9.14338         5.76226
     2008.58316        14.45126         5.80045
     2008.58590        16.20814         5.93363
     2008.58863         7.33603         5.94049
     2008.59137         4.74191         6.70141
     2008.59411        10.01479         7.20674
     2008.59685        -0.68233         5.80437
     2008.59958        14.79055         6.09620
     2008.60232         2.37944         9.72552
     2008.60506         8.80932         5.89054
     2008.60780        -3.09580         5.82689
     2008.61054        10.92508         5.89054
     2008.61327         8.47596         5.81220
     2008.61601        15.30585         5.92776
     2008.61875         6.82473         5.81710
     2008.62154         8.44871         6.01492
     2008.62423         5.28949         5.84060
     2008.62696         8.54237         5.83374
     2008.62970        14.28026         5.94539
     2008.63244         9.67014         5.98162
     2008.63518         7.67302         5.90230
     2008.63791        14.07790         6.51632
     2008.64065         6.88478         5.83081
     2008.64339         3.39067         5.81612
     2008.64613        12.25155         5.94539
     2008.64887         7.53243         5.88761
     2008.65160        12.72431         5.83864
     2008.65434         6.01819         5.76128
     2008.65708        11.54308         5.76421
     2008.65982        11.31696         5.72406
     2008.66256        18.41384         5.79359
     2008.66529         6.27172         5.61536
     2008.66803         2.47060         5.72015
     2008.67077         3.71749         5.70937
     2008.67351         6.52037         5.77303
     2008.67624         8.47525         6.24114
     2008.67898        11.78213         5.67608
     2008.68172         1.67302         5.61732
     2008.68446        10.74290         5.70741
     2008.68720        10.83978         5.67216
     2008.68993        14.34966         5.71819
     2008.69267        14.49954         5.71427
     2008.69541         3.51042         5.61046
     2008.69815        17.10331         5.77303
     2008.70089         5.67319         5.66139
     2008.70362         9.63507         5.69077
     2008.70636         8.89295         5.60165
     2008.70910         4.66783         5.86704
     2008.71184         6.13272         5.97574
     2008.71457         4.10260         5.75148
     2008.71731        10.18048         5.75932
     2008.72005        14.48036         5.75834
     2008.72279         6.08324         5.70937
     2008.72553         6.93013         5.71721
     2008.72826         3.38001         5.66824
     2008.73100        10.06789         5.74071
     2008.73374        13.34377         5.80045
     2008.73648         4.88865         5.66824
     2008.73921         7.45254         5.72015
     2008.74469         2.90530         5.63690
     2008.74743         6.31718         5.68881
     2008.75017         9.54906         5.69077
     2008.75290         8.74595         5.75246
     2008.75564        11.41083         5.66530
     2008.75838        10.91771         5.69762
     2008.76112         9.64959         5.74071
     2008.76386        10.64447         5.69077
     2008.76659        -4.77064         5.91013
     2008.76933         1.40324         5.71819
     2008.77207         4.21112         5.58500
     2008.77481         5.27500         5.56443
     2008.77754         1.48088         5.58598
     2008.78028         3.69477         5.62515
     2008.78303         5.83866         5.62809
     2008.78576        -1.64647         5.65943
     2008.78850         0.23741         5.95714
     2008.79123         5.08229         5.70154
     2008.79397         2.33618         5.77597
     2008.79671         4.85606         5.81612
     2008.79945         2.68394         5.77009
     2008.80219         5.54282         5.74854
     2008.80492        10.99570         5.76323
     2008.80766         6.53159         5.71623
     2008.81040         6.97447         5.59577
     2008.81314         8.02935         5.98652
     2008.81587         6.33423         5.58108
     2008.81861         1.93911         5.60263
     2008.82135        -0.43300         5.58304
     2008.82409         3.75988         5.69566
     2008.82683         5.03576         5.69175
     2008.82956         7.70264         5.70448
     2008.83230         3.60952         5.69762
     2008.83504         3.56141         5.67999
     2008.83778        16.99530         5.99043
     2008.84052         8.92917         5.73777
     2008.84325         8.40705         5.66139
     2008.84599         9.37193         5.64376
     2008.84879         2.21792         5.86508
     2008.85147         0.20070         5.85725
     2008.85420         4.16758         5.88859
     2008.85694         9.13846         5.69077
     2008.85968         5.74734         5.66237
     2008.86242        10.53423         5.66824
     2008.86516         4.12811         5.71427
     2008.86790         7.65700         5.81514
     2008.87063         7.13487         5.80241
     2008.87337        -4.11425         5.67999
     2008.87606         4.44255         5.78968
     2008.87914        -8.83995         6.53787
     2008.88158        -1.19860         5.71623
     2008.88432        -4.27872         5.77792
     2008.88706        -0.85384         5.78674
     2008.88980        -1.37195         5.73288
     2008.89253         6.27593         5.82787
     2008.89527        -2.07119         5.90915
     2008.89801         5.22969         5.88761
     2008.90075        -2.25943         5.78870
     2008.90326        -1.17695         6.18728
     2008.90724         1.28714        12.78586
     2008.90896         7.06222         5.71329
     2008.91170         2.06310         5.79163
     2008.91444         2.42698         5.73092
     2008.91718         4.16487         5.53506
     2008.91991         4.52575         5.75050
     2008.92265        -2.09437         5.75540
     2008.92539         2.66552         5.82787
     2008.92813         9.60239         5.81416
     2008.93086        -0.31472         5.75246
     2008.93360         0.84116         5.74365
     2008.93634         9.89304         5.89936
     2008.93908        -4.54908         5.72015
     2008.94182        -4.03920         5.70839
     2008.94455        -4.34431         5.94930
     2008.94729        -3.40343         5.70937
     2008.95003         1.72645         5.66432
     2008.95277        -0.89967         5.63299
     2008.95551         2.99621         5.63690
     2008.95824         2.93110         5.64474
     2008.96098         4.09398         5.58990
     2008.96372         7.28286         5.59283
     2008.96646         4.63274         5.71525
     2008.96919        -9.07138         5.68293
     2008.97193         8.44351         5.58892
     2008.98931         7.16549        10.88796
     2008.99110         1.64768         5.64768
     2008.99384        -0.48244         5.64376
     2008.99657        -5.74156         5.64376
     2008.99931         0.40333         5.63984
     2009.00479        -7.75491         5.71329
     2009.00752       -22.44603         5.54191
     2009.01026       -23.29815         5.61830
     2009.01300        -6.53326         5.66237
     2009.01574        -2.96138         5.73875
     2009.01848         2.34650         5.66139
     2009.02121         4.67038         5.77499
     2009.02395        -5.67974         5.76226
     2009.02669        -9.35085         5.71329
     2009.02943       -17.02697         5.68489
     2009.03216       -16.24109         5.69566
     2009.03490       -17.31221         5.61830
     2009.03764       -15.12133         5.57521
     2009.04038       -11.05944         5.84648
     2009.04312       -18.10156         5.65061
     2009.04585       -20.21468         5.65551
     2009.04859       -20.49880         5.59479
     2009.05133       -12.26892         5.61634
     2009.05407       -14.91303         5.76421
     2009.05681        -9.48715         5.61830
     2009.05960       -11.24217         5.76911
     2009.06228       -14.08139         5.66530
     2009.06502       -13.65151         5.58696
     2009.06776       -19.29162         5.57815
     2009.07049       -11.06074         5.58892
     2009.07323       -10.41086         5.64474
     2009.07597       -15.71598         5.64768
     2009.07871       -12.52010         5.58990
     2009.08145       -12.83521         7.90009
     2009.08418       -10.55833         5.79066
     2009.08692       -15.30945         5.72994
     2009.08966       -11.91057         5.54289
     2009.09240       -15.18869         5.60459
     2009.09514        -9.18180         5.57031
     2009.09787        -5.00392         5.72700
     2009.10061        -4.04904         5.52526
     2009.10335        -8.78016         5.59283
     2009.10609        -7.16728         5.53310
     2009.10882        -4.91939         5.53603
     2009.11156        -5.97351         5.59381
     2009.11430        -4.69063         5.70154
     2009.11704        -4.80375         5.60459
     2009.11978        -4.09587         5.55856
     2009.12251        -2.41798         5.72798
     2009.12519        -6.52720         5.80339
     2009.12799        -0.79921         5.53114
     2009.13073        -1.14234         5.65453
     2009.13347       -10.82146         5.63690
     2009.13620       -14.04857         5.65061
     2009.13894       -15.06669         5.55856
     2009.14161       -10.86194         5.81220
     2009.14442       -11.64893         5.51155
     2009.14715        -4.58905         5.64376
     2009.14989       -12.49516         5.79359
     2009.15263        -4.36528         5.86802
     2009.15537        -0.18240         5.76813
     2009.15807        -9.37759         5.71231
     2009.16086        -9.82060         5.82591
     2009.16358        -0.08975         6.46442
     2009.16622        -4.92605         6.16181
     2009.16906        -3.17199         6.57508
     2009.17180        -9.14111         5.68489
     2009.17453         0.51877         5.56248
     2009.17727        -0.19834         5.76226
     2009.18001        -5.35546         5.56150
     2009.18280        -4.86648         5.78870
     2009.18548        -5.80870         5.64082
     2009.18822       -12.02582         5.57717
     2009.19096        -8.83693         5.62026
     2009.19370        -7.64705         5.63690
     2009.19644        -7.35117         5.64180
     2009.19917        -4.09429         5.60165
     2009.20189        -2.13644         6.02765
     2009.20466        -5.12050         5.68783
     2009.20739        -5.78664         5.88369
     2009.21013       -10.77976         5.55268
     2009.21286        -8.70588         5.64670
     2009.21560        -2.55500         5.54681
     2009.21834        -9.95911         5.54681
     2009.22108        -2.69623         5.81122
     2009.22381        -7.54435         5.68195
     2009.22655        -7.41447         5.58304
     2009.22929        -2.39659         5.56737
     2009.23203        -4.18770         5.55758
     2009.23477        -3.25682         5.74169
     2009.23750        -1.86994         5.60165
     2009.24024         0.87794         5.58696
     2009.24298        -5.94318         5.60459
     2009.24579        -4.96417         5.79947
     2009.24846        -3.65741         5.60459
     2009.25119         1.89247         5.82101
     2009.25393         2.66235         5.87977
     2009.25667        -1.50477         5.60655
     2009.25941        -6.56588         5.56346
     2009.26214        -1.89000         5.56737
     2009.26488        -6.86812         5.64180
     2009.26762         3.53876         5.60263
     2009.27036        -0.11836         5.58206
     2009.27310        -2.88147         5.68195
     2009.27583        -0.96559         5.63690
     2009.27857        -8.44671         5.65943
     2009.28131        -5.67483         5.79849
     2009.28405        -6.54795         5.63005
     2009.28679        -2.10006         5.67999
     2009.28952        -5.49918         5.63397
     2009.29226        -8.51430         5.61536
     2009.29500        -4.74342         5.68391
     2009.29774        -6.13654         5.71917
     2009.30047        -7.59465         5.76715
     2009.30321        -6.29577         5.60948
     2009.30595        -1.60889         5.61340
     2009.30869         6.07599         5.64866
     2009.31143        -5.78813         5.62026
     2009.31416        -0.27724         5.62026
     2009.31690        -6.78536         5.56346
     2009.31964        -3.97748         5.53701
     2009.32238        -1.77260         5.55268
     2009.32512        -5.01072         5.73190
     2009.32785        -9.95083         5.72700
     2009.33059        -3.99595         5.55758
     2009.33333        -6.56407         5.62711
     2009.33607        -1.76719         5.66530
     2009.33880        -4.14931         5.66041
     2009.34154        -6.54842         5.88075
     2009.34428        -1.99354         5.61242
     2009.34702        -7.56266         5.56737
     2009.34976        -9.09678         5.54877
     2009.35249        -4.32990         5.65257
     2009.35523        -6.39501         5.69860
     2009.35797         6.59487         5.72798
     2009.36071        -2.18125         5.66139
     2009.36344        -2.86537         5.59479
     2009.36618        -4.04649         5.66237
     2009.36892        -0.39860         5.62221
     2009.37166        -3.90372         5.60459
     2009.37440        -8.69484         5.71231
     2009.37713        -3.16496         5.63788
     2009.37987        -0.48708         6.04919
     2009.38261         0.78881         5.65355
     2009.38535        -5.99531         5.65257
     2009.38809        -6.43743         5.59381
     2009.39082        -6.53955         5.61340
     2009.39356        -2.23467         5.64963
     2009.39630        -3.06178         5.61340
     2009.39904         4.14710         5.69468
     2009.40177         3.09198         5.73288
     2009.40451         0.57586         5.65159
     2009.40725         6.13074         5.67608
     2009.40999         3.73763         5.70741
     2009.41273         2.95751         5.66432
     2009.41546         3.62839         5.70643
     2009.41820        -2.98973         5.71133
     2009.42094        -7.26085         5.76226
     2009.42368        -3.31596         5.73092
     2009.42642       -13.36408         5.80828
     2009.42915         2.45980         5.89348
     2009.43189         2.97068         5.98358
     2009.43463         1.42556         5.76911
     2009.43737         1.36445         5.75638
     2009.44010        -6.32367         5.62613
     2009.44284        -1.96879         5.75638
     2009.44558        -2.98991         5.95812
     2009.44832        -0.41203         5.73679
     2009.45106         0.36486         5.78184
     2009.45379         1.63374         5.68391
     2009.45653         2.39162         5.68097
     2009.45927         1.86050         5.73679
     2009.46201         2.88438         5.71427
     2009.46475         8.47227         6.13635
     2009.46748         5.25415         5.83962
     2009.47022         1.05603         5.68097
     2009.47296         1.50191         5.76323
     2009.47570         2.93679         5.72015
     2009.47843         8.35068         5.75834
     2009.48117        -5.23144         5.86900
     2009.48391        -1.44556         5.74854
     2009.48665        -4.77268         5.79947
     2009.48939         2.84020         5.80045
     2009.49212         5.16309         5.78674
     2009.49486         0.03697         5.81612
     2009.49760         1.41885         5.80730
     2009.50034         3.54673         5.76421
     2009.50308        -1.44839         5.70839
     2009.50581         0.56650         5.71917
     2009.50855        -5.34862         5.86606
     2009.51129        -6.67574         6.11774
     2009.51403         3.40114         5.76421
     2009.51676         4.15802         5.65551
     2009.51950         1.77491         5.74561
     2009.52224         4.71379         5.78380
     2009.52498        -4.02833         5.79751
     2009.52772        -0.65045         5.91699
     2009.53045        -2.31157         6.02667
     2009.53319        -0.21668         5.64278
     2009.53593        -1.89680         5.74952
     2009.53867        -2.09892         5.77694
     2009.54141        -0.46104         5.75050
     2009.54414        -0.24616         5.79066
     2009.54688         0.24973         5.66628
     2009.54962        -0.52339         5.66139
     2009.55236        -1.58051         5.71525
     2009.55475         5.74175         6.90413
     2009.55783       332.28425         5.68391
     2009.56057       329.30214         5.78772
     2009.56331       327.66602         5.65355
     2009.56605       329.36090         5.93853
     2009.56878       320.55278         5.51939
     2009.57152       331.59166         5.66432
     2009.57426       328.08655         5.67999
     2009.57700       334.54643         5.64376
     2009.57974       331.30131         5.67412
     2009.58247       332.94419         5.58206
     2009.58521       333.48707         5.92090
     2009.58795       328.17096         5.64082
     2009.59069       334.33384         5.68685
     2009.59342       328.25372         5.80241
     2009.59616       339.32060         5.63495
     2009.59890       342.27248         5.62711
     2009.60164       331.82937         5.57325
     2009.60438       324.55025         5.64768
     2009.60711       332.91813         5.61830
     2009.60985       334.74701         5.67901
     2009.61259       333.55889         5.86214
     2009.61533       341.98878         5.84648
     2009.61807       335.78666         5.64866
     2009.62080       332.25454         5.53016
     2009.62354       333.28842         5.62613
     2009.62628       337.21230         5.66139
     2009.62902       338.69419         5.72700
     2009.63175       329.49907         5.63788
     2009.63449       329.52095         5.76323
     2009.63723       336.26483         5.83668
     2009.63997       333.21071         5.72112
     2009.64271       339.10960         5.76128
     2009.64544       335.18248         5.75050
     2009.64818       331.57236         5.76519
     2009.65092       338.05524         5.74952
     2009.65366       326.73912         5.77988
     2009.65639       327.02301         5.66335
     2009.65913       337.22889         5.84941
     2009.66187       333.46577         5.69272
     2009.66461       334.75265         5.65355
     2009.66735       336.59853         5.87683
     2009.67008       333.32242         5.74952
     2009.67232       338.12740         7.22632
     2009.67633       349.67456         9.02238
     2009.67830       338.22606         5.76519
     2009.68104       334.15394         5.96106
     2009.68377       323.22583         5.71721
     2009.68651       335.93071         6.12068
     2009.68925       338.97859         5.67803
     2009.69199       331.28147         5.76226
     2009.69467       331.26225         5.64180
     2009.69746       333.85324         5.63788
     2009.70020       338.69912         5.74169
     2009.70294       342.59300         5.69175
     2009.70568       328.33588         5.68293
     2009.70841       333.94376         5.61046
     2009.71115       337.81165         5.88859
     2009.71389       333.37953         5.89740
     2009.71663       330.14341         5.77009
     2009.71937       337.35429         5.78282
     2009.72239       328.76668         9.34163
     2009.72484       326.21206         6.22057
     2009.72758       324.81694         5.76421
     2009.73032       333.47282         5.64376
     2009.73305       334.78170         5.74169
     2009.73579       336.18558         5.72994
     2009.73853       335.99947         6.61719
     2009.74127       338.42535         5.74463
     2009.74401       339.26823         5.75246
     2009.74674       335.04611         5.63984
     2009.74948       330.29099         7.99704
     2009.75222       334.50188         5.67608
     2009.75496       334.09376         7.66309
     2009.75770       336.75764         5.70741
     2009.76043       336.03452         5.61438
     2009.76317       336.46840         9.82541
     2009.76591       344.60129         7.64449
     2009.76865       336.75217         7.64938
     2009.77138       323.12805        12.28935
     2009.77412       333.77993        13.41849
     2009.78062       332.22853        13.09043
     2009.78234       345.52458         8.74229
     2009.78507       342.29546         5.70154
     2009.78781       337.18034         7.04025
     2009.79055       337.32522         5.82199
     2009.79329       335.92311         5.85529
     2009.79603       335.99399         6.07661
     2009.79876       334.86687         5.80045
     2009.80150       330.40675         7.47996
     2009.80424       338.11863         5.79066
     2009.80698       337.06052         6.79347
     2009.80971       339.59240         6.93351
     2009.81245       338.18828         6.50261
     2009.81621       336.09298        13.55364
     2009.81793       340.35004         5.97183
     2009.82067       343.16093         6.74254
     2009.82340       336.46481        14.03840
     2009.82937       333.72144         7.79432
     2009.83162       343.87945         6.01296
     2009.83436       341.80934         6.66616
     2009.83709       321.19222        20.27268
     2009.83983       339.69310        14.49965
     2009.84257       333.02398        11.78697
     2009.84531       336.67786        12.90632
     2009.84804       345.07275         5.86802
     2009.85078       339.10163         6.19707
     2009.85352       343.43951         7.27921
     2009.85626       331.01339        11.78599
     2009.85900       337.92427         6.41643
     2009.86173       328.74716        11.60873
     2009.87103       343.35273        18.64703
     2009.87380       325.68667        14.85318
     2009.87542       334.55257         7.98627
     2009.87816       341.55145         5.77303
     2009.88090       336.56933         6.62601
     2009.88364       331.48921         7.97354
     2009.88637       340.06109         5.77988
     2009.88911       335.73498         6.32144
     2009.89185       346.33586         5.73288
     2009.89459       338.52774         8.21542
     2009.89733       322.93762        12.24920
     2009.90006       331.95650        11.45106
     2009.90280       326.21339        12.80251
     2009.90554       333.82027         5.66922
     2009.90828       332.60815        15.58864
     2009.91102       329.26903        10.33171
     2009.91490       333.93096        16.84020
     2009.91641       337.22866        10.64117
     2009.93121       309.98404        19.94657
     2009.96303       323.77179         5.50861
     2009.96577       326.25267         5.60655
     2009.96851       325.10855         5.62319
     2009.97125       338.33444         5.69566
     2009.97399       330.08032         5.65453
     2009.97672       327.09920         5.57227
     2009.97946       326.70708         5.48609
     2009.98220       327.97296         5.51743
     2009.98494       333.32085         5.52526
     2009.98773       332.42683         5.62515
     2009.99041       330.10061         5.53603
     2009.99315       333.89749         5.51351
     2009.99589       334.47637         5.66432
     2009.99863       329.60026         5.58402
     2010.00410       324.56202         5.44104
     2010.00684       324.17290         5.46455
     2010.00958       326.25978         5.53212
     2010.01232       319.61667         5.51449
     2010.01505       323.64955         5.50176
     2010.01779       324.38943         5.49197
     2010.02053       328.40331         5.50274
     2010.02327       325.47119         5.56346
     2010.02600       325.03408         5.47336
     2010.02874       333.86396         5.55758
     2010.03148       336.64784         5.50861
     2010.03422       320.84672         5.62319
     2010.03696       321.90660         5.80926
     2010.03969       339.57049         5.64376
     2010.04243       328.23437         5.54485
     2010.04517       336.26025         5.57129
     2010.04791       336.77813         5.50861
     2010.05065       341.62501         5.67216
     2010.05338       336.93690         5.68587
     2010.05612       345.18778         5.54485
     2010.05886       337.68066         5.47728
     2010.06160       335.22254         5.42439
     2010.06433       327.45442         5.49490
     2010.06707       327.11431         5.44692
     2010.06981       322.83419         5.62026
     2010.07255       329.60607         5.60557
     2010.07529       330.39495         5.59479
     2010.07802       332.21283         5.54681
     2010.08076       332.55872         5.44986
     2010.08361       324.58280         9.10953
     2010.08624       336.01248         5.46357
     2010.08898       338.13936         5.57227
     2010.09171       335.01924         5.46455
     2010.09445       337.17713         5.62026
     2010.09719       336.96401         5.63005
     2010.09993       327.51889         5.49490
     2010.10266       324.59177         5.50470
     2010.10540       325.51665         5.53506
     2010.10814       338.36654         5.62515
     2010.11088       334.37942         5.69272
     2010.11362       327.19930         5.49980
     2010.11635       331.50818         5.48903
     2010.11909       332.93406         5.44300
     2010.12183       334.96895         5.53408
     2010.12457       331.18083         5.49784
     2010.12731       334.39571         5.66922
     2010.13004       326.22259         5.62417
     2010.13278       332.27647         5.56639
     2010.13552       333.91636         5.52037
     2010.13826       338.92524         5.50666
     2010.14099       335.01312         5.41852
     2010.14373       331.30900         5.60263
     2010.14647       331.09688         5.63690
     2010.14921       333.76077         5.50568
     2010.15195       329.93565         5.51351
     2010.15468       334.10953         5.40677
     2010.15742       338.99741         5.51057
     2010.16016       342.07929         5.45181
     2010.16290       334.54118         5.51253
     2010.16564       329.51506         5.42048
     2010.16837       334.45894         6.24016
     2010.17111       337.90882         5.42635
     2010.17385       336.29270         5.40775
     2010.17659       334.85659         5.43615
     2010.17932       336.74047         5.44006
     2010.18206       338.68535         5.44594
     2010.18480       341.07223         5.41460
     2010.18754       341.81311         5.40187
     2010.19028       335.02700         5.44594
     2010.19301       338.40288         5.46259
     2010.19575       333.10276         5.45181
     2010.19812       330.36599         6.38803
     2010.20123       331.88452         5.40481
     2010.20397       333.37141         5.56150
     2010.20670       326.64129         5.68391
     2010.20944       331.83717         5.47238
     2010.21218       330.27605         5.48903
     2010.21492       333.40493         5.41558
     2010.21765       334.00882         5.46650
     2010.22039       333.21670         5.45769
     2010.22313       329.34258         5.51645
     2010.22587       333.25046         5.49295
     2010.22861       339.93234         5.52918
     2010.23134       336.15623         5.52428
     2010.23408       329.86011         5.57423
     2010.23956       339.41187         5.58206
     2010.24230       344.18175         5.79261
     2010.24503       335.98564         5.63201
     2010.24777       335.80652         5.61830
     2010.25051       335.17140         5.82493
     2010.25325       337.97528         5.54583
     2010.25598       341.04516         5.56150
     2010.25872       339.13605         5.59186
     2010.26146       336.40293         5.75050
     2010.26420       340.25581         5.79653
     2010.26694       337.39669         5.57129
     2010.26967       337.01557         5.56443
     2010.27241       339.58146         5.53799
     2010.27515       337.95434         5.55562
     2010.27789       341.73322         5.63788
     2010.28062       337.41310         5.50470
     2010.28336       339.01698         5.55170
     2010.28610       336.42387         5.59871
     2010.28884       334.55175         5.47434
     2010.29158       332.02063         5.59088
     2010.29431       335.05251         5.59871
     2010.29705       339.16739         5.53506
     2010.29979       333.81628         5.56248
     2010.30253       345.62216         5.56248
     2010.30527       350.71204         5.66530
     2010.30800       346.09192         5.47728
     2010.31074       339.27080         5.48903
     2010.31348       335.45569         5.44790
     2010.31622       338.77857         5.44202
     2010.31895       340.08645         5.63788
     2010.32169       342.51533         5.46650
     2010.32443       343.00821         5.55366
     2010.32717       345.57510         5.44300
     2010.32991       340.81198         5.59283
     2010.33264       340.85086         5.46650
     2010.33538       339.00174         5.86508
     2010.33812       339.68362         5.47238
     2010.34086       338.55451         5.43517
     2010.34360       334.89139         5.41754
     2010.34633       332.34827         5.49784
     2010.34907       338.17515         5.42733
     2010.35181       338.63203         5.40677
     2010.35449       338.81281         5.55464
     2010.35728       335.13880         5.50078
     2010.36002       333.41068         5.53114
     2010.36276       337.87556         5.40187
     2010.36550       335.65344         5.61536
     2010.36824       340.39933         5.57227
     2010.37097       340.98221         5.44104
     2010.37371       339.77809         5.45377
     2010.37645       335.07097         5.45279
     2010.37919       341.01785         5.65845
     2010.38193       345.09374         5.70448
     2010.38466       338.42162         5.52330
     2010.38740       339.95550         5.49099
     2010.39014       337.32938         5.47042
     2010.39288       335.88726         5.46259
     2010.39561       330.80115         5.44692
     2010.39835       333.28003         5.40970
     2010.40109       334.07691         5.40775
     2010.40383       330.17479         5.36759
     2010.40657       338.88667         5.34115
     2010.40930       337.78256         5.43615
     2010.41204       330.71944         5.35388
     2010.41478       342.19232         5.41852
     2010.41752       335.41620         5.37347
     2010.42026       343.77908         5.38522
     2010.42299       338.48797         5.42048
     2010.42573       336.39885         5.34605
     2010.42847       333.04473         5.44300
     2010.43121       331.95861         5.46552
     2010.43394       333.39849         5.38032
     2010.43668       320.17938         5.97281
     2010.43942       340.60726         5.40677
     2010.44216       328.76514         5.32940
     2010.44490       332.46802         6.07661
     2010.44763       336.16390         5.41460
     2010.45037       334.08079         5.43321
     2010.45311       336.20367         5.34997
     2010.45585       339.25055         5.39110
     2010.45859       337.65943         5.43223
     2010.46132       335.41731         5.48217
     2010.46406       341.13320         5.37935
     2010.46680       336.09108         5.43321
     2010.46954       333.10896         5.49686
     2010.47227       328.39884         5.33136
     2010.47501       329.34472         5.36172
     2010.47775       333.36561         5.58304
     2010.48049       346.09449         5.57619
     2010.48323       334.09437         5.41166
     2010.48596       341.46525         5.36564
     2010.48870       330.47213         5.43712
     2010.49144       340.06902         5.44398
     2010.49418       341.92390         5.60850
     2010.49692       342.35578         5.38620
     2010.49965       334.98466         5.38718
     2010.50239       338.45954         5.39110
     2010.50513       340.26543         5.38130
     2010.50787       340.29731         5.32450
     2010.51060       335.47119         5.29219
     2010.51334       331.78007         5.31569
     2010.51608       328.27295         5.33626
     2010.51882       333.05684         5.37935
     2010.52156       334.34672         5.47826
     2010.52429       338.55260         5.40285
     2010.52703       336.95048         5.63299
     2010.52977       340.17736         5.37151
     2010.53251       331.35125         5.36074
     2010.53525       334.91713         5.36564
     2010.53798       336.05101         5.36857
     2010.54072       333.43789         5.34213
     2010.54346       330.98877         5.48021
     2010.54620       325.86266         5.45475
     2010.54893       329.88354         5.44104
     2010.55167       333.97342         5.50078
     2010.55441       339.43630         5.53701
     2010.55715       333.63318         5.43517
     2010.55989       332.90107         5.39991
     2010.56262       336.55095         5.41068
     2010.56536       333.06383         5.44986
     2010.56810       337.05071         5.47923
     2010.57084       337.21959         5.48413
     2010.57357       334.80748         5.71035
     2010.57631       337.68036         5.53506
     2010.57905       344.05924         5.69860
     2010.58179       333.93612         5.42439
     2010.58453       328.18500         5.44104
     2010.58726       334.82589         5.63495
     2010.59000       330.86177         5.58010
     2010.59274       340.17265         5.47532
     2010.59548       333.73753         5.66335
     2010.59822       335.80541         5.43125
     2010.60095       345.59130         5.56835
     2010.60369       341.93618         5.48511
     2010.60643       339.99906         5.40775
     2010.60917       336.90494         5.48119
     2010.61190       334.37282         5.45867
     2010.61464       341.50171         5.47532
     2010.61738       333.46259         5.44006
     2010.62012       332.67047         5.47630
     2010.62286       332.00335         5.44398
     2010.62559       337.11023         5.44888
     2010.62833       332.32112         5.62123
     2010.63107       340.77400         5.58206
     2010.63381       346.47388         5.46846
     2010.63655       355.60776         5.46650
     2010.63928       336.25664         5.51841
     2010.64202       335.78453         5.47140
     2010.64476       330.78541         5.55954
     2010.64750       336.84129         5.37543
     2010.65023       340.02517         5.58500
     2010.65297       332.58505         5.97868
     2010.65571       341.93894         5.38816
     2010.65845       340.15482         5.35486
     2010.66119       343.80270         5.42341
     2010.66392       342.54058         5.44986
     2010.66666       340.65246         5.44006
     2010.66940       334.62235         5.47630
     2010.67214       329.13223         5.52232
     2010.67488       340.74211         5.48315
     2010.67761       344.31799         5.33626
     2010.68035       342.44487         5.43712
     2010.68309       344.87276         5.33626
     2010.68583       335.70564         5.34703
     2010.68846       338.14432         5.53701
     2010.69131       337.62541         5.56443
     2010.69404       338.53128         5.60361
     2010.69678       334.29517         5.43615
     2010.69952       333.25805         5.35486
     2010.70225       334.98093         5.39991
     2010.70499       339.62481         5.45475
     2010.70773       340.18569         5.47434
     2010.71047       342.55658         5.44202
     2010.71321       343.88446         5.43810
     2010.71594       336.18434         5.45867
     2010.71868       340.12922         5.48609
     2010.72142       339.56510         5.63201
     2010.72416       340.48098         5.55366
     2010.72689       342.67987         5.55660
     2010.72963       333.37275         5.44300
     2010.73237       336.24263         5.47826
     2010.73511       339.17651         5.53016
     2010.73785       342.16039         5.60165
     2010.74058       344.51028         5.60459
     2010.74332       335.67416         5.44006
     2010.74606       342.33404         5.48903
     2010.74880       339.15892         5.55856
     2010.75154       344.19480         5.44006
     2010.75427       346.01169         5.55072
     2010.75701       338.52457         5.58402
     2010.75975       339.32045         5.44300
     2010.76249       340.27333         5.45377
     2010.76522       345.35221         5.54387
     2010.76796       340.72310         5.48511
     2010.77070       345.18098         5.52428
     2010.77344       342.42986         5.58696
     2010.77618       342.02674         5.66041
     2010.77891       333.41162         5.46063
     2010.78165       337.38651         5.47140
     2010.78439       341.55639         5.55856
     2010.78713       354.06027         5.72602
     2010.78987       340.97415         5.47336
     2010.79260       342.03003         5.36564
     2010.79534       335.64492         5.41950
     2010.79808       341.58880         5.39697
     2010.80082       344.08168         5.47434
     2010.80355       342.62056         5.50078
     2010.80629       344.70344         5.43712
     2010.80903       343.42433         5.46846
     2010.81177       342.69921         5.45279
     2010.81451       350.49309         5.46944
     2010.81724       347.51097         5.49392
     2010.81998       344.30885         5.43125
     2010.82272       344.47174         5.55856
     2010.82546       341.11962         5.44986
     2010.82820       341.13450         5.47532
     2010.83093       340.73238         5.75736
     2010.83367       341.10926         5.77499
     2010.83641       339.73915         5.58696
     2010.83915       334.23203         5.51155
     2010.84188       336.34591         9.44054
     2010.84462       338.03679         5.49490
     2010.84736       344.54867         5.46944
     2010.85010       344.81256         5.44104
     2010.85284       344.43944         5.37837
     2010.85557       342.44132         5.32646
     2010.85831       340.52020         5.35290
     2010.86105       333.45808         5.33528
     2010.86379       334.42397         5.39501
     2010.86653       331.38785         5.40383
     2010.86926       339.93773         5.52330
     2010.87200       333.98361         5.36661
     2010.87474       333.69149         5.61242
     2010.87748       339.97738         5.47434
     2010.88021       340.57626         5.39501
     2010.88295       342.22514         5.42537
     2010.88569       341.98102         5.36172
     2010.88843       340.86190         5.60165
     2010.89117       341.28579         5.62026
     2010.89390       343.24967         5.32940
     2010.89664       335.37855         5.32744
     2010.89938       337.66643         5.34507
     2010.90212       338.18531         5.40481
     2010.90485       342.66720         5.42244
     2010.90759       353.47908         5.36172
     2010.91033       358.11896         5.35878
     2010.91854       352.94361         5.38816
     2010.92128       332.48149         5.33919
     2010.92402       328.33837         5.31569
     2010.92676       335.88925         5.35290
     2010.92950       333.15913         5.32940
     2010.93223       334.86902         5.39208
     2010.93497       333.27490         5.45867
     2010.93771       332.12178         5.34997
     2010.94045       327.48366         5.43517
     2010.94318       340.00854         5.39110
     2010.94592       340.01143         5.40481
     2010.94866       343.60631         5.37739
     2010.95140       344.23019         5.56346
     2010.95414       337.86607         5.42341
     2010.95687       336.12195         5.35682
     2010.95961       336.35184         5.48805
     2010.96235       341.79872         5.48119
     2010.96509       349.75360         5.39795
     2010.97330       335.88725         5.39795
     2010.97604       336.68113         5.40677
     2010.97878       337.32401         5.45671
     2010.98151       334.59089         5.38424
     2010.98425       338.33077         5.38326
     2010.98699       336.66666         5.35976
     2010.98973       335.67954         5.45965
     2010.99247       356.34842         5.71133
     2010.99520       341.80630         5.43125
     2010.99794       332.86718         5.40285
     2011.00342       338.27495         5.41068
     2011.00616       337.02383         5.44888
     2011.00889       337.11071         5.45965
     2011.01163       334.76059         5.37249
     2011.01437       333.78748         5.30884
     2011.01711       335.63236         5.58010
     2011.01984       334.95824         5.41264
     2011.02258       331.67412         5.32059
     2011.02532       332.39700         5.43810
     2011.02806       336.23489         5.57815
     2011.03080       327.59477         5.35486
     2011.03353       333.69665         5.45671
     2011.03627       331.97453         5.40481
     2011.03901       333.12441         5.38914
     2011.04175       335.27630         5.47434
     2011.04449       334.58118         5.42635
     2011.04722       335.87906         5.47238
     2011.04996       333.53794         5.51253
     2011.05270       330.38182         5.35878
     2011.05544       328.65871         5.34409
     2011.05817       335.89259         5.27260
     2011.06091       335.35847         5.34997
     2011.06365       335.75135         5.37151
     2011.06639       332.76823         5.38130
     2011.06913       325.85212         5.67314
     2011.07186       328.27400         5.29317
     2011.07460       335.60588         5.50470
     2011.07734       329.16276         5.30981
     2011.08008       329.22764         5.35486
     2011.08282       329.04953         5.34507
     2011.08555       325.42741         5.33919
     2011.08829       326.88029         5.34115
     2011.09103       326.76017         5.37837
     2011.09377       336.16405         5.37053
     2011.09650       339.70694         5.33821
     2011.09924       331.90282         5.31079
     2011.10198       331.80070         5.39110
     2011.10472       333.77158         5.32842
     2011.10746       330.90046         5.31079
     2011.11019       335.21335         5.32744
     2011.11293       335.28423         5.28631
     2011.11567       341.15811         5.43027
     2011.11841       334.25499         5.42048
     2011.12115       341.96387         5.48021
     2011.12388       331.46476         5.53603
     2011.12662       336.00764         5.48903
     2011.12936       339.99652         5.34409
     2011.13210       339.84240         5.34017
     2011.13483       334.52028         5.41656
     2011.13757       339.17717         5.30688
     2011.14031       340.31905         5.29219
     2011.14305       337.23893         5.34703
     2011.14579       331.03781         5.37739
     2011.14852       335.76769         5.25106
     2011.15126       338.11058         5.36955
     2011.15400       341.40546         5.30981
     2011.15674       342.43734         5.23637
     2011.15948       343.87622         5.31863
     2011.16221       337.24510         5.26770
     2011.16495       335.43299         5.43027
     2011.16769       333.53087         5.32352
     2011.17043       328.99375         5.25791
     2011.17316       325.08163         5.25204
     2011.17590       327.85651         5.29708
     2011.17864       338.92440         5.25791
     2011.18138       336.09228         5.26085
     2011.18412       325.25816         5.30786
     2011.18685       329.08704         5.26868
     2011.18959       335.64592         5.21384
     2011.19233       334.95881         5.28827
     2011.19507       331.85869         5.53603
     2011.19780       336.90557         5.45671
     2011.20054       329.70445         5.34213
     2011.20328       334.81933         5.42831
     2011.20602       338.36322         5.40970
     2011.20876       332.74610         5.31863
     2011.21149       331.98698         5.31471
     2011.21423       336.71586         5.31373
     2011.21697       335.40174         5.45769
     2011.21971       335.83663         5.43517
     2011.22245       333.88651         5.32157
     2011.22518       334.09139         5.29904
     2011.22792       335.65527         5.34017
     2011.23066       340.02315         5.23147
     2011.23340       336.06604         5.32548
     2011.23613       330.60492         5.28239
     2011.23887       333.45280         5.30981
     2011.24161       329.17368         5.27162
     2011.24435       331.44756         5.31961
     2011.24709       337.66845         5.34997
     2011.24982       336.16233         5.30198
     2011.25256       331.80021         5.25301
     2011.25530       335.25809         5.30002
     2011.25804       336.70597         5.43125
     2011.26078       335.55386         5.37739
     2011.26351       334.05974         5.25987
     2011.26625       333.37362         5.28533
     2011.26899       338.27650         5.27946
     2011.27173       335.72238         5.39991
     2011.27446       339.58227         5.51057
     2011.27720       334.99515         5.51155
     2011.27994       331.90603         5.24420
     2011.28268       335.03791         5.29415
     2011.28502       320.67308         6.38705
     2011.28815       325.80368         5.23147
     2011.29089       331.01156         5.24812
     2011.29637       331.61332         5.30100
     2011.29911       331.22720         5.25595
     2011.30184       336.42609         5.43223
     2011.30458       334.27297         5.24910
     2011.30732       339.76085         5.22559
     2011.31006       340.88073         5.28141
     2011.31279       334.18161         5.28729
     2011.31553       341.06150         5.26770
     2011.31827       335.39238         5.28141
     2011.32101       335.27126         5.30590
     2011.32375       333.84414         5.25693
     2011.32648       331.31902         5.23637
     2011.32922       331.50991         5.29610
     2011.33196       328.19179         5.33626
     2011.33470       326.23967         5.35095
     2011.33744       332.96755         5.34703
     2011.34017       334.62743         5.51057
     2011.34291       335.29432         5.47532
     2011.34565       336.91220         5.38620
     2011.34839       334.31308         5.34409
     2011.35112       336.79496         5.42244
     2011.35386       331.59084         5.38522
     2011.35660       328.19773         5.27064
     2011.35934       327.26061         5.35584
     2011.36208       324.66049         5.34017
     2011.36481       329.39837         6.02471
     2011.36755       332.65025         5.53603
     2011.37029       331.34514         5.40285
     2011.37303       332.77402         5.40383
     2011.37577       334.18290         5.36270
     2011.37850       328.31578         5.35192
     2011.38124       332.28166         5.37347
     2011.38398       336.57355         5.55170
     2011.38672       331.52043         5.36955
     2011.38945       332.61331         5.36955
     2011.39219       331.83919         5.35095
     2011.39493       333.55507         5.46357
     2011.39767       325.38896         8.51901
     2011.39918       336.11066        18.33561
     2011.41796       333.74414        12.32069
     2011.41957       325.07101         5.41460
     2011.42231       319.80089         5.38424
     2011.42505       333.58178         5.38522
     2011.42778       325.36266         5.39697
     2011.43052       331.12454         5.43712
     2011.43326       324.25142         5.42341
     2011.43600       320.92130         5.36759
     2011.43874       322.92919         5.46161
     2011.44147       328.14307         5.39306
     2011.44421       329.62395         5.40872
     2011.44695       326.14883         5.50176
     2011.44969       323.95471         5.38032
     2011.45243       325.89160         5.42635
     2011.45516       330.39748         5.38522
     2011.45790       327.67336         5.36661
     2011.46064       331.67924         5.49980
     2011.46338       321.07412         5.39501
     2011.46611       329.88601         5.47728
     2011.46885       330.51189         5.63886
     2011.47159       337.86077         5.51253
     2011.47433       332.26065         5.52624
     2011.47707       333.74553         5.44398
     2011.47980       331.82242         5.38620
     2011.48254       328.53530         5.37053
     2011.48528       327.25118         5.37739
     2011.48802       331.10006         5.40089
     2011.49076       335.50994         5.50274
     2011.49349       328.30883         5.44398
     2011.49623       329.44671         5.43321
     2011.49897       331.85459         5.39208
     2011.50171       330.44647         5.49686
     2011.50444       339.17635         8.51999
     2011.50718       326.94324         5.46650
     2011.50992       326.69812         5.38816
     2011.51213       327.28206         7.47703
     2011.51540       329.14688         5.51743
     2011.51813       334.83976         5.41852
     2011.52087       335.15965         5.43321
     2011.52361       328.60353         5.40775
     2011.52635       331.30941         5.49686
     2011.52908       334.44129         5.46161
     2011.53182       332.73317         5.42733
     2011.53456       335.79606         5.39404
     2011.53730       336.29894         5.57129
     2011.54004       328.98982         5.43027
     2011.54277       332.55170         5.57521
     2011.54551       336.25158         5.43223
     2011.54825       332.54847         5.42048
     2011.55099       335.80135         5.40481
     2011.55373       329.46923         5.44202
     2011.55646       334.42711         5.39404
     2011.55920       331.71299         5.43321
     2011.56194       345.36988         5.63984
     2011.56468       333.91676         5.43810
     2011.56741       338.93864         5.45671
     2011.56981       333.73390         6.42231
     2011.70157      -841.11114         5.38424
     2011.70431      -836.49626         5.50176
     2011.70705      -844.39738         5.53799
     2011.70978      -834.82250         5.44202
     2011.71252      -844.30661         5.45083
     2011.71526      -845.47473         5.56933
     2011.71800      -840.23485         5.55856
     2011.72073      -835.39097         5.33234
     2011.72347      -841.09209         5.41656
     2011.72621      -835.35620         5.39795
     2011.72895      -832.60332         5.39501
     2011.73169      -832.88144         5.59773
     2011.73442      -833.58956         5.42439
     2011.73716      -840.26868         5.44398
     2011.73990      -836.87279         5.36074
     2011.74264      -837.82991         5.33136
     2011.74538      -842.34803         5.52624
     2011.74811      -837.70815         5.57815
     2011.75085      -836.00927         5.53114
     2011.75359      -834.20138         5.51057
     2011.75589      -831.98727         6.26660
     2011.75906      -827.66362         5.42929
     2011.76180      -833.33374         5.40970
     2011.76448      -831.36697         5.60067
     2011.76728      -843.03297         5.39110
     2011.77002      -835.68909         6.03059
     2011.77275      -824.56921         6.08641
     2011.77518      -831.12988         7.87365
