# ================= DQRFIT RESULTS ================
# INPUT FILE: series/KLTS.rad
# OUTPUT: LDETRENDED
# FILTER FUNCTION: f(t)
# f(t)=+line(t)+annual(t)
# line(t)=+P 1+P 2*t
# annual(t)=+P 3*sin(2*pi*t+P 4)
# heav(t)=(t<0?0:1)
# TOTAL OBSERVATIONS MTOT= 3705
# INITIAL TIME INTERVAL= 2022.7488 - 2011.8248 = 10.9240
# TOTAL OBSERVATIONS AFTER PREFILTER M= 3697
# TIME-SPAN= 2022.7488 - 2011.8248 = 10.9240
# OBSERVATIONS: USED M=  3697 REJECTED MTOT-M=     8 %USED=   99.7841
# N=  4 PARAMETERS
# MAXSIG= 175.00000
# MAXRES=  32.84618
# SCALE FACTOR FOR LENGTHS: SCL=  10.00000
# SCALE FACTOR FOR SIGMAS: SCLSIG=   1.00000
# CHI^2=   5105.238 DOF=  3693 CHI^2/DOF=   1.38241
# RMS=      7.017 SDEV=      6.994 MEAN=    0.57130
#  P #       PARAMETER +-    SIGMA %error PARAMETER NAME
# P 1 =       102.26084 +-   70.240  68.69 YZERO                              
# P 2 =        -0.05013 +-    0.035  69.45 SLOPE                              
# P 3 =         4.96639 +-    0.154   3.10 ANNUAL AMPLITUDE                   
# P 4 =         2.59051 +-    0.037   1.44 ANNUAL PHASE                       
#       T            LDETRENDED       SIG_OBS
     2011.82477         0.45911         6.73240
     2011.82751         2.09624         6.53017
     2011.83025         4.50238         6.55721
     2011.83299         0.61652         6.45844
     2011.83572        -0.06435         6.45609
     2011.83846         6.37479         6.39025
     2011.84120         9.42193         6.45257
     2011.84394         9.76007         6.47726
     2011.84668        10.60820         6.49254
     2011.84941         4.66334         6.51135
     2011.85215        -4.04452         6.50430
     2011.85489        -2.88138         6.54192
     2011.85763         3.99675         6.63246
     2011.86036        12.54789         6.51958
     2011.86310        16.21903         6.62540
     2011.86584        14.67016         6.55133
     2011.86858        11.83430         6.52429
     2011.87132         9.73844         6.48549
     2011.87405         5.40158         6.43258
     2011.87679         7.17371         6.52781
     2011.87916         9.58683         7.87288
     2011.88227         7.64199         6.48901
     2011.88501         3.42312         6.48314
     2011.88774         5.26726         6.61364
     2011.89048         7.25440         6.58895
     2011.89322         9.40454         6.58778
     2011.89596         3.41667         6.52311
     2011.89869         4.42281         6.57249
     2011.90143        -1.28205         6.50077
     2011.90417         1.93209         6.59483
     2011.90668         5.53421         7.66360
     2011.90965         5.78836         6.53604
     2011.91238         4.77950         6.61952
     2011.91512        -1.35937         6.56426
     2011.91786         4.44177         6.83586
     2011.92060        -2.81509         6.64421
     2011.92334        -2.27995         6.66538
     2011.92607        -5.82982         6.65009
     2011.92881        -0.57168         6.57837
     2011.93155         5.99146         6.68184
     2011.93429         4.30660         6.69595
     2011.93702         1.28073         6.71123
     2011.93976         0.15087         6.54898
     2011.94250         4.56501         6.56897
     2011.94524         3.55514         6.61717
     2011.94798        10.68728         6.69125
     2011.95071         5.82442         6.56426
     2011.95345         2.69156         6.56426
     2011.95619         3.24669         6.58308
     2011.95893        -0.75217         6.44434
     2011.96165         7.56797         6.59483
     2011.96449         8.94011         6.89230
     2011.96714         4.48524         6.45139
     2011.96988         4.53138         6.39143
     2011.97262         0.81752         6.38320
     2011.97535        -1.29535         6.94638
     2011.97809         7.76079         6.51958
     2011.98083         5.61293         6.53017
     2011.98357         7.37907         6.43023
     2011.98631         7.85620         6.47843
     2011.98904         8.28134         6.39378
     2011.99178        10.41748         6.59366
     2011.99452        11.23761         6.40789
     2011.99726         6.31975         6.39143
     2012.00273         5.91003         6.42435
     2012.00547         8.82016         6.37967
     2012.00821         7.93330         6.43375
     2012.01095         3.42644         6.47961
     2012.01368         8.41958         6.39378
     2012.01642        11.83771         6.42787
     2012.01916         6.41085         6.33146
     2012.02190         8.87499         6.33852
     2012.02464         6.83612         6.42670
     2012.02737         1.08726         6.33029
     2012.03011         3.56040         6.38437
     2012.03285         3.90754         6.38084
     2012.03559         8.14167         6.48078
     2012.03833         4.82281         6.33146
     2012.04106         5.86695         6.36321
     2012.04380         5.09809         6.33852
     2012.04654         8.64922         6.39731
     2012.04928        15.04636         6.37144
     2012.05201         7.51650         6.33499
     2012.05475        13.35563         6.42200
     2012.05749         5.97677         6.42317
     2012.06023         8.75291         6.55133
     2012.06297         3.82505         6.49842
     2012.06570         5.69918         6.44786
     2012.06844        10.54132         6.45021
     2012.07118         1.41746         6.31500
     2012.07392         2.47060         6.43375
     2012.07666         4.82373         6.49842
     2012.07939         7.17687         7.61657
     2012.08213         8.87901         6.40789
     2012.08487         9.80214         6.32323
     2012.08761         1.31928         6.42435
     2012.09034        -1.83958         6.34557
     2012.09308         3.09056         6.52664
     2012.09582         3.94569         6.37497
     2012.09856         4.74183         6.36321
     2012.10130         5.56697         6.50783
     2012.10403         4.04011         6.33734
     2012.10677         2.14124         6.45962
     2012.10951         0.56438         6.40083
     2012.11225         3.84652         6.41847
     2012.11498         5.17565         6.39260
     2012.11772         7.10479         6.37144
     2012.12046         7.21793         6.39966
     2012.12320         4.98607         6.42082
     2012.12594         1.06520         6.35968
     2012.12867         1.51834         6.41024
     2012.13141         2.13548         6.42670
     2012.13415         6.89461         6.39495
     2012.13689         6.35175         6.40789
     2012.13963         3.44989         6.52781
     2012.14236         6.80103         6.65715
     2012.14510         1.98516         6.42552
     2012.14784        -2.28870         6.34910
     2012.15058         0.15744         6.30677
     2012.15331        -1.44742         6.29384
     2012.15605         5.52371         6.44198
     2012.15879         7.39685         6.45257
     2012.16153         7.75399         6.31265
     2012.16427         5.51912         6.37144
     2012.16700        -1.22674         6.43375
     2012.16974        -1.55360         6.29501
     2012.17248        -0.27246         6.27855
     2012.17522         2.26967         6.35968
     2012.17796         2.52481         6.35027
     2012.18069        -0.58605         6.39025
     2012.18343        -4.25591         6.30207
     2012.18617         0.17022         6.32911
     2012.18891         2.51036         6.42200
     2012.19164         4.86450         6.49607
     2012.19438         5.67463         6.32794
     2012.19712         5.12777         6.40083
     2012.19986         3.03791         6.31971
     2012.20260         9.51205         6.43493
     2012.20533        11.32718         6.47726
     2012.20807         5.28632         6.38084
     2012.21081         6.39946         6.32088
     2012.21355         6.23460         6.31500
     2012.21629         3.48773         6.30677
     2012.21902         0.07087         6.27973
     2012.22176        -2.16099         6.40436
     2012.22450        -5.81486         6.34087
     2012.22724         1.09928         6.44551
     2012.22997         3.60742         6.35498
     2012.23271         4.55756         6.34440
     2012.23545         3.32969         6.41259
     2012.23819         5.46183         6.40906
     2012.24093         0.74097         6.41964
     2012.24366        12.46010         6.57720
     2012.24640         6.45824         6.32676
     2012.24914         5.62638         6.44669
     2012.25188        -5.24148         6.33734
     2012.25462        -4.50735         6.33734
     2012.25735         0.62679         6.39260
     2012.26009        -1.38907         6.26680
     2012.26283        -3.28393         6.37967
     2012.26557        -6.02480         6.37026
     2012.26830        -2.76466         6.34440
     2012.27104        -2.57152         6.42552
     2012.27378        -1.41039         6.34675
     2012.27652         0.86975         6.31853
     2012.27926         5.11389         6.50312
     2012.28199         0.68203         6.37732
     2012.28473         7.58816         6.33264
     2012.28747         2.29930         6.41377
     2012.29021        -6.04956         6.35733
     2012.29295        -5.14742         6.35380
     2012.29568        -4.90929         6.35263
     2012.29842         0.60385         6.42317
     2012.30116        -6.85901         6.45139
     2012.30390        -5.85288         6.34204
     2012.30663       -13.30974         6.38202
     2012.30937        -8.84360         6.40789
     2012.31211         5.62654         6.69948
     2012.31368        -4.71439        19.54582
     2012.31759         3.47981         6.46550
     2012.32032        -4.67005         6.45844
     2012.32306        -5.58291         6.30912
     2012.32580        -4.78378         6.35027
     2012.32854        -3.36564         6.51606
     2012.33128        -0.90550         6.52194
     2012.33401        -6.01537         6.54898
     2012.33675        -1.91123         6.33617
     2012.33949        -1.01309         6.45139
     2012.34223        -6.48395         6.33969
     2012.34496       -12.16582         6.32676
     2012.34770        -7.50368         6.42787
     2012.35044        -7.88654         6.33969
     2012.35318        -4.54740         6.41377
     2012.35592        -1.46027         6.35027
     2012.35865        -7.62513         6.27973
     2012.36139        -4.92599         6.28091
     2012.36413        -9.88286         7.12510
     2012.36687       -12.81272         6.31265
     2012.36961        -0.33958         6.35027
     2012.37234         3.33556         6.36791
     2012.37508        -1.80331         6.30442
     2012.37782         0.36283         6.49842
     2012.38056        -6.13803         7.07807
     2012.38329        -3.49090         6.45492
     2012.38603        -2.47576         6.52781
     2012.38877        -3.71562         6.50783
     2012.39151         3.69352         6.46432
     2012.39425         0.58665         6.44669
     2012.39698        -7.75221         6.45374
     2012.39972         0.59093         6.33029
     2012.40246        -3.09293         6.51841
     2012.40520        -3.46580         6.37261
     2012.40794        -2.31966         6.39848
     2012.41067        -2.05152         6.33617
     2012.41341        -6.25539         6.38790
     2012.41615         1.61575         6.40789
     2012.41889        -3.35911         6.65362
     2012.42162        -2.61997         6.26444
     2012.42436        -0.81284         6.32441
     2012.42710        -5.54270         6.37026
     2012.42984         0.80544         6.39025
     2012.43258        -3.38442         6.38202
     2012.43531        -3.57429         6.36909
     2012.43805        -0.30215         6.22094
     2012.44079        -5.13401         6.28326
     2012.44300       -14.92990         8.37023
     2012.45297         3.30960        22.71214
     2012.45448        -9.58833         6.42082
     2012.45722        -5.36119         6.39378
     2012.45995         0.41995         6.50077
     2012.46269        -0.05091         6.34440
     2012.46543        -0.21278         6.33029
     2012.46817         0.22336         6.24916
     2012.47091        -7.81350         6.33734
     2012.47364        -1.76837         6.45021
     2012.47638         2.65177         7.53544
     2012.47912         5.33991         6.50195
     2012.48186        -3.86795         6.32676
     2012.48459         1.61118         6.30442
     2012.48733        -4.82468         6.24446
     2012.49007        -4.84454         6.30560
     2012.49281        -2.60841         6.31971
     2012.49555        -0.09827         6.31030
     2012.49828        -5.20413         6.35145
     2012.50102        -2.84699         6.35968
     2012.50376         2.70814         6.39613
     2012.50650        -3.43972         6.23152
     2012.50924         0.93142         6.39613
     2012.51197        -4.35544         6.40906
     2012.51471        -4.80031         6.33029
     2012.51745         6.62683         6.44198
     2012.52019         5.92897         6.71006
     2012.52292        -2.75990         6.51723
     2012.52566         5.00724         6.31383
     2012.52840        -0.17862         6.31147
     2012.53114         1.41452         6.43728
     2012.53388         0.71865         6.59248
     2012.53661        -8.23921         6.44904
     2012.53884       -14.85410         8.96046
     2012.77831         4.91891        10.44544
     2012.78028        14.77201         6.82528
     2012.78302         5.58514         7.08277
     2012.78576         6.10228         6.59131
     2012.78850        12.64942         6.47608
     2012.79123        10.52056         6.86055
     2012.79397        14.83069         6.42200
     2012.79671        11.53383         6.38320
     2012.79945        16.06597         6.52194
     2012.80219        14.06510         6.47961
     2012.80492        12.36924         6.41729
     2012.80708         9.68535         8.05042
     2012.81040        11.98252         6.44669
     2012.81314         5.71565         6.39495
     2012.81587         5.38579         6.37614
     2012.81861        -2.06807         6.45374
     2012.82135        -0.54693         6.38320
     2012.82409         5.82720         6.67949
     2012.82683         6.99534         6.45021
     2012.82956        13.81348         6.43728
     2012.83230         5.69561         6.38084
     2012.83504         1.09675         8.29263
     2012.83778         5.56589         6.37967
     2012.84052         8.01303         6.57484
     2012.84325         7.44016         6.41494
     2012.84599         1.41030         6.49019
     2012.84873         6.36444         6.45844
     2012.85147         6.01858         6.61600
     2012.85420         5.96371         6.47608
     2012.85679         5.15884         6.88760
     2012.86905         7.32146        15.59997
     2012.87063         1.23154         6.42082
     2012.87337         4.48267         6.40671
     2012.87611         6.39381         6.38555
     2012.87885         9.57795         6.33499
     2012.88158         7.11808         6.33734
     2012.88432        12.40822         6.36438
     2012.88706        12.77036         6.54428
     2012.88980        13.46450         6.50783
     2012.89253         3.13563         6.29266
     2012.89527         5.31377         6.33381
     2012.89801         8.34191         6.39848
     2012.90075        11.00005         6.32441
     2012.90349         1.58118         6.25857
     2012.90622         5.21732         6.22212
     2012.90896         5.93446         6.32794
     2012.91170        12.70759         8.68886
     2012.91444        12.53173         8.35965
     2012.91718         8.12387         8.32437
     2012.91991         9.90601         8.89697
     2012.92265         8.11114         9.35787
     2012.92539        12.80328         8.88286
     2012.92816         0.84642        10.14210
     2012.93086         5.02256         8.20092
     2012.93360         9.08169         7.78705
     2012.93634         4.35183         6.77472
     2012.93908         4.77497         6.84645
     2012.94182         4.44810         7.83056
     2012.94459        20.38224         9.21207
     2012.94669        17.28635        12.61237
     2012.96129        12.14308         8.81231
     2012.97020         1.42253        11.74701
     2012.97193         6.01761         6.88525
     2012.97467         9.17075         6.49372
     2012.97741         9.28389         6.52546
     2012.97948        13.70499         8.83818
     2012.98347        -3.04781        12.76757
     2012.98636         9.17334         9.31436
     2012.98836        10.93444         6.21624
     2012.99110        10.64057         6.29737
     2012.99384         6.19171         6.35498
     2012.99657         6.60085         6.25386
     2012.99931         3.75399         6.35027
     2013.00205         8.90612         6.34322
     2013.00479         3.36226         6.33029
     2013.00752         2.77340         6.29384
     2013.01026         2.00554         6.34204
     2013.01300         5.36267         6.31853
     2013.01574         7.65081         6.30677
     2013.01848         9.06795         6.43023
     2013.02121        11.11608         6.36556
     2013.02395         1.95322         6.38790
     2013.02669         6.16536         6.47726
     2013.02943        11.21650         6.42317
     2013.03216         3.95163         6.37849
     2013.03490        -1.48123         6.36909
     2013.03764        -0.54909         6.36674
     2013.04038        -2.30895         6.36086
     2013.04312        -5.39082         6.44669
     2013.04585        -1.65768         6.52076
     2013.04859        -2.23254         6.67596
     2013.05016         8.96654        16.75104
     2013.07895         1.42598        12.72877
     2013.08523         3.12629        18.11727
     2013.08692        -6.66262         7.77765
     2013.09606         3.23684        21.79622
     2013.09873         0.67397        21.63397
     2013.12616        -2.31065        17.29424
     2013.12683         1.48938        15.83277
     2013.13958        -0.64298        21.09782
     2013.14270         3.47817        15.55412
     2013.15537        -9.43819         6.49842
     2013.15811        -5.85105         6.34792
     2013.16084        -8.33992         6.37261
     2013.16358        -7.60078         6.46080
     2013.16632        -2.65364         6.35615
     2013.16906        -2.93250         6.51606
     2013.17180        -1.44537         6.41847
     2013.17453        -0.79723         6.30207
     2013.17727         5.05791         6.52311
     2013.18001        -4.87995         6.56074
     2013.18275         1.31618         6.32558
     2013.18548        -3.63468         6.37497
     2013.18822        -3.27354         6.39378
     2013.19096        -0.62741         6.35145
     2013.19370        -1.75127         6.44198
     2013.19590         1.88684        11.08153
     2013.20011         5.66705        12.08680
     2013.20191        -2.20586         6.45492
     2013.20465         1.28028         6.39966
     2013.20739         2.22442         6.49724
     2013.21013         1.79356         6.42905
     2013.21286        -6.14131         6.34322
     2013.21560        -1.33517         6.39613
     2013.21834        -0.18903         6.31735
     2013.22108        -1.84390         6.30089
     2013.22381        -1.45776         6.34910
     2013.22655        -6.62662         6.49607
     2013.22929        -9.05948         6.37497
     2013.23180        -4.90736         6.95932
     2013.23567         3.32484        11.03450
     2013.23750        -8.16707         6.45139
     2013.24024        -7.11394         6.53369
     2013.24298        -3.21680         6.55603
     2013.24572         1.81434         6.57720
     2013.24846        -0.71452         6.53604
     2013.25119        -2.49239         6.50077
     2013.25393        -2.52625         6.50900
     2013.25667         1.14689         6.75474
     2013.25941         4.75203         6.66068
     2013.26214         0.04716         6.58190
     2013.26488         0.52330         6.57014
     2013.26762         0.37744         6.44551
     2013.27036        -5.71743         6.55251
     2013.27310         1.52971         6.74415
     2013.27583        -1.81415         6.97813
     2013.27857        -4.72201         6.64657
     2013.28131        -0.66588         6.61717
     2013.28405         0.25326         6.56309
     2013.28679         4.57440         6.52076
     2013.28952        -3.00246         6.50077
     2013.29226        -8.08333         6.47726
     2013.29500        -6.46619         6.49607
     2013.29774        -6.42805         6.51018
     2013.30047        -5.83292         6.50195
     2013.30321       -11.60678         6.56191
     2013.30595        -5.91564         6.76179
     2013.30869       -13.11050         6.46315
     2013.31143       -13.38937         6.48666
     2013.31384        -4.42625         7.56954
     2013.31690        -3.34909         6.49489
     2013.31964        -3.11695         6.49019
     2013.32238        -6.30382         6.51606
     2013.32512        -5.16968         6.54075
     2013.32785        -0.96454         6.54075
     2013.33059        -8.49341         6.46903
     2013.33333        -8.77527         6.50548
     2013.33607       -13.74813         6.53487
     2013.33880        -4.03299         6.55721
     2013.34154        -6.60986         6.54545
     2013.34428        -5.65072         6.52076
     2013.34702         0.67342         6.54428
     2013.34976        -5.66444         6.47491
     2013.35249       -12.35631         6.49724
     2013.35523       -10.95417         6.69360
     2013.35797        -7.89903         6.52311
     2013.36071        -4.82190         6.49842
     2013.36344        -4.99276         6.63363
     2013.36618        -5.08662         6.59836
     2013.36892        -2.65648         6.50900
     2013.37166        -3.41735         6.48314
     2013.37440        -1.87621         6.43493
     2013.37713        -4.90807         6.53017
     2013.37987        -6.14694         6.49489
     2013.38261        -9.25680         6.49489
     2013.38535        -6.70466         6.54310
     2013.38809        -3.32552         6.56779
     2013.39082        -3.19639         6.40201
     2013.39247       -35.23430        28.80492
     2013.39907        -0.05197         7.65302
     2013.40177        -5.38284         6.53722
     2013.40451        -2.66170         6.51018
     2013.40725        -0.00556         6.73357
     2013.40999         0.95757         6.68889
     2013.41273        -6.82129         6.48666
     2013.41546        -3.69715         6.65832
     2013.41820        -8.17801         6.56779
     2013.42094         1.60712         6.46080
     2013.42368        -5.94474         6.46197
     2013.42642        -4.45760         6.57014
     2013.42927        -2.21946         6.87701
     2013.43190       -10.59033         6.64657
     2013.43463        -4.51319         6.60659
     2013.43737        -2.99405         6.53957
     2013.44010        -3.81092         6.47138
     2013.44284        -3.40278         6.55486
     2013.44558        -3.54664         6.64539
     2013.44832        -3.28750         6.51371
     2013.45106        -4.72937         6.51958
     2013.45379        -2.47423         6.47608
     2013.45653        -8.75409         6.48078
     2013.45898       -15.49997         8.12332
     2013.46202        -3.18082         6.45727
     2013.46475        -0.86568         6.44434
     2013.46751        -0.38354         6.50077
     2013.47022        -3.07441         6.47608
     2013.47296        -2.97527         6.32088
     2013.47570        -3.71013         6.37261
     2013.47763         8.08597        10.99805
     2013.48121        -6.28686         8.98515
     2013.48391        -2.79472         6.97931
     2013.48665         3.80042         8.52660
     2013.48939        -7.37745         6.90876
     2013.49212         7.35669         8.27970
     2013.49486        -7.51517         8.03984
     2013.49760        -7.87703         7.14744
     2013.50034        -2.30890         6.38437
     2013.50308        -0.38976         6.44434
     2013.50581        -1.06162         6.45139
     2013.50855         0.43752         6.32558
     2013.51129        -0.51335         6.32206
     2013.51403         0.11479         6.32323
     2013.51676         3.47493         6.40906
     2013.51950        -1.56394         6.40789
     2013.52224         1.66520         6.42905
     2013.52498         6.58834         6.66538
     2013.52772         3.57848         6.34675
     2013.53023        -6.17740         6.76532
     2013.53944        -1.20294        20.07021
     2013.54787        12.20849        13.93392
     2013.54855        -1.70048        15.32014
     2013.56149       -15.14283        11.79992
     2013.56331         2.17326         6.60071
     2013.56605        -1.01060         6.41964
     2013.56878         4.01754         6.45492
     2013.57152         1.74167         6.34910
     2013.57426         4.91281         6.38202
     2013.57700         3.29395         6.41729
     2013.57974         1.87708         6.35380
     2013.58247         6.70322         6.49607
     2013.58521         1.12336         6.39025
     2013.58795         9.83150         6.38907
     2013.59069         5.08063         6.33264
     2013.59342        -2.32023         6.55956
     2013.59616         4.09491         6.46432
     2013.59890        -0.31695         6.47020
     2013.60164        -2.78682         6.45492
     2013.60438         6.16632         6.45727
     2013.60711         2.63346         6.50783
     2013.60985         5.86159         6.64069
     2013.61259         2.55973         6.46080
     2013.61533         1.88587         6.62188
     2013.61807         1.68901         6.55603
     2013.62080         7.12914         6.42787
     2013.62354         0.09628         6.41964
     2013.62628        -1.98458         6.52311
     2013.62902        -1.31145         6.57720
     2013.63175         4.10869         6.48196
     2013.63449         2.79883         6.55838
     2013.63723         5.81997         6.32676
     2013.63997         5.27710         6.38084
     2013.64271         6.21324         6.41259
     2013.64544         2.01538         6.37732
     2013.64818         1.75852         6.45609
     2013.65092         8.87265         6.57602
     2013.65366         5.14979         6.39260
     2013.65639         0.85793         6.40201
     2013.65913         3.19606         6.58543
     2013.66187         0.09720         6.44316
     2013.66461         0.45834         6.44198
     2013.66735        10.74248         6.50430
     2013.67008         6.55661         6.71123
     2013.67282        13.07575         6.98048
     2013.67556        -0.17911         6.63011
     2013.67830         8.09903         6.69948
     2013.68104        15.40716         6.61364
     2013.68377         6.17530         6.38907
     2013.68651         4.16444         6.33029
     2013.68925         3.83657         6.35498
     2013.69199         5.11971         6.37497
     2013.69472         3.11085         6.33381
     2013.69746         3.45599         6.33146
     2013.70020         7.94912         6.65832
     2013.70294         9.82126         6.44904
     2013.70568         9.33140         6.45844
     2013.70841         5.18454         9.14388
     2013.71115         6.31567         6.34910
     2013.71389        14.46981         6.40554
     2013.71663         3.01495         6.34087
     2013.71937         5.19008         6.33029
     2013.72210        18.38422         6.41259
     2013.72484        13.76636         6.34557
     2013.72758         9.16450         6.37026
     2013.73032         7.64263         6.40789
     2013.73305         9.32277         6.32676
     2013.73579         7.83791         6.34204
     2013.73853        10.21104         6.39025
     2013.74127         8.73718         6.34440
     2013.74401        13.53932         6.55015
     2013.74674        -2.49554         6.83469
     2013.74948         4.02359         9.19208
     2013.75222         5.84873         6.34322
     2013.75496         1.99287         6.33146
     2013.75770        -0.80899         6.44904
     2013.76043        -5.86186         6.37614
     2013.76317         3.92828         6.35027
     2013.76591         5.21542         6.61247
     2013.76865         6.78255         6.32676
     2013.77138         5.94169         6.35498
     2013.77412         6.51083         6.47961
     2013.77686         2.56797         6.38555
     2013.77960         6.52710         6.36438
     2013.78182         6.56422         7.72709
     2013.78576         0.75641         9.51542
     2013.78781        -5.88248         6.33381
     2013.79055         3.11665         6.38790
     2013.79329         1.44479         6.39025
     2013.79603         2.43793         6.23387
     2013.79875         5.18506         6.35145
     2013.80150         2.05820         6.46550
     2013.80424         1.50034         6.44786
     2013.80698         2.38548         6.37849
     2013.80971         6.62561         6.31147
     2013.81245         7.64375         6.29149
     2013.81519         2.93989         6.24681
     2013.81793        -0.51397         6.28443
     2013.82067         4.28516         6.37144
     2013.82340         7.66130         6.42552
     2013.82569         5.86541         7.78823
     2013.82888         7.64857         6.33617
     2013.83162         3.33371         6.30560
     2013.83436         5.76285         6.43611
     2013.83709        10.70199         6.73240
     2013.83983         3.73212         6.39731
     2013.84257         4.32226         6.38907
     2013.84536        -2.13860         6.57602
     2013.84804        -0.27646         6.25151
     2013.85078        -0.97033         6.43375
     2013.85352         5.96781         6.29972
     2013.85626         3.73795         6.37379
     2013.85900         4.14508         6.28208
     2013.86173        -1.86178         6.25739
     2013.86447        -2.91464         6.30677
     2013.86721        -2.57150         6.33029
     2013.86995         2.72163         6.24798
     2013.87269         9.92177         6.35263
     2013.87542         9.70791         6.29501
     2013.87816         8.10004         6.27267
     2013.88090         9.20218         6.42552
     2013.88364         5.56032         6.71711
     2013.88637        10.00146         6.30442
     2013.88911        -0.40041         6.24681
     2013.89185       -11.28327         6.55721
     2013.89459        -7.05513         6.23975
     2013.89733         1.05901         6.29149
     2013.90006         0.13914         6.32676
     2013.90280        -0.93472         6.39143
     2013.90554         2.84642         6.38202
     2013.90828         5.02255         6.27620
     2013.91102         2.50269         6.34792
     2013.91375         1.75383         6.28091
     2013.91649         5.45497         6.30442
     2013.91923         8.66810         6.45139
     2013.92197         3.79624         6.36438
     2013.92470         5.17838         6.26797
     2013.92744         1.11152         6.47608
     2013.93018         2.54365        10.65826
     2013.93292         4.87879         6.30089
     2013.93566         6.74593         6.35027
     2013.93839         0.77006         6.25504
     2013.94113         4.07620         6.24563
     2013.94301         1.68930         9.93281
     2013.94661        10.90848         6.37379
     2013.94935        12.33061         6.28091
     2013.95208         3.57275         6.31500
     2013.95482         3.33389         6.85938
     2013.95756         1.23803         6.29149
     2013.96030         9.06016         6.29854
     2013.96303        14.35030         6.34440
     2013.96577        10.49644         6.28091
     2013.96851         9.09857         6.32441
     2013.97125        12.01271         6.25739
     2013.97399         4.58285         6.32441
     2013.97672        -1.05101         6.30560
     2013.97946         1.82612         6.29384
     2013.98220         0.40626         6.36321
     2013.98494         2.18040         6.30677
     2013.98767        -2.81647         6.29972
     2013.99041        -0.97433         6.41141
     2013.99315        -3.12319         6.33734
     2013.99589         5.91395         6.38320
     2013.99863         1.08208         6.52311
     2014.00410         2.57136         6.33264
     2014.00684         2.96950         6.42200
     2014.00958         3.10263         6.32441
     2014.01232        -3.90823         6.47491
     2014.01505         2.01191         6.46903
     2014.01779         4.48404         6.44198
     2014.02053         8.64518         6.32676
     2014.02327         6.89332         6.51488
     2014.02600         8.50546         6.51606
     2014.02874         6.67359         6.34910
     2014.03148         8.08773         6.31147
     2014.03422         0.82987         6.30795
     2014.03696         2.92101         6.32323
     2014.03969         8.48414         6.43023
     2014.04243         5.79628         6.51488
     2014.04517         7.68442         6.47020
     2014.04791         2.73555         6.25621
     2014.05065         6.17969         6.29384
     2014.05338        -0.10117         6.25151
     2014.05612        -0.31703         6.29501
     2014.05886         0.91610         6.28091
     2014.06160         0.59524         6.31500
     2014.06433         2.95738         6.47491
     2014.06707         7.46652         6.49842
     2014.06981         9.53565         6.41024
     2014.07255         3.79979         6.33499
     2014.07529         0.59893         6.35733
     2014.07802         5.47606         6.33499
     2014.08076         8.98620         6.33852
     2014.08350         9.38234         6.33264
     2014.08624         4.12948         6.43258
     2014.09017        16.17167        26.09950
     2014.09171         0.63075         6.51841
     2014.09445        -0.76411         6.28326
     2014.09713        -6.17898         6.71006
     2014.09995         9.52516         6.45727
     2014.10266         4.96330         6.50312
     2014.10540         3.91344         6.33264
     2014.10814        -9.61943         6.27503
     2014.11088         1.28471         6.38084
     2014.11362         1.03785         6.32794
     2014.11635        10.67999         6.43611
     2014.11909         1.74412         6.37614
     2014.12183         0.94226         6.39143
     2014.12457         7.27940         8.36082
     2014.12731         6.65053         6.34322
     2014.13004        10.46067         6.27267
     2014.13278         1.34081         6.48314
     2014.13552        -1.59805         6.58072
     2014.13826         4.72208         7.18624
     2014.14099         5.32822         6.28443
     2014.14373         3.22636         6.36791
     2014.14647         3.40350         6.41024
     2014.14921        -0.54437         6.37614
     2014.15195         1.20977         6.36791
     2014.15468         2.09091         6.48431
     2014.15742         5.44204         6.40436
     2014.16016         4.70018         6.60071
     2014.16290         0.48932         6.48078
     2014.16564        -0.86454         6.40083
     2014.16837        -1.26041         6.54428
     2014.17111         1.34173         6.49372
     2014.17385         9.17287         6.56544
     2014.17659         0.90201         6.48078
     2014.17932         1.84314         6.70535
     2014.18206         1.63728         6.50195
     2014.18480         1.05142         6.54428
     2014.18754         2.82055         6.97931
     2014.19028         0.46669         6.47608
     2014.19301         0.92283         6.37379
     2014.19575         2.83097         7.46607
     2014.19849         4.05210         6.61717
     2014.20123        -1.94276         6.43375
     2014.20397        -6.20562         6.44904
     2014.20670         3.74152         6.50900
     2014.20944         4.26365         6.40201
     2014.21218         7.82979         6.69595
     2014.21492        -0.35707         6.82881
     2014.21765        -0.81794         6.39613
     2014.22039        -1.83580         9.34611
     2014.22313         4.00634         6.96637
     2014.22587         4.38548         6.60424
     2014.22861         6.91561         6.65244
     2014.23134         6.49275         6.54192
     2014.23408         3.60589         6.40554
     2014.23682         0.78402         6.53487
     2014.23956        -7.06384         6.45374
     2014.24230         0.34030         6.75121
     2014.24503        -4.74256         6.59601
     2014.24777         3.23257         6.99929
     2014.25051         0.00971         6.53252
     2014.25325        -3.66815         6.47373
     2014.25598        -4.14501         6.61600
     2014.25872         2.53212         6.49724
     2014.26146         0.34526         6.58895
     2014.26420        -2.06760         6.45609
     2014.26694        -2.40347         6.78766
     2014.26967        -7.42433         6.71594
     2014.27241        -1.01619         6.65597
     2014.27515        -1.74905         6.67831
     2014.27789         4.02808         6.46550
     2014.28062         1.60122         6.47373
     2014.28336        -4.78964         6.47373
     2014.28610        -1.43550         6.84880
     2014.28884         0.54163         6.73357
     2014.29158        -3.96023         6.34440
     2014.29431         0.20791         6.44198
     2014.29705        -2.63896         6.57014
     2014.29979        -6.01482         6.62658
     2014.30253        -0.53168         6.53252
     2014.30527        -2.96354         7.51898
     2014.30800        -1.13341         6.48549
     2014.31074        -2.55127         6.52194
     2014.31348         1.29587         6.57132
     2014.31622         3.61301         6.49019
     2014.31895        -1.16286         6.59013
     2014.32169        -4.96772         6.57367
     2014.32443       -18.55158         6.59366
     2014.32717       -10.49145         6.68066
     2014.32991        -1.03231         6.49960
     2014.33264        -3.16417         6.65480
     2014.33538        -0.75603         6.63246
     2014.33812        -4.28290         6.59248
     2014.34086        -2.57976         6.41847
     2014.34360         1.62738         6.49842
     2014.34633        -0.97448         6.51606
     2014.34907        -4.56135         6.67361
     2014.35181        -6.21321         6.67126
     2014.35455        -1.55407         6.36909
     2014.35728        -3.93994         6.44316
     2014.36002        -6.70280         6.49254
     2014.36276        -7.89266         6.44669
     2014.36550        -8.28352         6.45727
     2014.36824        -9.63339         6.49372
     2014.37097        -1.37925         6.65244
     2014.37371        -3.73911         6.43846
     2014.37645        -0.36298         6.41141
     2014.37919        -5.35984         6.58072
     2014.38193        -7.81770         6.48549
     2014.38466        -4.26456         6.51958
     2014.38740        -3.92843         6.54663
     2014.39014        -1.73929         6.51606
     2014.39288        -2.01815         6.55368
     2014.39561        -0.77701         6.57014
     2014.39835         1.99912         6.67478
     2014.40109        -3.17474         6.53957
     2014.40383        -2.08460         6.54780
     2014.40657        -5.15947         6.55838
     2014.40930        -7.49333         6.48784
     2014.41204        -6.98019         6.46197
     2014.41478        -5.17805         6.41612
     2014.41752         0.04808         6.50665
     2014.42026        -0.09678         6.53252
     2014.42299        -4.80264         6.58660
     2014.42573        -4.77550         6.49842
     2014.42847        -3.45737         6.42082
     2014.43121        -5.83023         6.47373
     2014.43394        -2.78009         6.51958
     2014.43668        -9.28796         6.49019
     2014.43942        -1.52182         6.49960
     2014.44216        -5.26268         6.45374
     2014.44490         0.67146         6.63834
     2014.44763        -4.67441         6.69948
     2014.45037        -6.38927         6.45021
     2014.45311        -0.21013         6.34557
     2014.45585        -7.74699         6.48314
     2014.45859        -2.25486         6.32794
     2014.46132        -4.26172         6.40318
     2014.46406        -1.15358         6.44786
     2014.46680       -11.82945         6.40436
     2014.46954        -1.34231         6.34675
     2014.47227        -2.28717         6.31735
     2014.47501        -2.52203         6.39613
     2014.47775         0.03710         6.57249
     2014.48049        -4.43576         6.40436
     2014.48323        -3.49962         6.39378
     2014.48596         1.47851         6.56661
     2014.48870        -1.13835         6.55956
     2014.49144        -0.55021         6.42435
     2014.49418         0.19293         6.35380
     2014.49692        -7.85394         6.35968
     2014.49965        -6.56080         6.34204
     2014.50239        -4.07166         6.54310
     2014.50513        -4.40852         6.51723
     2014.50787        -0.20239         6.45962
     2014.51060        -6.28725         6.43846
     2014.51334        -2.70411         6.38790
     2014.51608         2.26102         6.43258
     2014.51882        -2.16284         6.57955
     2014.52156        -2.88770         6.58308
     2014.52429        -1.16156         6.36321
     2014.52703         0.81857         6.38672
     2014.52977        -1.93429         6.32323
     2014.53251        -8.74615         6.44786
     2014.53525        -1.86701         6.44434
     2014.53798        -1.41088         6.44786
     2014.54072         0.48626         6.44669
     2014.54346         2.72040         6.37026
     2014.54620         6.81953         6.41847
     2014.54893        -0.48733         6.49960
     2014.55167        -0.71819         6.39378
     2014.55441        -5.72205         6.52781
     2014.55715        -5.57892         6.52664
     2014.55989        -7.00078         6.43963
     2014.56262         2.00336         6.30560
     2014.56536         1.56850         6.39495
     2014.56810        -3.44137         6.37379
     2014.57084        -5.55423         6.43846
     2014.57357        -9.94409         6.36321
     2014.57631       -11.73996         6.47491
     2014.57905        -4.28682         6.38084
     2014.58179         1.29732         6.51958
     2014.58453        -2.24854         6.48784
     2014.58726        -1.24141         7.36731
     2014.59000         2.55973         6.62540
     2014.59274        -0.42813         6.49254
     2014.59548        -3.73599         6.59836
     2014.59822         0.36914         6.59836
     2014.60095         1.87228         6.53957
     2014.60369        -2.79958         6.41377
     2014.60643        -2.10545         6.36438
     2014.60917        -3.26531         6.44786
     2014.61188        -2.34817         6.83469
     2014.61464         3.15797         6.74533
     2014.61738        -4.04690         6.76649
     2014.62012         3.44724         6.50195
     2014.62286         4.90538         6.42905
     2014.62559        -0.81749         6.55015
     2014.62833        -2.53335         6.49372
     2014.63107        -3.39321         6.80294
     2014.63381         3.27193         6.72417
     2014.63655         7.22906         6.43963
     2014.63928        -0.89680         6.52076
     2014.64202        -1.06366         6.65362
     2014.64476         6.73348         6.57249
     2014.64750         3.63261         6.43846
     2014.65023         0.87675         6.39260
     2014.65297         5.75389         6.31853
     2014.65571        -1.56398         6.51253
     2014.65845         7.91416         6.51606
     2014.66119         1.34330         6.69477
     2014.66392         6.12944         6.54075
     2014.66666        10.05057         6.41494
     2014.66940         5.13271         6.40436
     2014.67214         6.85585         6.59483
     2014.67488         6.43199         6.49489
     2014.67761        -1.33288         6.49019
     2014.68035        -3.59374         6.36086
     2014.68309        -3.38660         6.44786
     2014.68583         1.84853         6.37497
     2014.68856         6.92267         6.44081
     2014.69130         0.23481         6.51723
     2014.69404        -2.14605         6.40906
     2014.69678        -1.06792         6.53840
     2014.69952         3.48222         6.36203
     2014.70225         2.37236         6.40671
     2014.70499         5.83450         6.39378
     2014.70773         3.19063         6.47373
     2014.71047         7.12277         6.41964
     2014.71321         8.09791         6.39613
     2014.71594         2.70204         6.46432
     2014.71868         4.26818         6.32676
     2014.72142         4.15132         6.35145
     2014.72416         5.46746         6.49842
     2014.72689        11.35259         6.42787
     2014.72963         3.31173         6.37497
     2014.73237         6.10587         6.57484
     2014.73511        -0.46000         6.49137
     2014.73785         5.65314         6.42435
     2014.74058         7.31828         6.38320
     2014.74332         2.26542         6.67126
     2014.74606         7.23155         6.73710
     2014.74880         6.22069         6.46197
     2014.75154         6.11683         6.53487
     2014.75427         3.32297         6.46197
     2014.75701        -3.05590         6.58895
     2014.75975         2.82724         6.78178
     2014.76249         0.49938         6.44198
     2014.76522         4.04351         6.34087
     2014.76793         1.00965         6.53252
     2014.77002         7.36875         8.92989
     2014.79044         3.01578         8.58657
     2014.79260         2.68889         6.41494
     2014.79534         6.41002         6.40671
     2014.79808         6.58316         6.48549
     2014.80082         8.53230         6.40201
     2014.80355         1.72844         6.64539
     2014.80629         4.09557         6.57249
     2014.80903         4.89771         6.55603
     2014.81177         3.63585         6.37614
     2014.81451         4.91499         6.43611
     2014.81724        10.64712         6.50783
     2014.81998         9.57926         6.40671
     2014.82272        11.12240         6.70535
     2014.82546        -0.88647         6.58778
     2014.82820         0.31867         6.42670
     2014.83093         2.69581         6.48784
     2014.83367         6.72595         6.52546
     2014.83641         6.41108         6.48666
     2014.83915         5.65022         6.43611
     2014.84188         0.93936         6.58660
     2014.84462        -2.66950         6.57014
     2014.84736         4.04663         6.51018
     2014.85010         3.45677         6.69830
     2014.85284         2.11891         6.42670
     2014.85557         7.78104         6.60659
     2014.85831         5.94618         6.56426
     2014.86105        -5.73268         6.40906
     2014.86379        -2.14054         6.33146
     2014.86653         0.27759         6.45257
     2014.86926        -4.82527         6.41141
     2014.87200         0.41087         6.40201
     2014.87474        -2.53000         6.36438
     2014.87748        -2.25886         6.39613
     2014.88021         3.15328         6.41612
     2014.88295        -2.61958         6.39495
     2014.88569         3.24955         6.67831
     2014.88843         9.69069         6.73710
     2014.89117        10.33083         6.77943
     2014.89390         4.56197         6.59366
     2014.89664         4.62710         6.57602
     2014.89938         1.77924         6.47961
     2014.90212        -4.65762         6.47843
     2014.90485         2.07351         6.54545
     2014.90759        -3.11935         6.83821
     2014.91033         7.59379         6.40671
     2014.91307         6.36793         6.27385
     2014.91581         3.30106         6.46432
     2014.91854         5.78620         6.31500
     2014.92128         2.73234         6.30207
     2014.92402         4.14448         6.27620
     2014.92676         3.16061         6.28914
     2014.92950        -3.28725         6.39260
     2014.93223        -3.10511         6.34557
     2014.93497        -8.50998         6.39025
     2014.93771         0.39416         6.44081
     2014.94045         4.19130         6.43493
     2014.94318        12.34044         6.67361
     2014.94592         2.04657         6.41141
     2014.94866        -2.97929         6.31500
     2014.95140        -4.82915         6.28796
     2014.95414         3.61299         6.30795
     2014.95687         4.08312         6.30795
     2014.95961         5.92326         6.35851
     2014.96235         0.91440         6.34087
     2014.96509        -0.65047         6.52311
     2014.96783        -3.41233         6.22682
     2014.97056        -0.27719         6.37614
     2014.97330        -6.33105         6.38437
     2014.97604        -4.90292         6.34087
     2014.97878         1.84922         6.31265
     2014.98151         6.57536         6.43963
     2014.98425        -0.77251         6.39378
     2014.98699         1.33463         6.26562
     2014.98973        -1.02423         6.21977
     2014.99247        -4.61409         6.23505
     2014.99520        -8.18896         6.28796
     2014.99794        -0.41482         6.26915
     2015.00068         1.92032         6.18567
     2015.00342        -3.13254         6.21389
     2015.00616        -8.51141         6.27150
     2015.00889        -4.54427         6.39966
     2015.01163        -7.26913         6.30560
     2015.01437        -6.09000         6.39143
     2015.01711        -4.33386         6.37732
     2015.01984        -1.56472         6.29384
     2015.02258        -2.71458         6.39378
     2015.02532         2.40055         6.26680
     2015.02806        -1.94931         6.42200
     2015.03080         1.49083         6.26327
     2015.03353        -6.52203         6.27738
     2015.03627        -3.00190         6.19860
     2015.03901         0.43224         6.33969
     2015.04175        10.57238         6.38202
     2015.04449        -0.47149         6.33146
     2015.04722         3.92365         6.53252
     2015.04996         0.13879         6.30324
     2015.05270        -1.37907         6.27855
     2015.05544        -5.36194         6.28443
     2015.05817         1.67520         6.30324
     2015.06091         1.04234         6.38555
     2015.06365         7.35448         6.57249
     2015.06639         2.62261         6.31383
     2015.06913        -3.67625         6.29972
     2015.07186        -1.00411         6.29501
     2015.07460        -1.50098         6.38672
     2015.07734        -5.40784         6.29619
     2015.08008        -8.90570         6.26915
     2015.08282        -7.07256         6.25739
     2015.08555        -1.00943         6.29384
     2015.08829         0.06071         6.31853
     2015.09103         4.52585         6.32206
     2015.09377        -0.42201         6.24916
     2015.09650        -0.75788         6.54192
     2015.09924         8.15426         6.62775
     2015.10198        11.28440         7.12628
     2015.10472        -0.40647         6.37379
     2015.11126        -5.32314        13.87278
     2015.11293        -7.41205         7.11569
     2015.11567        -4.49092         6.43493
     2015.11841        -7.11678         6.27385
     2015.12135         2.80037         7.02163
     2015.12388        -5.38051         6.30912
     2015.12662        -9.84137         6.30795
     2015.12936        -3.45723         6.25621
     2015.13210        -0.82909         6.30677
     2015.13483        -2.51196         6.37732
     2015.13757        -0.80882         6.32206
     2015.14031        -7.34768         6.27620
     2015.14305        -3.70054         6.19978
     2015.14579        -0.62241         6.28326
     2015.14852         2.33273         6.29384
     2015.15126         2.10687         6.21154
     2015.15400        -0.61300         6.49137
     2015.15674         5.31914         6.22447
     2015.15948        -0.75772         6.19860
     2015.16221         1.52542         6.28678
     2015.16495        -2.00645         6.29501
     2015.16769        -0.35831         6.24916
     2015.17043        -0.43717         6.34087
     2015.17316        -5.66303         6.63716
     2015.17590        -4.37890         6.51841
     2015.17864        -1.72976         6.33146
     2015.18138         1.48538         6.26915
     2015.18412         2.48451         6.24681
     2015.18685        -0.07335         6.31618
     2015.18959        -4.37421         6.30089
     2015.19233        -7.85807         6.62070
     2015.19507        -3.81994         6.31383
     2015.19780         2.04620         6.31853
     2015.20054         0.78934         7.00988
     2015.20328        -7.66052         6.31030
     2015.20602        -6.61439         6.48666
     2015.20876        -5.02325         6.25386
     2015.21149        -5.85311         6.29384
     2015.21423        -3.28698         6.45021
     2015.21697        -6.00884         6.37732
     2015.21971        -3.80270         6.28443
     2015.22245        -4.58856         6.27032
     2015.22518         1.38757         6.25504
     2015.22792        -5.13629         6.29619
     2015.23066        -4.15315         6.30089
     2015.23340        -3.74302         6.47255
     2015.23613        -8.08488         6.69007
     2015.23887         2.40626         6.69125
     2015.24161        -1.56160         6.75826
     2015.24435        -3.17547         6.68419
     2015.24709        -4.52733         6.42435
     2015.24982        -6.36519         6.23270
     2015.25256        -2.96905         6.25151
     2015.25530        -1.40092         6.28678
     2015.25804        -1.88878         6.25504
     2015.26078         2.91336         6.30442
     2015.26351        -2.97951         6.28326
     2015.26625         0.94863         6.30207
     2015.26899        -1.84823         6.28326
     2015.27173         4.40391         6.44551
     2015.27446        -0.37496         6.42905
     2015.27720        -2.70182         6.28796
     2015.27994        -1.35368         6.28443
     2015.28268        -0.60754         6.26562
     2015.28542        -1.83141         6.45021
     2015.28815        -6.53627         6.56309
     2015.29089        -6.66013         6.29854
     2015.29363        -4.03800         6.32676
     2015.29637        -2.51486         6.32676
     2015.29911         2.06728         6.28678
     2015.30184         1.35142         6.32794
     2015.30458        -3.05545         6.37614
     2015.30732        -3.94631         6.15040
     2015.31006        -2.08317         6.19507
     2015.31279         1.47697         6.15745
     2015.31553        -4.26590         6.16333
     2015.31827        -6.62676         6.15275
     2015.32101        -4.86762         6.15745
     2015.32375        -1.17249         6.37144
     2015.32648        -4.37135         6.22094
     2015.32922        -0.31721         6.30560
     2015.33196        -3.10807         6.15745
     2015.33470        -3.93794         6.11983
     2015.33744        -4.01980         6.14569
     2015.34017        -2.10966         6.27503
     2015.34289        -3.68853         6.18214
     2015.34565        -5.28239         6.18332
     2015.34839        -2.40625         6.12570
     2015.35112        -1.56911         6.11042
     2015.35386         2.87202         6.16215
     2015.35660        -0.82284         6.15510
     2015.35934        -5.17070         6.58072
     2015.36208        -0.84456         6.24916
     2015.36481         0.24657         6.14452
     2015.36755         2.06171         6.13629
     2015.37029         0.34285         6.20448
     2015.37303        -4.65702         6.16568
     2015.37577        -8.83288         6.17391
     2015.37847        -8.77974         6.45727
     2015.38126        -4.09060         6.18567
     2015.38398        -9.98247         6.26327
     2015.38672        -0.58333         6.30442
     2015.38945         2.03981         6.32206
     2015.39219         3.18395         6.26915
     2015.39493        -0.54092         6.20566
     2015.39767        -9.69678         6.45021
     2015.40041        -0.98264         6.35145
     2015.40315        -1.58750         6.46550
     2015.40588        -6.14737         6.23858
     2015.40862        -5.53423         6.42200
     2015.41136        -3.29309         6.29266
     2015.41410        -5.69896         6.32558
     2015.41683        -4.33982         6.34087
     2015.41957        -2.90068         6.19625
     2015.42231         4.44146         6.28208
     2015.42505        -5.54841         6.42200
     2015.42778        -4.52527         6.28091
     2015.43052        -4.47913         6.19037
     2015.43326        -8.71900         6.19272
     2015.43600        -2.04686         6.29619
     2015.43874         1.58228         6.38320
     2015.44147        -0.01258         6.49960
     2015.44421        -7.27145         6.41494
     2015.44695        -2.82531         6.21741
     2015.44969        -2.81117         6.21506
     2015.45243         2.86397         6.33852
     2015.45516        -3.86290         6.26327
     2015.45790        -8.61976         6.65362
     2015.46064         0.66338         6.42435
     2015.46338        -1.95549         6.36438
     2015.46611         4.83365         6.37144
     2015.46885         3.31179         6.24211
     2015.47159         3.14093         6.26444
     2015.47433        -2.08794         6.47373
     2015.47707        -0.86480         6.45844
     2015.47980        -2.80366         6.25621
     2015.48254        -5.53352         6.54545
     2015.48528        -5.57739         6.20801
     2015.48802        -2.95225         6.26444
     2015.49076         0.36989         6.60306
     2015.49349        -6.50298         6.90053
     2015.49623        -6.55684         6.59601
     2015.49897        -7.42470         6.42905
     2015.50171        -2.66056         6.20448
     2015.50444         1.43457         6.29031
     2015.50718        -5.74829         6.25621
     2015.50992         0.58585         6.18214
     2015.51266         3.74198         6.15392
     2015.51518         4.46911         6.59601
     2015.53456         6.56308         6.43611
     2015.53730         2.57122         6.32206
     2015.54004         0.99836         6.35263
     2015.54277         4.15449         6.47373
     2015.54551         8.48263         6.46903
     2015.54825         3.32777         6.42435
     2015.55099         4.01591         6.38202
     2015.55373         7.83704         6.39260
     2015.55646        10.93918         6.49489
     2015.55920         3.24332         6.45727
     2015.56194         9.51246         6.44669
     2015.56468         5.16659         6.30677
     2015.56741         8.28873        10.96395
     2015.57015         9.01187        10.98041
     2015.57289         7.55700        10.87812
     2015.57563        13.52314        10.94044
     2015.57837         5.22928        11.03215
     2015.58110         9.18142        11.30022
     2015.58384        14.10255        11.02157
     2015.58658        12.14569        11.09564
     2015.58932        12.10883        10.86166
     2015.59206        14.72697        11.13914
     2015.59479         9.80810        10.89106
     2015.59753        22.53324        10.97101
     2015.60027        20.10938        11.89868
     2015.60301         7.94651        11.08271
     2015.60574        15.67465        11.44131
     2015.60848        30.33579        11.67999
     2015.61122        17.03993        11.26024
     2015.61396        18.13906        11.87752
     2015.61670        33.24220        11.29317
     2015.61943         9.28134        11.05331
     2015.62217         9.79647        11.01334
     2015.62491        18.75161        10.97218
     2015.62765        11.53275        11.14972
     2015.63039        12.35189        11.11680
     2015.63312        24.13702        11.84342
     2015.63586        21.01616        11.35901
     2015.63860        12.78230        11.14972
     2015.64134        21.11444        11.07918
     2015.64407        16.36057        11.06977
     2015.64681        10.96471        12.11972
     2015.64955         9.39785        11.02039
     2015.65229        16.63698        11.05096
     2015.65503        12.99812        11.12856
     2015.65776        11.55826        11.08388
     2015.66050        12.20940        11.27435
     2015.66324        14.65453        10.94397
     2015.66598        25.78267        11.45189
     2015.66872        35.26781        11.22615
     2015.67145         8.81395        10.99452
     2015.67419        21.33508        10.68295
     2015.67693        12.12522        11.01098
     2015.67967        14.15736        11.09329
     2015.68240         8.49549        11.13091
     2015.68514         7.85163        10.98629
     2015.68788        11.58677        11.16736
     2015.69062        11.96591        12.03389
     2015.69336         1.44804        11.76112
     2015.69609         4.53818        11.02157
     2015.69883        20.88132        11.39311
     2015.70157         8.24646        11.14149
     2015.70431        21.09259        11.11445
     2015.70716         7.85474        11.87517
     2015.70978         9.76287        11.08623
     2015.71252        -0.42200        11.09329
     2015.71526        18.87414        11.16854
     2015.71800        17.91428        11.36606
     2015.72073        24.28042        11.41192
     2015.72347        11.25155        11.04391
     2015.72631        -1.07930        11.77523
     2015.72895         9.14583        11.13326
     2015.73169        15.91797        10.95690
     2015.73442         2.17110        11.09681
     2015.73703         2.68723        12.58415
     2015.73992         5.00038        11.00040
     2015.74264        16.73151        11.18617
     2015.74538        17.09965        10.88400
     2015.74811        16.78979        10.96160
     2015.75087         9.84393        10.91222
     2015.75361         5.70406        10.98394
     2015.75633        12.04720        11.02392
     2015.75906        15.13534        11.14502
     2015.76180        13.96847        10.94867
     2015.76454         8.02461        11.05684
     2015.76728         4.31775        11.12974
     2015.77002         1.05389        11.10152
     2015.77275        22.36802        11.33667
     2015.77549        32.68316        11.41662
     2015.77823        29.44130        11.00746
     2015.78097        10.54744        11.10857
     2015.78371        15.90557        10.91104
     2015.78644        14.67571        11.08153
     2015.78918        10.94285        11.03920
     2015.79192        13.67198        10.88400
     2015.79466        21.86512        11.44484
     2015.79739        13.05926        11.05331
     2015.80013         4.40940        11.92102
     2015.80287         8.09853        11.11915
     2015.80561        25.40767        11.09564
     2015.80835        16.35881        10.98041
     2015.81108        10.14495        11.09446
     2015.81382         8.93208        11.15795
     2015.81644         3.48221        12.18792
     2015.81930        17.46636        11.16383
     2015.82203        22.98949        11.09564
     2015.82477        14.99263        11.18500
     2015.82751         8.61277        11.23085
     2015.83025        14.48491        11.23791
     2015.83299         6.47604        11.33549
     2015.83572        17.64118        11.28611
     2015.83846         9.71032        12.04800
     2015.84120         7.74946        11.93395
     2015.84394        20.54059        12.06682
     2015.84668        14.95073        12.02331
     2015.84941        17.24687        12.06094
     2015.85215        18.27100        12.01273
     2015.85489        16.26314        11.95629
     2015.85763        10.43628        12.03977
     2015.86036         3.38442        12.70290
     2015.86310         7.57555        12.24318
     2015.86584        27.23869        12.13383
     2015.86858        19.07483        12.24318
     2015.87132        34.06196        13.25198
     2015.87405         1.01910        12.52183
     2015.87679         5.58824        12.43013
     2015.87953        16.71138        12.90396
     2015.88227        22.01351        12.12090
     2015.88501         6.61265        14.50416
     2015.88774        10.20479        11.87282
     2015.89048        19.42093        11.87517
     2015.89322        18.05806        12.51713
     2015.89596        29.14320        12.13854
     2015.89869        20.44334        11.67294
     2015.90143         0.57847        11.65765
     2015.90417         9.45461        12.31373
     2015.90691         8.84975        12.25729
     2015.90965        15.21689        12.40073
     2015.91238        15.68502        12.09503
     2015.91512         6.31816        12.35017
     2015.91786        15.59230        12.29491
     2015.92060         9.48044        12.33606
     2015.92334        19.74257        12.47363
     2015.92607        10.59571        12.13031
     2015.92881        13.42285        12.65234
     2015.93155        11.14498        12.42307
     2015.93429        21.02112        12.56651
     2015.93702        32.84126        12.64882
     2015.93976        19.34840        13.42952
     2015.94250        22.15453        13.06033
     2015.94524        12.60067        12.24906
     2015.94798        16.46681        12.31608
     2015.95071        22.55695        12.50655
     2015.95345        18.40508        12.28433
     2015.95619        14.67022        12.72759
     2015.95893        17.45536        13.28608
     2015.96167         7.13549        12.47480
     2015.96440         7.53963        12.22672
     2015.96714        22.94177        12.75111
     2015.96988        18.33191        12.31020
     2015.97262        23.69904        12.49479
     2015.97535        25.05518        12.45717
     2015.97809        18.03632        12.64999
     2015.98083         4.16646        12.32783
     2015.98357         6.12159        12.21496
     2015.98631         3.82273        14.22433
     2015.98904        13.93287        12.45834
     2015.99178         9.85800        12.59120
     2015.99452         6.35014        12.64176
     2015.99726        10.58028        12.24671
     2016.00000        13.39742        12.41366
     2016.00273        14.17455        12.57827
     2016.00547        20.65269        12.68409
     2016.00821         9.37283        12.48891
     2016.01095         8.31396        12.32313
     2016.01368         9.16610        12.21731
     2016.01642        14.27124        12.49126
     2016.01916        16.32938        12.34429
     2016.02190        17.65451        12.58885
     2016.02464        12.34865        12.39133
     2016.02737         1.02679        12.78403
     2016.03011         7.64693        12.50890
     2016.03285        21.87606        12.43953
     2016.03559        12.15720        12.48656
     2016.03833        11.63534        13.77755
     2016.04106        10.82947        12.23495
     2016.04380        -7.25239        15.32602
     2016.04654         9.97375        12.19145
     2016.04928        16.66089        12.50420
     2016.05201         6.01802        12.17381
     2016.05475         4.22916        12.29139
     2016.05749        12.89430        12.54065
     2016.06023         0.41444        12.22554
     2016.06297         9.30557        12.02802
     2016.06570        17.71171        12.37486
     2016.06844         9.54085        12.21966
     2016.07118         8.23698        13.46479
     2016.07392        -3.11788        13.94098
     2016.07666        23.89026        12.09268
     2016.07939        11.08940        12.16911
     2016.08213         6.88953        11.95747
     2016.08487        15.44567        11.85165
     2016.08761        -0.13319        11.90574
     2016.09034         3.29695        14.36660
     2016.09308         1.91408        12.74640
     2016.09582        -6.56178         6.37849
     2016.09856        -5.12164         6.51371
     2016.10130        -9.48251         6.49254
     2016.10403       -11.35537         6.37144
     2016.10677        -8.14823         6.39143
     2016.10951        -2.64409         6.42200
     2016.11225        -3.20496         7.03457
     2016.11498        -5.12782         6.47843
     2016.11772        -7.11668         6.47726
     2016.12046        -7.95855         6.89700
     2016.12320        -4.54341         6.37614
     2016.12594        -3.47627         6.37849
     2016.12867         6.68387         6.47726
     2016.13141        10.69300         6.42435
     2016.13415         7.02214         6.40318
     2016.13689        -1.81272         6.88172
     2016.13957        -4.59059         6.47608
     2016.14239        -8.88045         6.49254
     2016.14510        -8.89031         6.30677
     2016.14784        -5.93217         6.29384
     2016.15058        -3.30904         6.29384
     2016.15331        -5.17990         6.45844
     2016.15605        -3.10476         6.33969
     2016.15879        -0.81962         6.46080
     2016.16153        -1.69249         6.44081
     2016.16427        -3.97535         6.44669
     2016.16700        -5.83721         6.45021
     2016.16974        -6.03707         6.43963
     2016.17248        -5.53994         6.51841
     2016.17522        -0.81480         6.39495
     2016.17796         5.33934         6.35733
     2016.18069        -0.98353         6.49372
     2016.18343        -6.64039         7.47900
     2016.18617        -2.63425         6.33499
     2016.18891         3.88589         6.30442
     2016.19164        -2.88498         6.29737
     2016.19438         6.03016         6.21741
     2016.19712         0.87330         6.28208
     2016.19986        -0.34056         6.67361
     2016.20260        -4.21343         6.67361
     2016.20533        -4.89129         6.69948
     2016.20807         0.53985         6.43375
     2016.21081        -9.53902         6.38907
     2016.21355        -8.46488         6.34322
     2016.21629        -5.49574         7.22622
     2016.21902        -2.68760         6.26680
     2016.22176        -0.90847         6.31735
     2016.22450        -7.03233         6.35145
     2016.22724        -9.59619         6.45139
     2016.22997        -1.90505         6.22682
     2016.23271        -3.94192         6.20448
     2016.23545        -0.37978         6.22682
     2016.23819         0.32036         6.26797
     2016.24093         0.93749         6.34087
     2016.24366        -1.16737         6.22212
     2016.24640        -0.31323         6.30912
     2016.24914        -3.83909         6.20566
     2016.25188         8.84404         7.18271
     2016.25462         1.59918         6.62423
     2016.25735         1.00132         6.37849
     2016.26009        -7.76355         6.25386
     2016.26283        -8.50641         6.31265
     2016.26557        -4.33127         6.29619
     2016.26830        -2.33913         6.39731
     2016.27104        -3.49400         6.45021
     2016.27378        -0.67386         6.29384
     2016.27652        -1.24972         6.27738
     2016.27926        -3.23958         6.30089
     2016.28199        -5.74445         6.94874
     2016.28473         2.57269         6.32676
     2016.28747        -6.03217         6.84997
     2016.29021       -10.96004         6.26562
     2016.29295        -3.83890         6.26797
     2016.29568        -4.45276         6.34910
     2016.29842        -2.72362         6.41377
     2016.30116        -4.98649         6.32088
     2016.30390       -16.34235         6.35498
     2016.30663         4.07979         6.50430
     2016.30937         2.17793         6.31147
     2016.31211         1.93406         6.37849
     2016.31485         0.69720         6.20918
     2016.31759        -2.20766         6.30089
     2016.32032        -4.50653         6.30442
     2016.32306        -6.13539         6.30324
     2016.32580        -7.69525         6.37144
     2016.32854        -3.75411         6.21624
     2016.33128        -6.87398         6.19978
     2016.33401        -3.71784         6.36909
     2016.33675        -9.60370         6.37967
     2016.33949        -2.23156         6.50195
     2016.34223        -2.57043         6.43846
     2016.34496        -1.84329         6.39731
     2016.34770         1.72785         6.30795
     2016.35044        -0.47102         6.88172
     2016.35318        -0.87088         6.19155
     2016.35592        -8.52274         6.24798
     2016.35865       -12.56260         6.19860
     2016.36139        -5.66447         6.19860
     2016.36413         6.64867         6.41259
     2016.36687         2.04581         6.31265
     2016.36961         7.89594         6.21271
     2016.37234         8.18008         6.20213
     2016.37508        -5.49578         6.24563
     2016.37782        -5.44364         6.19272
     2016.37979         1.49346        10.32434
     2016.39513       -10.59578        10.56537
     2016.39698         5.53732         6.17509
     2016.39972         9.83445         6.22682
     2016.40246         3.07359         6.35498
     2016.40520        -0.74427         6.17861
     2016.40794        -6.12413         6.22094
     2016.41067        -5.98200         6.23270
     2016.41341        -5.32286         6.26915
     2016.41615        -3.89972         6.28561
     2016.41889        -7.41758         6.34087
     2016.42162        -0.53745         6.25857
     2016.42436        -8.01631         6.17156
     2016.42710        -1.89217         6.27032
     2016.42984        -0.60804         6.24681
     2016.43258         0.48010         6.22564
     2016.43531        -2.98776         6.40671
     2016.43805        -0.45362         6.39966
     2016.44079        -2.34849         6.24798
     2016.44355         4.23265         6.34557
     2016.44626        -5.07721         6.22329
     2016.44900        -3.10607         6.29031
     2016.45174        -0.41794         6.25974
     2016.45448         1.71820         6.20566
     2016.45722        -0.40266         6.23505
     2016.45995         7.35947         6.27267
     2016.46269        -3.92439         6.27267
     2016.46543        -2.15125         6.23387
     2016.46817        -1.07611         6.15510
     2016.47091         5.46202         6.35733
     2016.47364        -1.09084         6.24446
     2016.47638         3.63030         6.25034
     2016.47912        -0.96156         6.37732
     2016.48186         2.67857         6.48784
     2016.48459        -0.64429         6.18802
     2016.48733        -1.24115         6.32206
     2016.49007        -0.43702         6.31500
     2016.49281        -5.38488         6.21741
     2016.49555        -3.26474         6.35851
     2016.49828        -3.85160         6.25034
     2016.50102         0.96753         6.33734
     2016.50376        -0.00033         6.36556
     2016.50650         8.71181         6.39731
     2016.50924         0.34794         6.21506
     2016.51197        -3.20592         6.25974
     2016.51471         2.56022         6.31618
     2016.51745         0.35936         6.49607
     2016.52019        -1.83451         6.38320
     2016.52292         2.10663         6.28443
     2016.52566         3.48977         6.20448
     2016.52840         7.10791         6.21271
     2016.53114        -5.10296         6.30442
     2016.60044         0.13352        11.23438
     2016.60232        -0.68739         6.30442
     2016.60506         1.90775         6.28208
     2016.60780        -0.10011         6.29619
     2016.61054         2.53302         6.31383
     2016.61327         1.60816         6.23035
     2016.61601         2.56330         6.21506
     2016.61875         0.75143         6.27150
     2016.62149         0.62157         6.33381
     2016.62423         2.34971         6.40318
     2016.62696         6.92185         6.26797
     2016.62970        -3.76702         6.22800
     2016.63244        -1.63388         6.50312
     2016.63518        -1.08674         6.18449
     2016.63791         5.61740         6.25974
     2016.63949        11.07047        15.97857
     2016.64887        -0.66206         6.22682
     2016.65183         4.46309         7.18389
     2016.65434         0.15422         6.24798
     2016.65708        -3.51764         6.40906
     2016.65982        -0.98551         6.27150
     2016.66256         0.19063         6.30089
     2016.66529         2.54177         6.29031
     2016.66803        -3.46809         6.32206
     2016.67077         2.22804         6.54898
     2016.67351         4.42718         6.23858
     2016.67624         6.83532         6.20801
     2016.67898         7.50245         6.21036
     2016.68172         8.61359         6.29384
     2016.68446         4.12473         6.52429
     2016.68720         0.18787         6.63011
     2016.68993         6.12500         6.27267
     2016.69267         0.74814         6.20801
     2016.69541         7.17628         6.33969
     2016.69815         6.38342         6.17979
     2016.70089         6.19555         6.16686
     2016.70362         4.24369         6.36791
     2016.70636         1.87883         6.57720
     2016.70910         6.18196         6.59366
     2016.71184        10.85010         6.22329
     2016.71457        10.11924         6.20448
     2016.71731        13.60138         6.22094
     2016.72005         5.42151         6.19507
     2016.72279        10.74265         6.27150
     2016.72553        10.29979         6.34322
     2016.72826        12.31693         6.33852
     2016.73100         1.81906         6.15157
     2016.73374         2.30620         6.10689
     2016.73648         6.16134         6.15627
     2016.73921         6.03547         6.30912
     2016.74195         1.06961         6.22212
     2016.74469        -1.50125         6.14334
     2016.74743         8.42989         6.21977
     2016.75017         9.98602         6.16568
     2016.75290         3.20116         6.12218
     2016.75564        11.09930         6.15157
     2016.75838         7.62643         6.23270
     2016.76112         7.53357         6.09631
     2016.76386         5.53771         6.11160
     2016.76659         6.77985         6.30795
     2016.76933         6.65098         6.18802
     2016.77207         4.97612         6.17979
     2016.77481        10.14526         6.27973
     2016.77754         0.31540         6.12218
     2016.78028         0.67153         6.16803
     2016.78302         6.26067         6.16333
     2016.78576        11.37981         6.27267
     2016.78850         9.80594         6.21741
     2016.79002         2.19502        21.88323
     2017.01574         0.44834         6.19978
     2017.01848        -0.84153         6.22329
     2017.02121       -15.24339         6.13511
     2017.02669        -0.37311         6.20095
     2017.02943         4.92102         6.14099
     2017.03216        -6.47784         6.15510
     2017.03490        -8.10170         6.13394
     2017.03764       -11.58457         6.08338
     2017.04038        -7.56943         6.12688
     2017.04312        -5.56429         6.12335
     2017.04585         4.74185         6.46315
     2017.04859         6.20798         6.58072
     2017.05133         3.35612         6.15392
     2017.05407         8.46726         6.14922
     2017.05681        10.24140         6.15863
     2017.05954         1.70253         6.15863
     2017.06228         2.08367         6.18449
     2017.06502        -3.32019         6.15392
     2017.06776        -4.41006         6.16921
     2017.07049        -0.04592         6.17979
     2017.07323        -3.46078         6.15863
     2017.07597        -8.34364         6.18449
     2017.07871        -5.62951         6.25034
     2017.08145        -1.03337         6.19743
     2017.08418        -4.34623         6.21506
     2017.08692        -3.90409         6.17626
     2017.08966        -4.09696         6.17979
     2017.09240        -2.22782         6.29031
     2017.09514         3.30032         6.33499
     2017.09787         0.49945         6.16568
     2017.10061         5.42459         6.19978
     2017.10335         3.06273         6.23740
     2017.10609         0.33587         6.14099
     2017.10882         3.02000         6.21741
     2017.11156        -1.13486         9.07686
     2017.11430         0.57728         6.21977
     2017.11704        -9.21159         6.15627
     2017.11978        -5.45145         6.12688
     2017.12251        -6.93831         6.15980
     2017.12525        -0.02217         6.24211
     2017.12799         5.34796         6.19978
     2017.13073         0.93210         6.17274
     2017.13347         6.00024         6.11395
     2017.13620        -0.20262         6.19272
     2017.13894        -3.42449         6.20801
     2017.14168        -6.58035         6.15745
     2017.14442       -10.37821         6.19978
     2017.14715        -5.96408         6.21036
     2017.14989        -5.78694         6.15392
     2017.15263        -0.77380         6.17861
     2017.15537        -1.40666         6.17626
     2017.15811         1.08147         6.35027
     2017.16084         0.48961         6.17979
     2017.16358       -10.20725         6.23035
     2017.16607        -3.62913         6.83939
     2017.18275        -4.19329         6.20213
     2017.18548       -10.14015         6.15157
     2017.18822       -13.33702         6.22800
     2017.19096        -8.78988         6.21977
     2017.19370        -9.30374         6.24328
     2017.19644        -5.27460         6.21036
     2017.19917        -2.99947         6.16450
     2017.20191        -5.74133         6.23740
     2017.20465        -3.64119         6.39495
     2017.20739        -5.66006         6.19978
     2017.21013        -2.63092         6.30442
     2017.21286        -7.53878         6.15980
     2017.21560        -5.01564         6.23858
     2017.21834         0.79249         6.19978
     2017.22108         3.48263         6.23740
     2017.22381        -5.94923         6.37379
     2017.22655        -6.31509         6.28914
     2017.22929        -8.37396         6.19037
     2017.23203        -2.35582         6.20918
     2017.23477        -7.99268         6.15980
     2017.23750        -7.50355         6.18567
     2017.24024       -10.77741         6.27973
     2017.24298        -6.69527         6.16803
     2017.24572        -8.26513         6.13158
     2017.24846       -12.05100         6.25857
     2017.25119        -6.14786         6.20566
     2017.25393        -6.66972         6.17038
     2017.25667        -8.06859         6.25504
     2017.25941       -13.78445         6.15392
     2017.26214        -6.30031         6.27503
     2017.26424        -2.15721         8.93107
     2017.28227       -13.10530        11.84930
     2017.28405       -11.31821         6.27032
     2017.28679       -18.16408         6.13276
     2017.28952       -14.46194         6.14217
     2017.29226       -10.22180         6.22447
     2017.29500       -13.48466         6.16803
     2017.29774        -7.66353         6.25857
     2017.30047       -12.83839         6.22094
     2017.30321       -13.30825         6.13864
     2017.30595        -9.02811         6.19507
     2017.30869       -10.71098         6.17979
     2017.31143        -4.16384         6.15040
     2017.31416       -10.99270         6.17509
     2017.31690        -9.13257         6.24446
     2017.31964       -10.13043         6.31147
     2017.32238       -12.57529         6.26327
     2017.32512       -11.69115         6.23035
     2017.32785       -13.43802         6.34792
     2017.33059       -12.45188         6.19272
     2017.33333       -12.79974         6.16686
     2017.33607       -15.65260         6.11983
     2017.33880       -14.99447         6.50195
     2017.34154        -3.18933         6.53487
     2017.34428       -10.40719         6.21036
     2017.34702       -11.60406         6.16333
     2017.34976       -11.82392         6.11042
     2017.35249       -14.51378         6.15745
     2017.35523       -12.89364         6.17861
     2017.35797       -10.35151         6.19625
     2017.36071        -4.72337         6.25034
     2017.36344        -7.89123         6.11512
     2017.36618       -10.23510         6.18097
     2017.36892        -8.62696         6.14569
     2017.37166        -9.07982         6.21977
     2017.37440        -8.65168         6.12218
     2017.37713        -9.94255         6.21154
     2017.37987       -13.50941         6.20918
     2017.38261        -9.60327         6.26209
     2017.38535       -12.33813         6.14334
     2017.38809       -10.53500         6.18802
     2017.39082       -12.61886         6.23858
     2017.39356        -8.23072         6.36086
     2017.39630        -5.61659         6.19978
     2017.39904        -8.40645         6.11277
     2017.40177       -10.59131         6.18449
     2017.40451       -12.69217         6.40671
     2017.40725        -8.42504         6.25269
     2017.40999        -5.58990         6.29384
     2017.41273        -3.82376         6.30442
     2017.41546        -8.45462         6.28678
     2017.41820       -11.42649         6.30677
     2017.42094        -8.90035         6.21389
     2017.42368        -4.26021         6.33617
     2017.42642        -7.87708         6.11512
     2017.42915       -10.99994         6.26092
     2017.43189        -7.87080         6.31618
     2017.43463        -5.96266         6.31383
     2017.43737        -8.52953         6.14687
     2017.44010         1.50461         6.18567
     2017.44284        -5.48125         6.28914
     2017.44558        -8.72911         6.29972
     2017.44832        -5.44698         6.33617
     2017.45106        -2.53384         6.30324
     2017.45379        -1.39470         6.34910
     2017.45653        -1.72057         6.51841
     2017.45927        -3.38743         6.36791
     2017.46201        -7.25129         6.34557
     2017.46475        -7.88515         6.52194
     2017.46748        -7.02802         6.54310
     2017.47022        -8.70488         6.38672
     2017.47296        -5.71874         6.38202
     2017.47570       -12.91260         6.31500
     2017.47843        -9.59747         6.31500
     2017.48111       -12.31733         6.60541
     2017.48765       -22.76601        13.23082
     2017.48939        -6.17192         6.24798
     2017.49212        -8.26178         6.32794
     2017.49486       -10.60864         6.35145
     2017.49699        -4.99754         8.59715
     2017.50408       -12.46318        13.34369
     2017.50581        -8.64910         6.28678
     2017.50855        -3.43896         6.39495
     2017.51129       -10.23382         6.43375
     2017.51403        -7.13568         6.42787
     2017.51676        -7.47655         6.37614
     2017.51950       -11.88541         6.32323
     2017.52224        -2.99527         6.38790
     2017.52498        -5.02013         6.33617
     2017.52772        -7.03000         6.47843
     2017.53045        -6.59986         6.38202
     2017.53319        -7.38372         6.36909
     2017.53593        -3.74059         6.47020
     2017.53867         2.45155         6.31265
     2017.54141         1.71169         6.26562
     2017.54414        -4.02617         6.30207
     2017.54688        -5.21304         6.31383
     2017.54962        -6.04590         6.38437
     2017.55236        -3.78476         6.25974
     2017.55509        -2.63962         6.29031
     2017.55783        -8.13149         6.35733
     2017.56047        -3.85536         6.71711
     2017.56464        27.53285       145.38732
     2017.56605        -2.50808         6.28561
     2017.56828        -4.95296         7.74237
     2017.59997        -9.17437        14.12439
     2017.60164        -9.99329         6.29854
     2017.60438       -11.84215         6.30089
     2017.60711       -11.41002         6.30207
     2017.60985        -7.97888         6.53017
     2017.61259        -3.64874         6.39025
     2017.61533        -5.03461         6.47843
     2017.61807        -1.39047         6.42787
     2017.62080        -0.73133         6.33499
     2017.62354        -4.10719         6.28208
     2017.62628        -3.28106         6.39848
     2017.62902         1.86608         6.55486
     2017.63175        -6.52478         6.33146
     2017.63449        -6.80264         6.33264
     2017.63723        -6.11251         6.25504
     2017.63997        -7.05937         6.36203
     2017.64271        -0.17523         6.46785
     2017.64544        -3.94010         6.44786
     2017.64818        -3.24796         6.43375
     2017.65092        -4.61282         6.22800
     2017.65366        -3.09268         6.20683
     2017.65639        -3.21255         6.28561
     2017.65913        -2.15241         6.26562
     2017.66187        -1.88527         6.38437
     2017.66461         0.35687         6.53134
     2017.66735        -1.63900         6.42317
     2017.67008        -0.91386         6.19155
     2017.67282         0.58028         6.46550
     2017.67556        -4.04459         6.31618
     2017.67830        -2.09445         6.23858
     2017.68104        -0.23531         6.25621
     2017.68377         4.66883         6.40554
     2017.68651         4.86496         6.60424
     2017.68925        -1.03490         6.56309
     2017.69199        -1.07476         6.28678
     2017.69472        -0.18062         6.26327
     2017.69746         5.42651         6.31618
     2017.70020         2.11265         6.56074
     2017.70294         8.09579         6.57720
     2017.70568        -2.03708         6.36438
     2017.70841         2.20606         6.23740
     2017.71115         4.56320         6.33852
     2017.71389         4.02834         6.58895
     2017.71663        11.64247         6.23858
     2017.71937         4.66361         6.30442
     2017.72210         5.83275         6.32794
     2017.72484         0.12389         6.13864
     2017.72758         3.95302         6.35498
     2017.73032         4.44816         6.27385
     2017.73305         2.73230         6.25621
     2017.73579        -3.23457         6.22447
     2017.73853         0.80757         6.67831
     2017.74127        -3.57829         6.34322
     2017.74401         4.79985         6.27738
     2017.74674        11.35298         6.44081
     2017.74948         2.92312         6.32794
     2017.75222         3.06326         6.22564
     2017.75496        -1.72361         6.25974
     2017.75770        -0.26347         6.48901
     2017.76043        -2.98833         6.27973
     2017.76317         5.10581         6.40554
     2017.76591         5.38694         6.29854
     2017.76865         1.68108         6.28091
     2017.77138         1.97122         6.24328
     2017.77412         0.93336         6.29619
     2017.77686        -1.69651         6.36556
     2017.77960        -1.55937         6.33969
     2017.78234        -0.99323         6.26209
     2017.78507         1.95890         6.20095
     2017.78781        -2.84596         6.29501
     2017.79055        -4.07582         6.25504
     2017.79329         4.53932         6.76532
     2017.79603         4.85545         6.30560
     2017.79876        11.14859         6.46550
     2017.80150         9.36473         6.36556
     2017.80424         8.71187         6.24093
     2017.80698         3.54200         6.28561
     2017.80971         1.35614         6.26444
     2017.81245        -1.29672         6.32206
     2017.81519        -1.39659         6.28561
     2017.81793        -9.59845         6.29384
     2017.82067        -6.79231         6.26092
     2017.82340         1.31083         6.28443
     2017.82614        -0.98204         6.24798
     2017.82888        -2.71090         6.32794
     2017.83162        -0.87576         6.35498
     2017.83436         2.88338         6.37379
     2017.83709         5.82251         6.42200
     2017.83983        -0.25135         6.29149
     2017.84257        -0.42321         6.29972
     2017.84531        -1.72408         6.24681
     2017.84804        -8.59394         6.27620
     2017.85078        -0.60180         6.30795
     2017.85352         1.02534         6.31147
     2017.85626         1.21247         6.57484
     2017.85900        -2.27339         6.41141
     2017.86173         3.24975         6.38555
     2017.86447        -0.58712         6.29619
     2017.86721         2.01302         6.32558
     2017.86995        -1.52284         6.26327
     2017.87269         7.30630         6.31618
     2017.87542         5.80443         6.25269
     2017.87816         5.58757         6.23270
     2017.88090         1.64371         6.20213
     2017.88364         7.54785         6.32441
     2017.88637         4.25798         6.36438
     2017.88911        -0.54588         6.57720
     2017.89185        -9.19374         7.02634
     2017.89459         5.52739         6.41141
     2017.89733         4.44753         6.35851
     2017.90006         1.28267         6.29854
     2017.90280         2.34981         6.30795
     2017.90554         2.54694         6.25151
     2017.90828         3.15508         6.27855
     2017.91102        -1.44378         6.42317
     2017.91375        -1.29864         6.38907
     2017.91649        -0.24451         6.21154
     2017.91923         1.24363         6.24211
     2017.92197         3.00977         6.16568
     2017.92470        -1.51510         6.32911
     2017.92744        -6.06096         6.32676
     2017.93018        -6.93682         6.25621
     2017.93292        -5.85368         6.21154
     2017.93566        -6.21455         6.22800
     2017.93839        -0.09741         6.21154
     2017.94113        -2.06027         6.31618
     2017.94387        -0.26513         6.23505
     2017.94661         0.68300         6.33734
     2017.94935         0.51614         6.28561
     2017.95208        -1.23672         6.35615
     2017.95482        -4.39359         6.26797
     2017.95756        -2.73445         6.37967
     2017.96030         4.11369         6.19155
     2017.96303        -1.54417         6.25621
     2017.96577         0.63696         6.48078
     2017.96851         5.77310         6.23270
     2017.97125        -1.55476         6.21741
     2017.97399         1.86138         6.16098
     2017.97672        -3.88949         6.18449
     2017.97946        -2.31135         6.19625
     2017.98220        -5.84421         6.17979
     2017.98494        -3.25808         6.18684
     2017.98767        -6.11294         6.17861
     2017.99041        -4.11780         6.19978
     2017.99315         2.13834         6.22917
     2017.99589         0.88947         6.78295
     2017.99863        -4.57839         6.21389
     2018.00136        -7.61125         6.23387
     2018.00410       -11.60012         6.11512
     2018.00684        -5.09498         6.17979
     2018.00958        -3.33884         6.23858
     2018.01232        -7.47370         6.24563
     2018.01505         1.19843         6.20801
     2018.01779         1.22857         6.33617
     2018.02053        -1.14329         6.16333
     2018.02327         0.79185         6.13511
     2018.02600        -1.84302         6.29737
     2018.02874        -5.31388         6.21859
     2018.03148       -10.34874         6.22917
     2018.03422       -12.61161         6.14687
     2018.03696       -10.13247         6.12570
     2018.03969       -12.26933         6.13864
     2018.04243        -9.27119         6.19978
     2018.04517       -13.50606         6.20918
     2018.04791        -5.79992         6.19272
     2018.05065        -4.18478         6.18684
     2018.05338        -3.97164         6.11983
     2018.05612        -8.58851         6.12570
     2018.05886       -10.62137         6.19625
     2018.06160        -5.43623         6.17038
     2018.06433        -3.67710         6.26327
     2018.06707         1.49604         6.31735
     2018.06981        -4.05882         6.30442
     2018.07255        -9.48168         6.27385
     2018.07529       -17.54955         6.39495
     2018.07802       -11.96241         6.37379
     2018.08076        -7.10027         6.35968
     2018.08347       -10.42414         6.34675
     2018.08727        -9.79995        12.44071
     2018.08898       -15.05686         6.46668
     2018.09171       -12.65572         6.36674
     2018.09445        -4.70359         6.38320
     2018.09719        -8.86645         6.45962
     2018.09993        -5.60931         6.27150
     2018.10266       -13.16817         6.28091
     2018.10540        -8.71104         6.47608
     2018.10814        -4.68290         6.41259
     2018.11088        -6.34276         6.28091
     2018.11362        -6.28463         6.26915
     2018.11635        -7.31649         6.24681
     2018.11909        -9.57335         6.37967
     2018.12183        -2.60821         6.40436
     2018.12457        -5.44008         6.29854
     2018.12731       -12.36894         6.24093
     2018.13004         0.59220         6.34204
     2018.13278         2.23434         6.26444
     2018.13552         2.11447         6.27855
     2018.13826        -7.36839         6.34910
     2018.14099        -8.32825         6.28678
     2018.14373        -7.24612         6.27738
     2018.14647        -2.63198         6.55486
     2018.14921        -1.29484         6.40554
     2018.15195        -1.21770         6.30912
     2018.15468        -6.14757         6.27267
     2018.15742        -4.06443         6.28091
     2018.16016        -4.63929         6.31147
     2018.16290        -2.41415         6.47138
     2018.16564        -0.37302         6.44669
     2018.16837        -8.17988         6.26092
     2018.17111        -3.96174         6.20566
     2018.17385        -6.94061         6.28914
     2018.17659        -6.70147         6.27267
     2018.17932        -5.87433         6.28678
     2018.18206        -3.69719         6.45374
     2018.18480        -2.39606         6.44316
     2018.18754        -1.62292         6.24328
     2018.19028        -7.97478         6.29737
     2018.19301       -10.67964         6.23387
     2018.19575        -2.40351         6.21977
     2018.19849        -4.65637         6.26209
     2018.20123         6.10677         6.33381
     2018.20397         7.08390         6.26327
     2018.20670        -1.81496         6.24563
     2018.20944        -2.81782         6.25974
     2018.21218        -4.01168         6.23270
     2018.21492       -17.14955         6.20683
     2018.21765         0.78459         6.15157
     2018.22039        -3.17327         6.22329
     2018.22313        -1.21213         6.19978
     2018.22587        -6.36600         6.32558
     2018.22861        -9.98786         6.12335
     2018.23134        -7.62072         6.15040
     2018.23408        -8.31759         6.30677
     2018.23682        -6.75745         6.14922
     2018.23956        -5.07631         6.19978
     2018.24230        -7.03517         6.12923
     2018.24503        -4.67304         6.10219
     2018.24777        -4.91990         6.15863
     2018.25051        -3.22876         6.17038
     2018.25325        -8.87263         6.13864
     2018.25598        -3.62049         6.13629
     2018.25872       -10.25635         6.22094
     2018.26146        -7.55721         6.26562
     2018.26420        -7.16508         6.28796
     2018.26694       -10.07494         6.13511
     2018.26967       -12.64880         6.11042
     2018.27241       -11.34366         6.15392
     2018.27515        -0.01553         6.10572
     2018.27789         0.30361         6.27620
     2018.28062        -9.71325         6.33499
     2018.28336        -9.47712         6.22329
     2018.28610       -10.30398         6.10689
     2018.28884         4.01216         6.28208
     2018.29158        -0.79970         6.29501
     2018.29431        -8.07257         6.21506
     2018.29705       -11.60443         6.37144
     2018.29979       -12.33629         6.13158
     2018.30253       -11.48615         6.14217
     2018.30527       -10.94102         6.08690
     2018.30800        -9.64388         6.11630
     2018.31074       -14.93074         6.09278
     2018.31348       -11.40661         6.06574
     2018.31622       -14.24047         6.05634
     2018.31895        -7.53533         6.22564
     2018.32169        -5.35819         6.27620
     2018.32443        -8.15606         6.22329
     2018.32717       -12.06992         6.13276
     2018.32991        -9.37378         6.22212
     2018.33264        -8.16164         6.10454
     2018.33538       -11.68551         6.56779
     2018.33812        -5.68237         6.40318
     2018.34086       -11.17523         6.13746
     2018.34360        -9.54910         6.10219
     2018.34633       -13.50396         6.21506
     2018.34907       -16.71382         6.10572
     2018.35181       -11.30668         6.56779
     2018.35455        -4.49155         6.20213
     2018.35728        -7.74041         6.17274
     2018.36002        -5.28527         6.24681
     2018.36276        -9.33714         6.23270
     2018.36550        -8.55400         6.14099
     2018.36824       -16.17386         6.16333
     2018.37097        -6.64172         6.27150
     2018.37371        -9.40059         6.12923
     2018.37645        -2.20545         6.39495
     2018.37919       -10.92931         6.12570
     2018.38193       -10.91217         6.12923
     2018.38466        -4.68804         6.14922
     2018.38740        -9.33890         6.10807
     2018.39014       -12.33476         6.15040
     2018.39288       -11.15963         6.23623
     2018.39561        -6.85249         6.16686
     2018.39835        -3.98035         6.19390
     2018.40109        -8.14721         6.11277
     2018.40383        -8.60708         6.16921
     2018.40657        -8.35994         6.20213
     2018.40930         1.54220         6.38907
     2018.41160         3.15231         7.41904
     2018.42427        10.70495        27.35404
     2018.42573        -7.95098         6.17744
     2018.42847        -2.09384         6.18214
     2018.43121        -3.47770         6.20683
     2018.43394       -11.23057         6.24093
     2018.43668       -10.75043         6.19743
     2018.43942        -6.61029         6.08926
     2018.44216        -5.26815         6.14452
     2018.44490        -6.27702         6.08808
     2018.44763        -3.29988         6.17509
     2018.45037        -5.53074         6.08573
     2018.45311        -2.67061         6.08808
     2018.45585        -3.54147         6.17861
     2018.45859        -0.96933         6.17861
     2018.46132        -9.13919         6.09396
     2018.46406        -7.18706         6.10454
     2018.46680        -5.75292         6.13511
     2018.46954        -9.88378         6.11395
     2018.47227        -4.24864         6.37379
     2018.47501        -4.96251         6.11042
     2018.47775        -9.73337         6.07044
     2018.48049        -3.30423         6.35498
     2018.48323        -4.77910         6.54898
     2018.48596        -9.61196         6.19390
     2018.48870        -8.63882         6.19390
     2018.49144        -8.53468         6.10454
     2018.49418        -3.15655         6.27973
     2018.49692        -0.92541         6.36791
     2018.49965        -0.70427         6.14217
     2018.50239        -8.00114         6.40789
     2018.50513       -13.81900         6.11630
     2018.50787        -5.96886         6.18684
     2018.51060        -2.50272         6.26444
     2018.51334        -8.51159         6.22447
     2018.51608        -6.98545         6.15510
     2018.51882       -12.02131         6.12100
     2018.52156        -8.10217         6.40671
     2018.52429        -7.42804         6.17626
     2018.52703        -5.72790         6.12335
     2018.52977       -10.16876         6.10924
     2018.53251        -7.38163         6.16450
     2018.53525        -7.47649         6.16450
     2018.53798        -5.76235         6.11395
     2018.54072        -6.96121         6.16686
     2018.54346        -8.87608         6.26327
     2018.54620        -3.87694         6.13746
     2018.54893        -9.34480         6.08690
     2018.55167        -8.33266         6.18567
     2018.55441        -8.13053         6.13276
     2018.55715        -4.52639         6.25151
     2018.55989       -11.17925         6.36203
     2018.56262       -11.23012         6.15863
     2018.56536        -9.88798         6.14569
     2018.56810        -7.81884         6.18802
     2018.57084        -6.42070         6.30324
     2018.57357        -7.94157         6.42435
     2018.57631       -10.12243         6.58543
     2018.57905        -3.23829         6.49137
     2018.58179        -1.13815         6.42082
     2018.58453        -9.53702         6.45374
     2018.58726        -5.64988         6.10454
     2018.59000        -6.54374         6.13629
     2018.59274        -3.89661         6.14217
     2018.59548        -7.30847         6.07632
     2018.59822        -5.82033         6.19743
     2018.60095        -7.58019         6.08573
     2018.60369        -4.40906         6.06339
     2018.60643        -5.87492         6.15157
     2018.60917         2.59522         6.26209
     2018.61190        -6.18965         6.13981
     2018.61464        -1.49051         6.17744
     2018.61738        -3.25537         6.04810
     2018.62012        -2.85623         6.13276
     2018.62286         2.34190         6.23035
     2018.62559        -1.63096         6.46785
     2018.62833        -3.37382         6.23270
     2018.63107        -4.55868         6.13864
     2018.63381        -4.83555         6.24211
     2018.63655        -3.46941         6.19743
     2018.63928        -0.58027         6.35380
     2018.64202         2.19486         6.58778
     2018.64476         0.15300         6.21977
     2018.64750        -8.33186         6.14217
     2018.65023         3.97228         6.29737
     2018.65297         2.46341         6.14099
     2018.65571         1.71055         6.21624
     2018.65845        -1.63631         6.20213
     2018.66119         6.29583         6.32441
     2018.66392         3.91096         6.11042
     2018.66666         0.17110         6.12923
     2018.66940        -1.46976         6.14804
     2018.67214        -1.22263         6.24328
     2018.67488        -2.56249         6.18567
     2018.67761        -2.22735         6.18332
     2018.68035        -0.82821         6.24211
     2018.68309        -6.76908         6.17626
     2018.68583         0.67106         6.29031
     2018.68856         1.39220         6.29266
     2018.69130         6.75934         6.27738
     2018.69404         3.60447         6.36086
     2018.69678        -1.33639         6.21154
     2018.69952         0.88875         6.24446
     2018.70225        -4.15812         6.30324
     2018.70499        -4.20698         6.19978
     2018.70773        -2.44784         6.24093
     2018.71047        -2.86870         6.21741
     2018.71321        -3.71357         6.18684
     2018.71594        -3.34043         6.17509
     2018.71868        -8.15829         6.15275
     2018.72142        -7.94015         6.21036
     2018.72416        -3.62802         6.42552
     2018.72689        -1.57588         6.25386
     2018.72963        -3.77274         6.21506
     2018.73237        -5.59861         6.15392
     2018.73511       -10.10547         6.15275
     2018.73785        -4.05633         6.19625
     2018.74058        -1.99019         6.17274
     2018.74332         4.89594         6.17156
     2018.74606         0.49308         6.16568
     2018.74880        -1.39478         6.32676
     2018.75154        -1.79265         6.41141
     2018.75427        -5.57251         6.17626
     2018.75701         3.82363         6.39025
     2018.75975         3.31477         6.25857
     2018.76249         4.28690         6.15275
     2018.76522        -4.45296         6.26444
     2018.76796        -0.34682         6.17274
     2018.77070        -0.51668         6.19743
     2018.77344         2.26345         6.16215
     2018.77618         4.17659         6.18214
     2018.77891         3.30673         6.25269
     2018.78165        -3.52514         6.24211
     2018.78439        -6.53700         6.12570
     2018.78713        -6.20586         6.16921
     2018.78987        -7.73772         6.29737
     2018.79260        -4.30859         6.18802
     2018.79534         4.00055         6.20566
     2018.79808        -7.61031         6.12923
     2018.80082        -3.92517         6.14687
     2018.80355         2.25096         6.14804
     2018.80629         4.13310         6.40906
     2018.80903        -1.62276         6.18920
     2018.81177         0.67437         6.51841
     2018.81451        -5.87749         6.23975
     2018.81724        -2.56535         6.27855
     2018.81998         0.86279         6.34087
     2018.82272         6.80892         6.26327
     2018.82546         3.93006         6.21389
     2018.82820        -0.62980         6.22094
     2018.83093        -4.17366         6.22094
     2018.83367        -1.32953         6.21389
     2018.83641         1.64461         6.41141
     2018.83915         2.87175         6.26680
     2018.84188        -6.57212         6.22682
     2018.84462         4.03402         6.19978
     2018.84736        -4.47584         6.16568
     2018.85010        -3.62570         6.18214
     2018.85284        -3.69457         6.17391
     2018.85557        -7.08943         6.23270
     2018.85831        -5.83029         6.18449
     2018.86105        -1.63816         6.27855
     2018.86379        -6.78902         6.32794
     2018.86653        -3.88688         6.19390
     2018.86926       -10.27574         6.29266
     2018.87200        -1.13161         6.25504
     2018.87474         0.37553         6.26680
     2018.87748        -2.39733         6.38555
     2018.88021        -4.15319         6.56897
     2018.88295        -2.39006         6.34322
     2018.88569         1.77908         6.45844
     2018.88843         3.33122         6.45374
     2018.89117        -1.98265         6.51018
     2018.89390        -0.76751         6.46550
     2018.89664        -4.78637         6.53487
     2018.89938        -2.40923         6.44786
     2018.90212         0.82790         6.45609
     2018.90485         2.16604         6.46668
     2018.90759        -3.37082         6.44316
     2018.91033         1.89232         6.47255
     2018.91307         6.56045         6.51018
     2018.91581         3.50859         6.42435
     2018.91854         6.34873         6.34087
     2018.92128        -0.48014         6.28443
     2018.92402        -1.27300         6.31853
     2018.92676         3.47914         6.36674
     2018.92950         2.68728         6.33499
     2018.93223        -0.16659         6.50312
     2018.93497         3.11455         6.39495
     2018.93771        -4.04631         6.34557
     2018.94045         2.70683         6.34204
     2018.94318        -0.70304         6.27855
     2018.94592         1.10110         6.24798
     2018.94866         3.11624         6.31500
     2018.95140        12.02037         6.54075
     2018.95414         3.53551         6.26915
     2018.95687         3.59865         6.32676
     2018.95961         1.33979         6.32794
     2018.96235         7.45892         6.39378
     2018.96509         5.05106         6.38672
     2018.96783         1.11920         6.34087
     2018.97056         2.03234         6.38437
     2018.97330        -2.51853         6.35615
     2018.97604        -2.36939         6.32794
     2018.97878         1.37375         6.30089
     2018.98151        -7.76412         6.30207
     2018.98425        -1.99098         6.49724
     2018.98699       -10.56884         6.41494
     2018.98973        -5.89770         6.39848
     2018.99247        -7.81157         6.40436
     2018.99520        -1.02043         6.37849
     2018.99794        -9.42629         6.33146
     2019.00068        -9.32116         6.39613
     2019.00342        -4.06402         6.33499
     2019.00616         4.94212         6.45492
     2019.00889         1.32126         6.33617
     2019.01163         0.58739         6.41377
     2019.01437         1.52953         6.35851
     2019.01711         3.56167         6.30677
     2019.01984        -6.03219         6.35263
     2019.02258        -7.35206         6.29149
     2019.02532       -10.73692         6.33617
     2019.02806        -6.62178         6.28208
     2019.03080        -5.67365         6.31265
     2019.03353        -6.04351         6.37967
     2019.03627       -13.53837         6.26562
     2019.03901        -4.50323         6.22329
     2019.04175        -7.39810         6.24093
     2019.04449        -2.18196         6.20801
     2019.04722        -5.19982         6.41729
     2019.04996        -9.35768         6.40789
     2019.05270       -12.87055         6.48431
     2019.05544        -6.54341         6.39966
     2019.05817       -12.39727         6.52311
     2019.06091        -3.30114         6.41141
     2019.06365        -5.00800         6.42670
     2019.06639        -3.69686         6.34675
     2019.06913        -6.39972         6.43728
     2019.07186        -4.79559         6.47020
     2019.07460        -9.36545         6.23035
     2019.07734        -4.37731         6.25739
     2019.08008         1.41383         6.23505
     2019.08282        -3.94104         6.46668
     2019.08555        -2.12890         6.27150
     2019.08829        -5.84276         6.21036
     2019.09103         1.30437         6.27503
     2019.09377         5.65351         6.24798
     2019.09650        -1.26735         6.23035
     2019.09924        -2.97121         6.23387
     2019.10198       -13.93208         6.16215
     2019.10472        -8.10494         6.19272
     2019.10746       -10.94880         6.16215
     2019.11019        -4.04067         6.27385
     2019.11293        -4.37353         6.31383
     2019.11567        -4.38539         6.52076
     2019.11841        -4.47625         6.27620
     2019.12115         8.07588         6.49254
     2019.12388         4.53202         6.47608
     2019.12662        -6.00484         6.61482
     2019.12936        -8.00270         6.34557
     2019.13210       -13.30057         6.40318
     2019.13483       -15.79443         6.40318
     2019.13757       -10.27329         6.35263
     2019.14031        -9.06216         6.36438
     2019.14305       -11.37602         6.27150
     2019.14579       -11.37988         6.29619
     2019.14852       -15.47874         6.31618
     2019.15126       -11.60261         6.29031
     2019.15400       -15.89847         6.32088
     2019.15674       -16.74033         6.23858
     2019.15948       -15.40619         6.21859
     2019.16221       -17.13006         6.41024
     2019.16495       -13.87392         6.21154
     2019.16769       -17.93078         6.28326
     2019.17043       -17.71665         6.19625
     2019.17316       -14.02051         6.19037
     2019.17590        -7.71237         6.20448
     2019.17864        -4.50123         6.32911
     2019.18138        -9.77710         6.23975
     2019.18412       -16.46596         6.23152
     2019.18685       -14.31682         6.23152
     2019.18959       -13.71268         6.32911
     2019.19233        -3.65155         6.28326
     2019.19507       -11.44841         6.26562
     2019.19780       -13.73227         6.16803
     2019.20054        -9.35614         6.32441
     2019.20328       -18.25000         6.30560
     2019.20602        -8.34686         6.63246
     2019.20876       -16.07772         6.23270
     2019.21149       -14.27959         6.15980
     2019.21423        -9.80545         6.16921
     2019.21697       -10.89031         6.18567
     2019.21971        -6.79617         6.33499
     2019.22245       -14.24804         6.29737
     2019.22518        -8.88290         6.19272
     2019.22792        -9.00376         6.18449
     2019.23066        -8.66463         6.28208
     2019.23340        -5.85149         6.21389
     2019.23613       -11.85335         6.13981
     2019.23887       -12.63421         6.16568
     2019.24161       -18.60508         6.58072
     2019.24435       -12.01094         6.32323
     2019.24709       -10.68480         6.29737
     2019.24982       -10.48167         6.14334
     2019.25256       -11.97553         6.27032
     2019.25530        -9.15439         6.23152
     2019.25804        -6.26225         6.19272
     2019.26078        -6.84312         6.25504
     2019.26351       -10.29698         6.29501
     2019.26625       -10.10184         6.15392
     2019.26899        -5.93470         6.25151
     2019.27173        -6.97457         6.55603
     2019.27446       -11.49243         6.17156
     2019.27720        -9.58329         6.25151
     2019.27994        -9.74116         6.06927
     2019.28268        -6.55802         6.24328
     2019.28542         3.84512         6.14452
     2019.28815        -2.91174         6.20801
     2019.29089        -6.11861         6.17156
     2019.29363       -12.56847         6.09396
     2019.29637       -12.57633         6.35968
     2019.29911        -5.91219         6.20801
     2019.30184        -7.42006         6.23858
     2019.30458       -12.73992         6.15863
     2019.30732       -13.11278         6.16568
     2019.31006       -10.47665         6.29149
     2019.31279       -14.54351         6.24093
     2019.31553        -2.66837         6.14334
     2019.31827        -3.24023         6.23387
     2019.32101        -8.53510         6.20448
     2019.32375       -19.46196         6.06692
     2019.32648       -10.11382         6.19860
     2019.32922        -7.82168         6.16333
     2019.33196       -10.39155         6.33969
     2019.33470        -7.91741         6.33381
     2019.33744       -14.84727         6.22800
     2019.34017       -10.16214         6.11042
     2019.34291       -11.32600         6.16098
     2019.34565       -11.58886         6.40906
     2019.34839       -13.27472         6.31971
     2019.35112       -16.39259         6.09631
     2019.35386       -13.08345         6.12453
     2019.35660        -8.91631         6.08220
     2019.35934        -7.11918         6.19625
     2019.36208       -10.65404         6.20095
     2019.36481        -8.98590         6.18684
     2019.36755       -11.91676         6.23623
     2019.37029       -10.36463         6.17391
     2019.37303        -8.27549         6.20095
     2019.37577        -8.71035         6.40083
     2019.37850        -9.44721         6.22094
     2019.38124        -2.88008         6.22212
     2019.38398        -5.06094         6.15627
     2019.38672        -8.34280         6.14452
     2019.38945       -11.20067         6.22212
     2019.39219        -7.04353         6.18214
     2019.39493        -6.98239         6.15980
     2019.39767       -10.29125         6.21741
     2019.40041        -6.83412         6.17626
     2019.40314       -10.15398         6.17861
     2019.40588        -3.78184         6.08808
     2019.40862        -8.11970         6.16333
     2019.41136        -8.45257         6.21977
     2019.41410        -8.55443         6.16450
     2019.41683        -9.25129         6.37732
     2019.41957        -6.00616         6.34792
     2019.42231        -8.94802         6.16333
     2019.42505        -6.41288         6.19743
     2019.42778        -6.81774         6.41377
     2019.43052        -4.56961         6.52194
     2019.43326        -4.40547         6.25269
     2019.43600       -12.39733         6.15157
     2019.43874       -11.42019         6.32558
     2019.44147       -15.10806         6.25151
     2019.44421        -9.26692         6.23740
     2019.44695       -12.75378         6.33734
     2019.44969        -4.47165         6.31147
     2019.45243        -7.84651         6.22917
     2019.45516        -9.01337         6.32323
     2019.45790       -12.89623         6.24093
     2019.46064        -4.54810         6.29266
     2019.46338        -3.34396         6.62188
     2019.46611         1.25318         6.60541
     2019.46885        -3.47768         6.54663
     2019.47159       -12.07455         6.27973
     2019.47433        -0.07541         6.57249
     2019.47707        -2.96627         6.27385
     2019.47980        -4.04214         6.35380
     2019.48254       -12.27800         6.42317
     2019.48528        -8.36986         6.44786
     2019.48802       -10.28472         6.31853
     2019.49076        -9.23959         6.25034
     2019.49349        -7.06445         6.23035
     2019.49623       -11.21531         6.15745
     2019.49897        -9.57418         6.27503
     2019.50171        -7.83004         6.15980
     2019.50444        -1.77090         6.46785
     2019.50718       -12.56176         6.15863
     2019.50992       -10.76863         6.32441
     2019.51266        -5.21749         6.24446
     2019.51540        -9.63635         6.30324
     2019.51813       -12.42421         6.23387
     2019.52087        -8.97608         6.21741
     2019.52361       -14.53494         6.26562
     2019.52635        -9.50280         6.16568
     2019.52908        -9.18067         6.49489
     2019.53182       -13.78853         6.40083
     2019.53456        -6.76239         6.38790
     2019.53730        -7.02025         6.46315
     2019.54004        -1.51312         6.35498
     2019.54277        -1.24098         6.36556
     2019.54551        -8.20784         6.55956
     2019.54825        -5.50470         6.15510
     2019.55099       -15.46657         6.35380
     2019.55373        -5.88743         6.36791
     2019.55646        -4.68829         6.37379
     2019.55920       -10.23616         6.70888
     2019.56194        -9.61402         6.15745
     2019.56468       -12.85788         6.27503
     2019.56741        -5.12374         6.27973
     2019.57015       -12.80961         6.15157
     2019.57289        -6.87347         6.23387
     2019.57563       -13.95133         6.30089
     2019.57837       -13.75119         6.27150
     2019.58110        -7.56806         6.15157
     2019.58384        -7.12392         6.43375
     2019.58725        -9.28775         9.17092
     2019.58932        -7.76765         6.24093
     2019.59206        -3.83151         6.28326
     2019.59479       -10.35937         6.16921
     2019.59753        -4.73523         6.46785
     2019.60027        -5.55110         6.39025
     2019.60301        -6.95396         6.35498
     2019.60574         0.21918         6.49019
     2019.60848       -10.27169         9.30378
     2019.61122       -10.02655         6.20095
     2019.61396        -6.76741         6.27620
     2019.61670        -6.85227         6.31618
     2019.61943         0.16986         6.22212
     2019.62217        -2.97800         6.38202
     2019.62491        -4.62186         6.21506
     2019.62765        -1.05972         6.12688
     2019.63039         3.39641         6.32441
     2019.63312        -7.54945         6.23858
     2019.63586        -9.30931         6.31735
     2019.63860        -4.83718         6.31383
     2019.64134        -7.14204         6.30089
     2019.64407        -2.61590         6.75709
     2019.64681        -6.03676         6.22917
     2019.64955        -4.77863         6.17626
     2019.65229        -2.15849         6.21977
     2019.65503        -8.81235         6.28914
     2019.65776        -9.49821         6.32558
     2019.66050        -8.03708         6.32323
     2019.66324        -1.55194         6.23505
     2019.66598        -4.71880         6.28326
     2019.66872        -2.06867         6.31500
     2019.67145       -10.42853         6.24328
     2019.67419       -18.20739        26.25823
     2019.67695        -5.39725         6.44904
     2019.67967        -9.66312         6.49607
     2019.68240        -5.28198         6.17979
     2019.68514        -4.92284         6.45609
     2019.68788        -6.83970         6.25621
     2019.69062        -4.03457         6.28326
     2019.69336        -6.74943         6.13394
     2019.69609        -5.23429         6.11042
     2019.69883        -7.00616         6.39848
     2019.70157        -7.99302         6.20683
     2019.70431        -8.25288         6.19155
     2019.70705        -4.66474         6.13629
     2019.70978         1.59339         6.24681
     2019.71252       -12.81747         6.22682
     2019.71526        -4.28033         6.11512
     2019.71800        -1.54219         6.41964
     2019.72073        -6.76206         6.59131
     2019.72347        -4.69992         6.19860
     2019.72621        -2.97878         6.24446
     2019.72895        -4.67365         6.27385
     2019.73169        -1.65151         6.20566
     2019.73442         7.68963         6.45727
     2019.73716        -3.99623         6.29854
     2019.73990         4.03790         6.59954
     2019.74264        -1.38596         6.47608
     2019.74538         1.79018         6.45727
     2019.74811         2.47731         6.40554
     2019.75085        -4.94255         6.30442
     2019.75359        -4.38741         6.56779
     2019.75633        -7.60327         6.31735
     2019.75906        -7.09414         6.22800
     2019.76180        -5.20000         6.28208
     2019.76454        -4.36286         6.27503
     2019.76728        -2.22772         6.42787
     2019.77002        -6.31659         6.31735
     2019.77275        -7.39645         6.45139
     2019.77549         0.28869         6.40436
     2019.77823        -2.15118         6.38672
     2019.78097        -0.95204         6.39378
     2019.78371        -4.14490         6.36438
     2019.78644        -2.99676         6.29972
     2019.78918         3.02937         6.49372
     2019.79192         5.17451         6.48666
     2019.79466         3.65665         6.58543
     2019.79739         1.26879         6.23740
     2019.80013         2.04792         6.25621
     2019.80287        -4.11594         6.48078
     2019.80561        -5.13480         6.56426
     2019.80835        -9.38567         6.30677
     2019.81108        -4.99753         6.36321
     2019.81382         1.89361         6.45374
     2019.81654        -5.10525         6.46080
     2019.81930        -3.58712         6.39378
     2019.82203        -5.82498         6.47020
     2019.82477        -8.36884         6.34204
     2019.82751        -9.38670         6.33617
     2019.83025        -4.65457         6.62775
     2019.83299        -8.10043         6.59601
     2019.83572        -3.35429         6.45844
     2019.83846        -0.76616         6.34440
     2019.84120        -3.89102         6.33381
     2019.84394        -4.32688         6.46903
     2019.84668        -9.67374         6.32911
     2019.84941        -0.82161         6.29972
     2019.85215        -2.21347         6.39495
     2019.85489        -4.28333         6.45609
     2019.85763        -1.89720         6.34204
     2019.86036        -6.35406         6.35498
     2019.86310        -4.40392         6.34675
     2019.86584         0.58322         6.49842
     2019.86858        -0.43465         6.40906
     2019.87132        -6.71751         6.54192
     2019.87405        -3.69637         6.30560
     2019.87679        -3.55823         6.50783
     2019.87953         0.15690         6.35145
     2019.88227         1.96104         6.38672
     2019.88501         1.63818         6.30560
     2019.88774         2.84331         6.41847
     2019.89048         5.99645         6.33499
     2019.89322        11.46559         6.51606
     2019.89596        -5.42627         6.45962
     2019.89869         2.77986         6.25386
     2019.90143         3.61700         6.29149
     2019.90417         5.68914         6.37732
     2019.90691         1.42828         6.22800
     2019.90965        -4.20959         6.37144
     2019.91238        -3.65145         6.29619
     2019.91512         2.96469         6.27738
     2019.91786         8.01382         6.30677
     2019.92060         3.00796         6.23505
     2019.92607        -0.13276         6.35615
     2019.92881        -2.16563         6.30324
     2019.93155         3.44351         6.33029
     2019.93429         3.36665         6.34087
     2019.93702         3.81779         6.24563
     2019.93976        -3.71808         6.48549
     2019.94250        -9.87794         6.41612
     2019.94524        -6.11780         6.33381
     2019.94798       -11.96167         6.40906
     2019.95071         1.45947         6.61364
     2019.95345         4.10561         6.19860
     2019.95619        -2.68925         6.29384
     2019.95893        -5.96012         6.36086
     2019.96167        -2.09698         6.36909
     2019.96440        -0.25584         6.53840
     2019.96714        -1.10570         6.50077
     2019.96988        -4.65457         6.28796
     2019.97262        -3.50443         6.47726
     2019.97535         0.89471         6.32323
     2019.97809        -3.18716         6.28326
     2019.98083         0.46198         6.38672
     2019.98357        -6.28488         6.29266
     2019.98631        -4.88774         6.28326
     2019.98904        -7.46461         6.28914
     2019.99178        -1.95347         6.31735
     2019.99452        -4.58533         6.39848
     2019.99714         2.39180         6.67831
     2019.99988         7.46794         6.66303
     2020.00273         1.90308         6.30324
     2020.00547        -2.51878         6.46080
     2020.00821        -3.21065         6.54545
     2020.01095        -2.87351         6.44904
     2020.01368        -6.34037         6.46668
     2020.01642        -3.04323         6.49137
     2020.01916        -7.98610         6.50195
     2020.02190        -5.16396         6.54075
     2020.02464        -5.61882         6.44434
     2020.02737        -3.27969         6.38202
     2020.03011        -3.24455         6.36086
     2020.03285        -9.03041         6.33029
     2020.03559        -8.34227         6.28561
     2020.03833        -5.81014         6.14922
     2020.04106        -6.59400         6.28678
     2020.04380        -4.59786         6.31735
     2020.04654        -6.49972         6.27738
     2020.04928        -8.14259         6.25269
     2020.05201        -8.23145         6.23975
     2020.05475        -0.28131         6.17509
     2020.05749        -9.34418         6.34204
     2020.06023        -9.62704         6.30442
     2020.06297        -9.66790         6.38320
     2020.06570        -1.73776         6.37026
     2020.06844        -5.30363         6.42082
     2020.07118        -2.94549         6.19390
     2020.07392        -2.16535         6.38790
     2020.07666        -7.78621         6.27150
     2020.07939        -6.14308         6.37379
     2020.08213        -4.86894         6.36438
     2020.08487        -6.53780         6.45374
     2020.08761        -1.73667         6.31265
     2020.09034        -4.54653         6.31030
     2020.09308        -9.77639         6.29149
     2020.09582        -1.59425         6.38320
     2020.09856        -3.61912         6.30795
     2020.10130       -10.67298         6.22682
     2020.10403        -2.33584         6.37497
     2020.10677       -12.03671         6.41847
     2020.10951       -14.50557         6.26915
     2020.11225        -6.55843         6.36909
     2020.11494        -4.60630         6.36203
     2020.11773        -5.40116         6.48666
     2020.12046        -6.43602         6.45609
     2020.12320       -12.72288         6.29031
     2020.12594        -6.36874         6.25034
     2020.12867       -10.56561         6.36674
     2020.13141       -14.16047         6.35145
     2020.13415       -14.76433         6.28678
     2020.13689        -6.61820         6.36321
     2020.13963        -7.06506         6.49724
     2020.14236        -7.17592         6.32911
     2020.14510        -4.60978         6.43023
     2020.14784       -11.39465         6.29266
     2020.15058       -15.09651         6.30560
     2020.15331       -17.50137         6.31618
     2020.15605        -8.78423         6.33734
     2020.15879        -9.48310         6.33146
     2020.16153        -0.17696         6.40906
     2020.16427        -5.83682         6.22917
     2020.16700        -2.53769         6.32441
     2020.16974        -8.18655         6.35968
     2020.17248       -10.72441         6.73475
     2020.17522        -6.03127         6.27150
     2020.17796         1.04086         6.31971
     2020.18069        -6.87900         6.29384
     2020.18343        -8.55586         6.24916
     2020.18617       -12.32672         6.32088
     2020.18891        -7.66759         6.38437
     2020.19164        -5.67145         6.51958
     2020.19438        -7.10931         6.37379
     2020.19712        -7.28718         6.37967
     2020.19986       -12.42804         6.36203
     2020.20260       -12.31890         6.43611
     2020.20533       -10.95676         6.39848
     2020.20807        -6.92663         6.50783
     2020.21081       -12.40749         6.42670
     2020.21355       -13.79135         6.93933
     2020.21629       -12.82821         6.65597
     2020.21902        -9.76608         6.53722
     2020.22179        -6.88594         6.55486
     2020.22450        -0.05280         6.56544
     2020.22724        -6.01367         6.48549
     2020.22997       -12.28453         6.34792
     2020.23271        -8.57639         6.35733
     2020.23545        -5.69025         6.38790
     2020.23819        -8.42312         6.30560
     2020.24093       -11.35398         6.41024
     2020.24366        -6.36484         6.40436
     2020.24640        -9.32571         6.45727
     2020.24914       -13.46757         6.42552
     2020.25188        -9.12743         6.41729
     2020.25462        -8.12029         6.35498
     2020.25735        -5.37316         6.48431
     2020.26009        -1.43702         6.38084
     2020.26283        -3.54888         6.36556
     2020.26557       -12.09674         6.43493
     2020.26830        -8.16861         6.34910
     2020.27104       -10.91247         6.33029
     2020.27378       -10.58433         6.33146
     2020.27652       -10.08720         6.47020
     2020.27929        -9.27806         6.61835
     2020.28199       -10.92792         6.42670
     2020.28473       -11.78778         6.48314
     2020.28747        -8.99065         6.46668
     2020.29021       -13.26151         6.31971
     2020.29295       -11.02837         6.38907
     2020.29568        -7.34723         6.36791
     2020.29842        -5.54310         6.38437
     2020.30116        -4.80596         6.39848
     2020.30390        -4.85282         6.35615
     2020.30663        -8.37169         6.40671
     2020.30937       -10.19255         6.57367
     2020.31211        -9.01841         6.62423
     2020.31485        -7.13827         6.46668
     2020.31759       -11.68014         6.30912
     2020.32032        -4.87100         6.58072
     2020.32306        -5.88586         6.25857
     2020.32580       -10.95172         6.29972
     2020.32854        -6.38059         6.45021
     2020.33128       -12.56945         6.29972
     2020.33401        -8.38131         6.31030
     2020.33675        -3.84518         6.40671
     2020.33949        -9.72104         6.25739
     2020.34223       -15.76990         6.41141
     2020.34496       -11.77676         6.48431
     2020.34770       -11.28563         6.26092
     2020.35044       -13.39949         6.35968
     2020.35318       -12.78435         6.29737
     2020.35592       -13.49722         6.43140
     2020.35865       -11.43708         6.30677
     2020.36139        -7.76394         6.32676
     2020.36413        -9.04880         6.27267
     2020.36687        -9.08367         6.39025
     2020.36961        -8.19453         6.28091
     2020.37234        -8.30639         6.28561
     2020.37508        -6.86425         6.25151
     2020.37782        -8.40412         6.28443
     2020.38056        -6.36998         6.25504
     2020.38329        -5.03184         6.24916
     2020.38603        -3.55771         6.27385
     2020.38877        -5.96457         6.34675
     2020.39151        -9.36343         6.20095
     2020.39425       -10.31729         6.22094
     2020.39698       -13.28316         6.38437
     2020.39972       -15.94702         6.31618
     2020.40246        -8.56588         6.35615
     2020.40520       -11.72874         6.38672
     2020.40794       -14.28161         6.31383
     2020.41067        -6.24147         7.33556
     2020.41341        -6.54633         6.65244
     2020.41615       -11.04020         6.34087
     2020.41889        -8.76106         6.25034
     2020.42162       -15.31892         6.34675
     2020.42436        -9.94378         6.71476
     2020.42710        -6.84165         6.63834
     2020.42984        -5.82151         6.36321
     2020.43258        -6.84537         6.45609
     2020.43531       -10.32123         6.37497
     2020.43805       -12.26910         6.36556
     2020.44079       -14.20896         6.38555
     2020.44353        -9.36182         6.43611
     2020.44626        -9.54269         6.40906
     2020.44900        -7.25155         6.50548
     2020.45174        -7.49741         6.31265
     2020.45448        -7.42027         6.27032
     2020.45722        -9.43314         6.21624
     2020.45995        -8.03300         6.23387
     2020.46269       -15.15786         6.29619
     2020.46543       -12.30372         6.24211
     2020.46817       -10.87559         6.24916
     2020.47091       -11.68245         6.33617
     2020.47364       -13.66131         6.25857
     2020.47638       -11.93518         6.22094
     2020.47912        -8.97204         6.35733
     2020.48186       -12.96690         6.29149
     2020.48459       -19.65876         6.50430
     2020.48733        -7.79363         6.48901
     2020.49007         0.62951         6.49137
     2020.49281        -2.49335         6.39731
     2020.49555        -6.03622         6.41024
     2020.49828        -8.43808         6.26092
     2020.50102       -11.82494         6.18802
     2020.50376       -18.35380         6.36791
     2020.50650       -13.49767         6.27267
     2020.50924       -14.96053         6.25621
     2020.51197        -8.58239         6.21271
     2020.51471       -13.42725         6.43963
     2020.51745       -12.79912         6.20095
     2020.52019        -4.74698         6.38555
     2020.52292        -7.94584         6.44198
     2020.52566       -21.74571         6.51606
     2020.52840        -5.13957         6.63716
     2020.53114       -11.52743         6.55721
     2020.53388       -10.38829         6.36909
     2020.53661       -13.64816         6.41964
     2020.53935       -16.60802         6.50312
     2020.54209       -14.16588         6.57132
     2020.54483       -12.11374         6.41847
     2020.54757        -9.45061         6.37849
     2020.55030        -2.78747         6.42200
     2020.55304        -9.66233         6.48431
     2020.55578        -9.49720         6.49724
     2020.55852       -10.64206         6.49724
     2020.56125        -5.08192         6.48666
     2020.56399        -6.83578         6.34440
     2020.56673        -6.62165         6.38907
     2020.56947       -10.33851         6.34087
     2020.57221        -9.65737         6.62188
     2020.57494        -6.49123         6.41729
     2020.57768        -5.75510         6.47608
     2020.58042        -7.60496         6.73828
     2020.58316       -17.66782         6.56897
     2020.58590       -10.29969         6.40906
     2020.58863        -8.10655         6.45374
     2020.59137        -9.15041         6.39966
     2020.59411        -0.95527         6.36674
     2020.59685       -10.16914         6.76532
     2020.59958        -8.12300         6.59131
     2020.60232       -13.42786         6.44551
     2020.60506        -9.65573         6.43023
     2020.60780        -8.95959         6.40906
     2020.61054         5.44055         6.62658
     2020.61327       -10.99131         6.51723
     2020.61601        -9.96518         6.35498
     2020.61875        -9.66504         6.34675
     2020.62149       -10.85390         6.42200
     2020.62423        -5.70976         6.55956
     2020.62696       -16.94563         6.43963
     2020.62970       -13.62549         6.69360
     2020.63244       -13.77535         6.52194
     2020.63518        -9.90222         6.62188
     2020.63791        -7.08108         6.57837
     2020.64065       -10.24194         6.49019
     2020.64339       -10.97480         6.42905
     2020.64582        -1.80268         7.66830
     2020.65386         1.08872         8.21973
     2020.66629        16.51634        11.64472
     2020.66803         8.25643         6.35968
     2020.67077        14.72757         6.55956
     2020.67351         8.64471         6.46080
     2020.67624         7.52484         6.37732
     2020.67898         0.56898         6.46315
     2020.68172         3.81712         6.42317
     2020.68446        -0.46674         6.67126
     2020.68720         6.03839         6.47020
     2020.68993         9.35753         6.42787
     2020.69267         7.95267         6.53957
     2020.69541         5.73380         8.76176
     2020.69815         5.76194         6.49019
     2020.70089         8.23508         6.36674
     2020.70362         8.47922         6.40671
     2020.70636         5.96735         6.69830
     2020.70910         2.38049         6.75003
     2020.71184         6.92463         6.52546
     2020.71457         7.69877         6.58895
     2020.71731         3.02590         6.78883
     2020.72008         5.93804         6.65244
     2020.72279         9.09718         6.45374
     2020.72553        11.02431         7.00752
     2020.72826        14.48645         6.68184
     2020.73100        16.76059         6.73240
     2020.73374        15.83873         6.49372
     2020.73648        12.27886         6.48431
     2020.73921         6.54100         6.36203
     2020.74195         9.93314         6.40083
     2020.74469         8.82027         6.35380
     2020.74743         6.53941         6.40436
     2020.75017         8.93055         6.44081
     2020.75290         8.10069         6.45257
     2020.75564         6.15682         6.32794
     2020.75838         6.59996         6.40554
     2020.76112        11.86710         6.34675
     2020.76386        10.57624         6.38790
     2020.76659        13.60537         6.35733
     2020.76933        14.23851         6.51371
     2020.77207        18.70565         6.41259
     2020.77481        16.99778         6.44434
     2020.77754        14.13592         6.43728
     2020.78028        10.62806         6.62305
     2020.78302         9.47220         6.47491
     2020.78576        14.12533         6.74886
     2020.78850         7.25147         6.32206
     2020.79123         9.96261         6.47138
     2020.79397         7.52475         6.42082
     2020.79671         9.84788         6.44198
     2020.79945         9.92302         6.39025
     2020.80219        11.02516         6.50548
     2020.80492        18.37829         6.45021
     2020.80766        11.46443         6.50900
     2020.81040         8.67957         6.45844
     2020.81314        15.30671         6.44434
     2020.81587         7.85384         6.40436
     2020.81861        11.04598         6.31383
     2020.82135        13.14312         6.37849
     2020.82409        12.40926         6.35498
     2020.82683        10.74739         6.40671
     2020.82956        16.33053         6.69948
     2020.83230        14.87067         6.44434
     2020.83504        13.03680         6.39260
     2020.83778        13.93694         6.28914
     2020.84052        20.25508         6.46080
     2020.84325         5.42022         6.49489
     2020.84599         6.23135         6.55838
     2020.84873        18.02049         6.28914
     2020.85147        15.59863         6.37732
     2020.85420        19.49576         6.26209
     2020.85694        15.82590         6.31147
     2020.85968        21.42304         6.36086
     2020.86242        20.58718         6.35145
     2020.86516        17.35831         6.51371
     2020.86789        24.14545         6.53134
     2020.87063        20.86659         6.40554
     2020.87337        21.10873         6.36674
     2020.87611        20.14586         6.54075
     2020.87885        17.41500         6.53252
     2020.88158        15.47114         6.59601
     2020.88432        18.12327         6.51371
     2020.88706        10.09841         6.75591
     2020.88980        11.50255         6.47726
     2020.89253        14.08969         6.42435
     2020.89527        17.03582         6.59718
     2020.89801        15.80996         6.62188
     2020.90075        16.63810         6.53957
     2020.90349        16.17924         6.39613
     2020.90622        11.05037         6.39025
     2020.90896        17.18451         6.64304
     2020.91170        11.02665         6.80177
     2020.91444        20.72478         6.59836
     2020.91718         8.16592         6.38555
     2020.91991         7.65206         6.37026
     2020.92265         4.99620         6.36791
     2020.92539         7.12633         6.46432
     2020.92813         2.78247         6.41259
     2020.93086         7.14561         6.41612
     2020.93360         7.99675         7.62597
     2020.93634        10.17488         6.44316
     2020.93908         9.22202         6.50077
     2020.94182         3.72716         6.45021
     2020.94455         6.07329         6.42200
     2020.94729         4.43243         6.39495
     2020.95003         4.99557         6.40083
     2020.95277        -1.45729         6.37849
     2020.95551         5.73384         6.40671
     2020.95824         3.68698         6.46080
     2020.96098         4.18212         7.12863
     2020.96372         0.95226         6.39495
     2020.96646        11.23939         6.44904
     2020.96919        12.27053         6.53369
     2020.97193         3.91967         6.33617
     2020.97467         6.99180         6.49019
     2020.97741        -0.01206         6.45844
     2020.98015         4.53308         6.63716
     2020.98288         7.02522         6.50665
     2020.98562        13.14535         6.30324
     2020.98836        13.56149         6.36203
     2020.99110        11.92463         6.27855
     2020.99384         9.22276         6.30677
     2020.99657         3.85390         6.33734
     2020.99931        13.00604         6.29149
     2021.00205         4.48218         6.29149
     2021.00479        20.51531         6.29031
     2021.00752        15.52845         6.30912
     2021.01026        14.72159         6.31618
     2021.01300        10.88273         6.34322
     2021.01574        10.98386         6.49254
     2021.01848         7.08500         6.30089
     2021.02121         2.67914         6.22800
     2021.02395         5.31027         6.26327
     2021.02669         5.15341         6.42787
     2021.02943         4.64855         6.35733
     2021.03216         7.40069         6.31147
     2021.03490         9.78382         6.46550
     2021.03764         4.23796         6.32323
     2021.04038         2.50410         6.39495
     2021.04312         4.01224         6.38907
     2021.04585         5.05037         6.33734
     2021.04859         7.11551         6.27032
     2021.05133         4.74665         6.29384
     2021.05407         5.19578         6.62070
     2021.05681         8.65092         6.51606
     2021.05954         2.26806         6.48431
     2021.06228         5.25720         6.31147
     2021.06502         9.90333         6.32676
     2021.06776        10.44747         6.27385
     2021.07049         7.36461         6.25151
     2021.07323         5.47675         6.31500
     2021.07597         3.34488         6.24916
     2021.07871         8.21502         6.27738
     2021.08145         6.02616         6.27738
     2021.08418         0.37729         6.31030
     2021.08692         5.33643         6.37379
     2021.08966         1.82957         6.34675
     2021.09240         0.99971         6.31500
     2021.09514         3.71784         6.49254
     2021.09787         4.72298         6.51018
     2021.10061         6.01012         6.31618
     2021.10335         3.59725         6.34204
     2021.10609        -1.14761         6.29972
     2021.10882         6.56253         6.27150
     2021.11156         3.79267         6.33969
     2021.11430         0.21080         6.27385
     2021.11704         1.40694         6.36321
     2021.11978         3.31308         6.34322
     2021.12251         0.84322         6.26444
     2021.12525        -5.13865         6.34322
     2021.12799         1.63749         6.35968
     2021.13073        -3.52037         6.29149
     2021.13347        -4.72424         6.44786
     2021.13620        -2.96510         6.33852
     2021.13894         5.46304         6.25621
     2021.14168         1.10918         6.44551
     2021.14442         7.23631         6.26444
     2021.14715        -0.90855         6.35851
     2021.14989        -1.51241         6.34204
     2021.15263         5.93173         6.55486
     2021.15537         5.50686         6.40671
     2021.15811         5.60100         6.55838
     2021.16084         2.97014         6.44904
     2021.16358         2.28227         6.46550
     2021.16632         7.13441         6.50430
     2021.16906         4.61555         6.28678
     2021.17180        -0.91131         6.25739
     2021.17453        -6.79618         6.51018
     2021.17727         4.66996         6.46903
     2021.18001         0.80510         6.46315
     2021.18275        -0.71976         6.72417
     2021.18548        -0.68163         6.29854
     2021.18822        -3.12749         6.25974
     2021.19096         0.62365         6.25151
     2021.19370         1.64078         6.38084
     2021.19644        -0.90508         6.32088
     2021.19917        -1.49294         6.30089
     2021.20191         0.64020         6.27267
     2021.20465        -2.03967         6.20683
     2021.20739         2.06147         6.31618
     2021.21013         3.86161         6.53252
     2021.21286         2.14375         6.51371
     2021.21560         2.27688         6.31735
     2021.21834        -4.18798         6.38320
     2021.22108         0.63116         6.30442
     2021.22381        -1.45671         6.26915
     2021.22655         3.72943         6.55486
     2021.22929         8.40657         6.29031
     2021.23203         3.39571         6.27150
     2021.23477        -6.01816         6.21977
     2021.23750        -2.97602         6.36086
     2021.24024         0.69812         6.31147
     2021.24298         3.92025         6.27973
     2021.24572        -0.73761         6.26444
     2021.24846        -1.35047         6.33969
     2021.25119        -5.85733         6.24093
     2021.25393        -1.22020         6.50430
     2021.25667         4.66494         6.31853
     2021.25941         5.19308         6.32558
     2021.26214         5.67322         6.39966
     2021.26488        -0.85665         6.36321
     2021.26762         5.08749         6.40554
     2021.27036         4.24863         6.96520
     2021.27310         3.31576         6.39025
     2021.27583         4.92690         6.29854
     2021.27857        -3.18196         6.41377
     2021.28131         1.41118         6.39025
     2021.28405         1.40031         6.45374
     2021.28679         1.19645         6.44198
     2021.28952         5.01259         6.98871
     2021.29226         1.29973         6.44434
     2021.29500         3.80686         6.45609
     2021.29774         1.81200         6.77472
     2021.30047         2.37214         6.52546
     2021.30321         8.02927         6.43728
     2021.30595        12.19941         6.64774
     2021.30869        16.61255         6.69477
     2021.31143         8.67269         6.33969
     2021.31416         9.72182         6.37732
     2021.31690        12.00096         6.31971
     2021.32021         2.36913         9.05335
     2021.32295         4.57526         8.70179
     2021.32569         3.79840         8.33378
     2021.32842         8.63454         8.67240
     2021.33116         3.91468         8.97104
     2021.33390         9.46781         8.26206
     2021.33664         5.81595         8.36435
     2021.33937         7.26909         8.43960
     2021.34211         6.44422         8.45018
     2021.34485         0.42936         8.68063
     2021.34759         0.33550         8.57716
     2021.35033         3.44964         8.74294
     2021.35306         2.72277         8.46547
     2021.35580         3.52091         8.41138
     2021.35854         0.52405         8.37964
     2021.36128         2.97419         8.69944
     2021.36402        -2.81968         8.56658
     2021.36653        -0.00655         7.60363
     2021.36892        -2.42143         6.43023
     2021.37166         0.90771         6.39495
     2021.37440        -0.03616         6.39025
     2021.37770         0.22501         8.65711
     2021.38044         6.88615         8.80996
     2021.38318         2.47928         9.10508
     2021.38592        -0.54358         8.73354
     2021.38866        -2.78744         8.66064
     2021.39413         9.92783         8.53719
     2021.39687        -4.95203         8.54542
     2021.39938         0.31410         7.48136
     2021.40177         1.43022         6.51018
     2021.40451         1.68035         6.59366
     2021.40782         9.71052         8.60068
     2021.41056         4.29866         8.55953
     2021.41330         3.97479         8.65947
     2021.41603        -2.53507         8.58539
     2021.41877         1.34507         8.61949
     2021.42151         7.00120         8.78292
     2021.42425        11.87534         8.72884
     2021.42699        11.70048         8.60773
     2021.42972        10.57062         8.51720
     2021.43246        12.24175         8.61714
     2021.43520         5.81689         8.49486
     2021.43794         8.96203         8.61596
     2021.44068         9.70317         8.54189
     2021.44341        -1.51770         8.61949
     2021.44615         2.38744         8.85934
     2021.44889         3.96358         8.57128
     2021.45163         1.27571         8.79938
     2021.45436         1.31785         9.17445
     2021.45710         7.12299         8.97104
     2021.45984         5.70313         8.40903
     2021.46258         0.46426         8.53954
     2021.46528         3.98140         8.76293
     2021.46805         5.56354         8.31732
     2021.47079         8.15568         8.79468
     2021.47353         4.27781         8.72884
     2021.47627        -6.96005         8.57716
     2021.47901        -2.08791         8.84288
     2021.48174        -2.79278         8.53719
     2021.48448        -3.08864         8.47017
     2021.48722         7.42550         8.60538
     2021.48996        -2.51736         8.45253
     2021.49269        -2.93623         8.78410
     2021.49520         5.33890         7.53074
     2021.49817        -2.43495         8.85699
     2021.50091        -1.93881         9.08039
     2021.50365        -7.29268         9.62712
     2021.50638        -4.95254         8.62184
     2021.50912        -0.07740        10.27143
     2021.51194         3.85674        11.67294
     2021.51459         5.76387         9.08274
     2021.51733        -0.04799         8.48193
     2021.52007         6.21015         8.72178
     2021.52281       -10.79272         9.97632
     2021.52555        -1.34558         8.61361
     2021.52829        -2.67544         8.71590
     2021.53102         1.69169         8.52660
     2021.53376         5.18183         8.59245
     2021.53650        -1.92403         8.76411
     2021.53924         6.68611         9.02865
     2021.54198         3.38824         8.68886
     2021.54471        -3.55162         8.81819
     2021.54745        -2.17848         8.61479
     2021.55019         1.30566         8.59715
     2021.55293         8.79779         9.32730
     2021.55566         5.20993         8.79468
     2021.55840        -3.20293         8.84288
     2021.56114         1.31220         8.57128
     2021.56388         2.54634         8.48428
     2021.56605        -0.12555         6.55603
     2021.56878         9.08659         6.62070
     2021.57152        -0.29127         6.90053
     2021.57426        -2.50414         6.65832
     2021.57700         1.48700         6.95932
     2021.57974        -0.53486         6.48314
     2021.58247        -9.29273         6.47961
     2021.58521        -5.98259         6.62305
     2021.58795         1.34755         6.56544
     2021.59069        -0.29531         6.59836
     2021.59342         2.14382         6.55721
     2021.59616        -1.98204         6.70653
     2021.59890         8.07810         6.51958
     2021.60164         5.26523         6.69242
     2021.60438         4.60737         6.46197
     2021.60711         8.15551         6.40318
     2021.60985         4.19865         6.49019
     2021.61259         1.97278         6.43963
     2021.61533         0.67592         6.42670
     2021.61807         8.86006         6.49960
     2021.62080         6.01020         6.49842
     2021.62354         2.19633         6.41964
     2021.62628         4.10647         6.63481
     2021.62902         6.08761         6.54075
     2021.63175         4.74374         6.53957
     2021.63449         4.01488         6.71123
     2021.63723         8.60102         6.77002
     2021.63997         7.05516         6.57720
     2021.64271        12.84929         6.62658
     2021.64544         3.78143         6.47138
     2021.64818         8.92257         6.54310
     2021.65092         7.45071         6.43963
     2021.65366        -0.81116         6.42317
     2021.65639         3.50598         6.40906
     2021.65913         6.33312         6.41024
     2021.66187         4.44025         6.46785
     2021.66461         6.43739         6.51723
     2021.66735        10.98953         6.30442
     2021.67008         3.64067         6.50783
     2021.67282         6.50880         6.62893
     2021.67556         9.00694         6.78060
     2021.67830         9.05208         6.62540
     2021.68104         4.04922         6.41494
     2021.68377         8.78235         6.38672
     2021.68651         5.97949         6.45139
     2021.68925         6.72163         6.40671
     2021.69199         8.63476         6.49842
     2021.69472         0.51490         6.57837
     2021.69746         6.15904         6.44316
     2021.70020        10.75518         6.51371
     2021.70294         2.51431         6.51135
     2021.70568         6.90345         6.82881
     2021.70841         9.11759         6.50077
     2021.71115        13.82573         6.56661
     2021.71389        20.97786         6.77590
     2021.71663         8.76900         6.57367
     2021.71937         6.42514         6.53487
     2021.72210         5.11627         6.59718
     2021.72484         4.08441         6.50665
     2021.72758         3.88755         6.56544
     2021.73032         3.08669         6.82411
     2021.73305         6.53582         6.49254
     2021.73579        16.01996         6.82058
     2021.73855        18.21810         6.90053
     2021.74127         8.51823         6.60894
     2021.74401         8.23637         6.61247
     2021.74674        10.07351         6.51371
     2021.74948         6.55265         7.02281
     2021.75222         5.71278         6.56661
     2021.75496         9.47092         6.70653
     2021.75706         4.59403         8.87228
     2021.76043         8.98720         6.56897
     2021.76317         5.56033         6.64657
     2021.76591         8.56847         6.57602
     2021.76865         8.10961         6.55486
     2021.77138        10.49774         6.54780
     2021.77412        15.06388         6.69712
     2021.77686         6.91202         6.54663
     2021.77960        14.23716         6.55486
     2021.78234        13.26429         6.59013
     2021.78507        17.28743         6.61129
     2021.78781        11.51757         6.56426
     2021.79055         9.86271         6.45492
     2021.79329         9.38084         6.50312
     2021.79603        13.87998         6.55133
     2021.79876        10.24612         6.52664
     2021.80150        11.33525         6.81352
     2021.80424        10.02939         6.62658
     2021.80698         7.98653         6.55251
     2021.80971         9.60567         6.70535
     2021.81245        17.14980         6.67126
     2021.81519        14.78394         6.54545
     2021.81793        15.76508         6.53369
     2021.82067         9.89222         6.63363
     2021.82340        11.08435         6.73710
     2021.82614        16.29649         6.65950
     2021.82888        14.11263         6.66420
     2021.83162        11.42076         6.59366
     2021.83436        14.13990         6.57720
     2021.83709        11.24804         6.72417
     2021.83983         2.32118         6.64069
     2021.84257        16.65831         6.74415
     2021.84531         8.58345         6.63011
     2021.84804        12.44959         6.66420
     2021.85078        13.15672         6.63598
     2021.85352        12.50886         6.51841
     2021.85626        15.96400         6.68066
     2021.85900        11.59914         6.52194
     2021.86447         6.90941         6.71829
     2021.86721         7.13655         6.84292
     2021.86995         5.81169         7.03809
     2021.87269        11.55582         6.74415
     2021.87542        13.82496         6.65480
     2021.87816         3.99910         6.55956
     2021.88090         8.98023         6.59013
     2021.88364         5.41037         6.51958
     2021.88637         4.13451         6.70065
     2021.88911         2.50265         6.51606
     2021.89185         2.09878         6.56191
     2021.89459         8.95592         6.63363
     2021.89733         3.31706         6.50900
     2021.90006         1.44620         6.63363
     2021.90280         3.74833         6.59248
     2021.90554         5.51247         6.53487
     2021.90828         3.99661         6.63598
     2021.91102         8.50374         6.65715
     2021.91375         3.42388         6.60659
     2021.91649         5.23202         6.54428
     2021.91923         7.75716         6.74533
     2021.92197         1.26829         6.88407
     2021.92470        -0.52057         6.68889
     2021.92744         3.63457         6.65362
     2021.93018         1.56171         6.70300
     2021.93292        14.34084         6.77943
     2021.93566        18.83198         6.89935
     2021.93839        12.60212         6.72181
     2021.94113        13.07025         6.84645
     2021.94387        17.74139         6.71476
     2021.94661         8.34153         6.66655
     2021.94935        12.96667         6.64774
     2021.95208        11.71780         6.63128
     2021.95482        11.72194         6.58543
     2021.95756        12.05208         6.63363
     2021.96030         7.13422         6.68301
     2021.96303         7.55535         6.65362
     2021.96577        11.01149         6.69830
     2021.96851         6.75463         6.66420
     2021.97125         9.94976         6.63363
     2021.97399        13.29790         6.75003
     2021.97672        14.69304         6.71358
     2021.97946        18.31518         6.67361
     2021.98220        16.87231         6.72181
     2021.98494        20.90345         6.60189
     2021.98767        19.60759         6.63951
     2021.99041        16.96872         6.66420
     2021.99315        15.60386         6.65715
     2021.99589        15.39000         6.65950
     2021.99863         2.55814         6.61129
     2022.00136        13.42427         6.58778
     2022.00410         8.88741         6.93463
     2022.00684         6.27355         6.68301
     2022.00958         1.91069         7.92226
     2022.01232        -4.56818         6.64774
     2022.01505         8.92796         6.63128
     2022.01779        11.80910         6.70300
     2022.01937         6.34718        18.42532
     2022.02231        20.19632       105.95823
     2022.02600         1.42551         6.77472
     2022.02874         8.18765         6.66773
     2022.03148         3.01478         6.74298
     2022.03422         4.31992         6.67478
     2022.03696        -0.71994         6.60541
     2022.03969        -7.77680         7.02751
     2022.04243         5.44833         6.63834
     2022.04517         9.63447         6.69477
     2022.04791         5.43261         6.64774
     2022.05065         5.45574         6.63481
     2022.05338         4.61388         6.68184
     2022.05612        -4.55398         6.78178
     2022.05886        -4.19284         6.63951
     2022.06160        -0.48271         6.59718
     2022.06433         5.71643         6.73945
     2022.06707        -2.71943         6.59718
     2022.06981         2.14871         6.64539
     2022.07255        -8.72916         6.48784
     2022.07529         5.28598         6.48549
     2022.07802         4.66812         6.55956
     2022.08076        11.12925         6.58072
     2022.08350         6.40739         6.60894
     2022.08624         3.47353         6.51841
     2022.08898         7.02067         6.46315
     2022.09171         2.86380         6.48784
     2022.09445         2.74894         6.55015
     2022.09719        -2.71492         6.49724
     2022.09993        -4.46079         6.72299
     2022.10266         0.32835         6.68066
     2022.10540         3.96049         6.48078
     2022.10814         7.21163         6.46315
     2022.11088         4.00276         6.58660
     2022.11362         6.26090         6.43728
     2022.11635         6.82504         6.46668
     2022.11909         7.47918         6.45374
     2022.12183         9.52431         6.60424
     2022.12457        12.08645         6.71241
     2022.12731         3.43159         6.55603
     2022.13004        -2.22528         6.44904
     2022.13278         4.51786         6.54192
     2022.13552         7.74300         6.51135
     2022.13826         6.00714         6.61247
     2022.14099         4.43927         6.49254
     2022.14373        -1.70159         6.41377
     2022.14647         2.88755         6.45844
     2022.14921         7.63169         6.75003
     2022.15195         1.59182         6.73240
     2022.15468         5.22896         6.51958
     2022.15742         5.75610         6.52781
     2022.16016         1.74723         6.49842
     2022.16290        -0.43263         6.53722
     2022.16564         1.14951         6.45844
     2022.16837         1.16465         6.47608
     2022.17111         2.53278         6.50195
     2022.17385         5.01992         6.50077
     2022.17659         1.22706         6.44904
     2022.17932         1.31820         6.43611
     2022.18206        -1.96867         6.47020
     2022.18480        -2.39353         6.48666
     2022.18754         3.85361         6.54545
     2022.19028         0.63374         6.61717
     2022.19301         5.24488         6.46315
     2022.19575         4.95002         6.48666
     2022.19849         1.91316         6.51606
     2022.20123         6.61129         6.62658
     2022.20397         9.63343         6.52899
     2022.20670         3.99857         6.66068
     2022.20944         1.44771         6.66185
     2022.21218         5.65084         6.54898
     2022.21492         7.60698         6.59954
     2022.21765        -2.29988         6.49489
     2022.22039        -1.00875         6.48431
     2022.22313         3.94039         6.57837
     2022.22587        -3.20147         6.63481
     2022.22861         1.18867         6.57602
     2022.23134         7.73380         6.49842
     2022.23408         6.60694         6.55603
     2022.23682         7.07808         6.76532
     2022.23956         0.54121         6.53840
     2022.24230         4.05335         6.88642
     2022.24503        12.04549         7.35790
     2022.24777         8.69363         7.16390
     2022.25051        -0.78324         7.10746
     2022.25325        -0.60810         7.19800
     2022.25598        10.09804         6.69595
     2022.25872         7.04818         6.65832
     2022.26146         1.50531         6.53487
     2022.26420        -0.28855         6.55133
     2022.26694        -0.11141         6.84880
     2022.26967         2.79972         6.54898
     2022.27241         9.44086         6.69595
     2022.27515        13.00900         7.31675
     2022.27789        10.24114         6.52546
     2022.28062         3.20427         6.57720
     2022.28336         8.27141         6.56544
     2022.28610         7.67855         6.74180
     2022.28884         1.90569         6.68654
     2022.29158        -0.94318         6.46903
     2022.29431        -1.83404         6.47491
     2022.29705         5.92410         6.79236
     2022.29979         6.96223         6.52076
     2022.30253         5.38337         6.72299
     2022.30527        -0.34549         6.62423
     2022.30800        -0.19335         6.51723
     2022.31074         3.80478         6.52781
     2022.31348         2.44392         6.51253
     2022.31622        -0.83394         6.58308
     2022.31895       -12.43880         6.76061
     2022.32169         5.17133         6.74063
     2022.32443         2.79547         6.40671
     2022.32717        -1.68239         6.56897
     2022.32991         7.12174         6.52076
     2022.33264         1.31288         6.74533
     2022.33538         3.30302         6.79941
     2022.33812         6.34716         6.79236
     2022.34086        18.19229         6.62775
     2022.34360        11.11243         6.65832
     2022.34633         5.48857         6.66185
     2022.34907         8.48570         6.48666
     2022.35181        12.20584         6.51488
     2022.35455         8.29198         6.45257
     2022.35728         2.87212         6.56191
     2022.36002        11.58125         6.61012
     2022.36276         3.92739         6.55015
     2022.36550         7.19553         6.55251
     2022.36824         8.76567         6.50665
     2022.37097         3.15280         6.55721
     2022.37371         2.04994         6.51371
     2022.37645         2.54408         6.58543
     2022.37919         9.52521         6.70183
     2022.38193         2.38735         6.66891
     2022.38466         6.88549         6.62658
     2022.38740        -6.38437         6.65715
     2022.39014         4.00576         6.58778
     2022.39288         7.66490         6.55015
     2022.39561         2.07504         6.58190
     2022.39835         7.14218         6.52899
     2022.40109         3.37731         6.78648
     2022.40383         7.58345         6.44669
     2022.40657         6.72059         6.41729
     2022.40930        -2.23128         6.58190
     2022.41204         4.50886         6.68772
     2022.41478         1.72700         6.45374
     2022.41752         4.70214         6.64774
     2022.42026         5.52927         6.65950
     2022.42299         1.91341         6.48901
     2022.42573         7.34155         6.60659
     2022.42847         4.06469         6.64774
     2022.43121         3.13382         6.58543
     2022.43394        12.12096         6.57602
     2022.43668         4.32110         6.57602
     2022.43942        -0.27777         6.58778
     2022.44216         6.59137         6.75356
     2022.44490        10.08451         6.64539
     2022.44763         9.18265         6.37732
     2022.45037         1.64278         6.37849
     2022.45311         1.18192         6.44316
     2022.45585         6.23106         6.46550
     2022.45859        -7.17880         6.54310
     2022.46132         2.68933         6.46550
     2022.46406        -0.90453         6.42200
     2022.46680         1.47861         6.54075
     2022.46954        -2.72026         6.54192
     2022.47227       -10.72112         6.56191
     2022.47501         9.55002         6.57955
     2022.47775         1.24316         6.72534
     2022.48049        -0.23471         6.51723
     2022.48323         9.33643         6.50077
     2022.48596         7.89157         6.46785
     2022.48870         3.84370         6.69125
     2022.49144         2.67984         6.48549
     2022.49418         3.83398         6.74533
     2022.49692         4.52512         6.63481
     2022.49965        -0.06975         6.65597
     2022.50239        -2.28261         6.77708
     2022.50513        -0.68147         6.77472
     2022.50787        13.04267         6.91229
     2022.51060        -0.75220         6.77472
     2022.51334         1.05394         6.58072
     2022.51608        -0.29992         6.57602
     2022.51882        -4.39679         6.48784
     2022.52156         5.05635         6.57602
     2022.52429        -0.04051         6.51606
     2022.52703         5.77363         6.56309
     2022.52977        17.71276         6.76414
     2022.53251         1.44890         6.54192
     2022.53525         0.72704         6.70418
     2022.53798         4.46318         6.68537
     2022.54072         1.22531         6.61835
     2022.54347         8.61245         6.62305
     2022.54620         9.25059         6.56191
     2022.54893         0.13772         6.54780
     2022.55167        11.39586         6.59131
     2022.55441        13.08700         6.68066
     2022.55715        11.31014         6.60189
     2022.55989         7.93127         6.64657
     2022.56262         3.55641         6.54545
     2022.56536        -8.22045         6.60659
     2022.56810         3.03969         6.53722
     2022.57084         3.92082         6.53369
     2022.57357         8.74296         6.71711
     2022.57631         0.61710         6.48784
     2022.57905         0.85923         6.68301
     2022.58179         7.91837         6.57837
     2022.58453         5.75951         7.08160
     2022.58726        -0.10535         6.66420
     2022.59000        18.00178         6.80882
     2022.59274         4.20592         6.48901
     2022.59548         9.53906         6.48901
     2022.59822         1.77219         6.45139
     2022.60095        -7.07467         6.53487
     2022.60369         2.65047         6.53134
     2022.60643        12.12861         6.57249
     2022.60917         3.86174         6.77355
     2022.61190        21.26088         6.96872
     2022.61464        23.93102         6.70065
     2022.61738         9.26316         6.48078
     2022.62012         5.53729         6.51018
     2022.62286         7.41643         6.40201
     2022.62559        10.53857         6.42435
     2022.62833        10.49270         6.44316
     2022.63107        10.35984         6.47138
     2022.63381        13.89598         6.42552
     2022.63655        11.71412         6.53604
     2022.63928         9.01225         6.55603
     2022.64202         7.76139         6.95226
     2022.64476         9.87353         6.97578
     2022.64750        14.30667         6.62893
     2022.65023         9.37480         6.62893
     2022.65297        14.85694         6.72181
     2022.65571        18.17208         6.61952
     2022.65845        15.04021         6.45139
     2022.66119        16.07535         6.34675
     2022.66392        15.35149         6.43846
     2022.66666        14.78163         6.56426
     2022.66940        16.18276         6.41259
     2022.67214        10.41390         6.67714
     2022.67488        15.83404         6.45021
     2022.67761        18.41818         6.65362
     2022.68035        20.15231         6.51135
     2022.68309        19.50845         6.51488
     2022.68583        17.13759         6.65715
     2022.68856        18.88672         6.47843
     2022.69130        17.31486         6.47138
     2022.69404        22.85500         6.59131
     2022.69678        19.15014         6.44551
     2022.69952        14.00927         6.70771
     2022.70225        23.84341         6.67008
     2022.70499        17.85255         6.67008
     2022.70773        21.04469         6.56191
     2022.71047        15.50982         6.39260
     2022.71321        26.02296         6.43611
     2022.71868        17.59923         6.37144
     2022.72142        20.32337         6.51606
     2022.72416        21.34451         6.60306
     2022.72689        19.82265         6.50430
     2022.72963        18.65278         6.50665
     2022.73238        15.80492         6.38672
     2022.73511        17.85206         6.40554
     2022.73785        17.39919         6.37379
     2022.74058        21.60933         6.57014
     2022.74332        24.42847         6.80177
     2022.74606        20.56961         6.48901
     2022.74880        17.02574         6.39495
