# ================= DQRFIT RESULTS ================
# INPUT FILE: series/KRMT.rad
# OUTPUT: LDETRENDED
# FILTER FUNCTION: f(t)
# f(t)=+line(t)+annual(t)
# line(t)=+P 1+P 2*t
# annual(t)=+P 3*sin(2*pi*t+P 4)
# heav(t)=(t<0?0:1)
# TOTAL OBSERVATIONS MTOT= 2306
# INITIAL TIME INTERVAL= 2013.7796 - 2006.6010 =  7.1786
# TOTAL OBSERVATIONS AFTER PREFILTER M= 2302
# TIME-SPAN= 2013.7796 - 2006.6010 =  7.1786
# OBSERVATIONS: USED M=  2302 REJECTED MTOT-M=     4 %USED=   99.8265
# N=  4 PARAMETERS
# MAXSIG= 175.00000
# MAXRES=  26.13209
# SCALE FACTOR FOR LENGTHS: SCL=  10.00000
# SCALE FACTOR FOR SIGMAS: SCLSIG=   1.00000
# CHI^2=   3119.150 DOF=  2298 CHI^2/DOF=   1.35733
# RMS=      6.629 SDEV=      6.631 MEAN=    0.00463
#  P #       PARAMETER +-    SIGMA %error PARAMETER NAME
# P 1 =      -569.57496 +-  134.187  23.56 YZERO                              
# P 2 =         0.28373 +-    0.067  23.53 SLOPE                              
# P 3 =         6.20200 +-    0.192   3.10 ANNUAL AMPLITUDE                   
# P 4 =         2.96668 +-    0.043   1.45 ANNUAL PHASE                       
#       T            LDETRENDED       SIG_OBS
     2006.60095         0.98139         6.61863
     2006.60369         7.08161         6.67921
     2006.60643         1.53483         6.61047
     2006.60917         4.78606         6.61280
     2006.61190         3.84428         6.57902
     2006.61464         3.16950         6.60348
     2006.61738         9.43373         6.55105
     2006.62012         3.73595         6.66523
     2006.62286         7.04717         6.56853
     2006.62559         7.03840         6.58251
     2006.75975         6.94433         6.69902
     2006.76249        10.60455         6.82950
     2006.76522         3.38578         6.84465
     2006.76796         3.36200         6.80037
     2006.77070         5.44822         6.64775
     2006.77344         3.72845         6.76193
     2006.77618         8.84967         6.80853
     2006.77891        11.91289         6.68853
     2006.78165        10.23112         6.57902
     2006.78439        10.09734         6.54057
     2006.78713        26.37556         6.96348
     2006.78987        31.03579         6.87144
     2006.79260        12.75701         6.61397
     2006.79534         3.08123         6.67105
     2006.79808        21.29446         6.93086
     2006.80082         6.48168         6.85280
     2006.80355         4.59490         6.60698
     2006.80629         6.14713         6.56853
     2006.80903         3.46935         6.63610
     2006.81177         8.31157         6.68037
     2006.81451         4.55180         6.66756
     2006.81724         2.44502         6.73280
     2006.81998         1.28424         6.46368
     2006.82272         5.18746         6.51610
     2006.82546        17.08869         6.72931
     2006.82820         4.23691         6.44038
     2006.83093         7.30513         6.51610
     2006.83367         9.15536         6.50911
     2006.83641         8.45958         6.71183
     2006.83915        14.52980         6.83766
     2006.84188         0.86003         6.82251
     2006.84462         8.68525         6.77824
     2006.84736         7.98647         6.70717
     2006.85010        18.53970         6.89474
     2006.85284        13.86392         6.84698
     2006.85557        20.52414         6.88309
     2006.85831        11.09937         6.70251
     2006.86105         4.19259         6.86562
     2006.86379        -1.63919         6.83882
     2006.86653        14.32904         7.00775
     2006.86926         3.83326         6.65824
     2006.87200         3.65148         6.64426
     2006.87474        14.49871         6.67921
     2006.87748         1.40693         6.53125
     2006.88021        -2.03285         6.59882
     2006.88295         1.86937         6.88426
     2006.88569         5.02760         6.76892
     2006.88843        15.87282         6.85164
     2006.89117         9.27904         6.71999
     2006.89390        -2.57673         6.90406
     2006.89664        -4.55051         6.79455
     2006.89938        -1.66229         6.60581
     2006.90212        -3.64206         6.84348
     2006.90759         7.10338         6.57203
     2006.91033         0.39961         6.58368
     2006.91295        -0.40514         6.96465
     2006.91581         4.36605         6.56387
     2006.91854        -7.28372         6.51843
     2006.92128        -6.57150         6.54872
     2006.92402        -0.32028         6.68969
     2006.92676        -3.55105         6.56037
     2006.92950        -1.47683         6.65358
     2006.93223        -6.26561         6.64076
     2006.93497         1.09862         6.79455
     2006.93771         3.75784         6.60581
     2006.94045        15.05206         6.70601
     2006.94318        11.25828         6.79455
     2006.94592         2.86151         6.84465
     2006.94866         8.08173         6.70018
     2006.95140        10.17495         6.74795
     2006.95414        12.60518         9.86678
     2006.95687         2.07840         6.60348
     2006.95961         1.81662         6.56387
     2006.96235        -2.52815         6.60814
     2006.96509        -3.48593         6.73047
     2006.96783        11.08929         6.76426
     2006.97056        12.66552         6.75727
     2006.97330         0.69474         6.63144
     2006.97604         8.37796         6.65824
     2006.97878         3.28719         6.72581
     2006.98151         3.74541         6.75377
     2006.98425        -3.16137         6.75727
     2006.98699         6.99986         6.94717
     2006.98973        -6.41392         6.81668
     2006.99794        -8.81225         6.80736
     2007.00342        13.75519         7.16037
     2007.00616         2.93242         6.78057
     2007.00889         4.02764         6.72115
     2007.01163         0.07286         6.71067
     2007.01437         2.98509         6.75261
     2007.01711        -8.71769         6.71649
     2007.01984       -11.47547         6.58834
     2007.02258       -14.26124         6.53474
     2007.02504         3.48906         7.73008
     2007.05544       -10.13856         6.29241
     2007.05817       -18.04434         6.51727
     2007.06091       -14.15412         6.40659
     2007.06365       -14.19290         6.28309
     2007.06639       -10.00267         6.52076
     2007.06913        -9.64045         6.33436
     2007.07186        -9.00223         6.29707
     2007.07460       -12.41100         6.34950
     2007.07734       -16.38278         6.28426
     2007.08008       -13.61556         6.30756
     2007.08282       -12.42833         6.33086
     2007.08555       -12.15211         6.45086
     2007.08829       -12.74989         6.44038
     2007.09103        -4.18766         6.44620
     2007.09377        -3.36744         6.46834
     2007.09650       -10.70522         6.45902
     2007.09924       -11.92799         6.40775
     2007.10198        -3.70177         6.35300
     2007.10472        -2.15355         6.48465
     2007.10746        -7.71932         6.59533
     2007.11019        -6.80510         6.39144
     2007.11293         3.83512         6.51610
     2007.11567        -8.54465         6.32154
     2007.11841       -14.20943         6.35067
     2007.12115        -3.29221         6.37630
     2007.12388        -6.76599         6.56037
     2007.12662        -4.38776         6.42523
     2007.12936        -7.52654         6.57203
     2007.13210        -2.85032         6.44620
     2007.13466        -2.37804         6.93552
     2007.13757         1.42513         6.44387
     2007.14031        -5.45265         6.41707
     2007.14305        -8.57042         6.37979
     2007.14579        -4.55120         6.40076
     2007.14852        -6.22798         6.44038
     2007.15126         6.31025         6.46368
     2007.15400         0.96947         6.39028
     2007.15674        -0.82931         6.35999
     2007.15948        -1.11108         6.54057
     2007.16221        -7.08686         6.70484
     2007.16495        -3.76564         6.65125
     2007.16769        -3.01641         6.60465
     2007.17043       -10.40819         6.51144
     2007.17316        -1.38597         6.54057
     2007.17590        -4.70274         6.51261
     2007.17864        -5.63352         6.81202
     2007.18138         8.46970         6.74678
     2007.18412         1.18893         6.65940
     2007.18685        -2.35585         6.66173
     2007.18959         0.19937         6.57669
     2007.19233         3.88059         6.76193
     2007.19507       -10.22918         6.45203
     2007.19780       -16.56196         6.46834
     2007.20054       -17.48274         6.47533
     2007.20328       -11.15751         6.48115
     2007.20602        -5.67729         6.47416
     2007.20876        -3.46907         6.45902
     2007.21149        -8.22684         6.48348
     2007.21423         2.80738         6.62562
     2007.21697        -9.77440         6.43571
     2007.21971        -2.16617         6.37863
     2007.22245        -5.72195         6.38096
     2007.22518         7.32027         6.42639
     2007.22792        -3.48350         6.44737
     2007.23066        -7.31828         6.42756
     2007.23340        -6.85606         6.48814
     2007.23613       -13.81883         6.46717
     2007.23887       -13.24961         6.40775
     2007.24161        -8.80339         6.44154
     2007.24435        -7.21116         6.37630
     2007.24709        -5.89494         6.38562
     2007.24982        -7.91572         6.42756
     2007.25256       -10.39950         6.34834
     2007.25530       -10.55527         6.40542
     2007.25804        -9.75505         6.45436
     2007.26078        -8.13983         6.45552
     2007.26351        -8.70960         6.36348
     2007.26625         0.87662         6.63377
     2007.26899        -0.96716         6.37513
     2007.27173        -2.50393         6.48348
     2007.27446        -1.66371         6.30406
     2007.27720         0.12451         6.36115
     2007.27994        -7.37426         6.40076
     2007.28268        -2.41804         6.68387
     2007.28542        -3.41882         6.45552
     2007.31553        -3.60736         6.35999
     2007.31827        -6.39514         6.54639
     2007.32101        -8.12092         6.43105
     2007.32375        -6.58069         6.50911
     2007.32648        -8.07847         6.40193
     2007.32922        -2.00525         6.36232
     2007.33196        -2.59802         6.67105
     2007.33470        -3.49880         6.54989
     2007.33744        -8.37558         6.48115
     2007.34017        -8.60635         6.45785
     2007.34291       -13.10013         6.52892
     2007.34565       -12.89791         6.45319
     2007.34839        -3.02168         6.43688
     2007.35112        -8.85046         6.48232
     2007.35386        -5.77624         6.80620
     2007.35660       -14.02701         6.80037
     2007.35934        -5.56079         6.44387
     2007.36208        -5.29657         6.48115
     2007.36481        -9.61934         6.63261
     2007.36755        -2.87112         6.49513
     2007.37029        -5.74590         6.56503
     2007.37303        -2.13468         6.68154
     2007.37577        -7.22045         6.71416
     2007.37850       -11.18123         6.70834
     2007.38124        -4.51801         6.54173
     2007.38397        11.73622         6.60465
     2007.38673        -0.78356         6.49164
     2007.38945       -10.08334         6.43571
     2007.39219        -5.64111         6.64193
     2007.39493        -2.95489         6.64309
     2007.39767        -6.57367         6.54290
     2007.40041         1.68956         6.48115
     2007.40314        -5.64022         6.42989
     2007.40588        -5.96900         6.39144
     2007.40856        -6.41876         6.68620
     2007.41136        -7.10455         6.41474
     2007.41410        -4.33733         6.44154
     2007.41683        -5.10210         6.41008
     2007.41957        -1.03188         6.48698
     2007.42231        -0.03566         6.59649
     2007.42505         3.05157         6.57086
     2007.42778         3.42679         6.38329
     2007.43052         3.32701         6.40775
     2007.43326        -4.49177         6.40542
     2007.43600        -2.58254         6.56737
     2007.43874        -1.98432         6.71999
     2007.44147        -4.50610         6.50678
     2007.44393        -2.57579         7.61474
     2007.44695        -8.71565         6.56154
     2007.44969       -11.71943         6.40193
     2007.45243         0.58580         6.52426
     2007.45516        -8.56498         6.35766
     2007.45790        -5.53176         6.35067
     2007.46064        -3.40153         6.44038
     2007.46338        -2.74931         6.43921
     2007.46611        -4.56509         6.45203
     2007.46885        -1.79686         6.51610
     2007.47159        -0.91164         6.47766
     2007.47433        -7.82742         6.47999
     2007.47707        -8.49019         6.73047
     2007.47980        -4.41697         6.41474
     2007.48254       -12.48975         6.40659
     2007.48528       -10.79752         6.42756
     2007.48802       -11.07230         6.48698
     2007.49076        -0.18008         6.60348
     2007.49389        -3.91497         7.41319
     2007.49726        -2.31192        13.64386
     2007.49920        -4.36647         7.14756
     2007.50193       -11.76725         7.09863
     2007.50444        -6.91996         6.41008
     2007.50718        -5.07574         6.39610
     2007.50992         0.07648         6.61746
     2007.51329        -6.56247         8.68775
     2007.51562        -1.49813         7.17086
     2007.51813        -5.64885         6.38445
     2007.52087        -2.04262         6.39377
     2007.52350        -8.30037         6.69902
     2007.52635        -4.56418         6.62329
     2007.52908         1.92305         6.74795
     2007.53182        -1.23973         6.53707
     2007.53456        -9.77151         6.61513
     2007.53730         0.71672         6.47533
     2007.54004         1.12794         6.61979
     2007.54277         0.99816         6.66872
     2007.54551         0.34139         6.55222
     2007.54825         9.80561         6.58018
     2007.55099         3.79283         6.46368
     2007.55373        15.07005         6.65474
     2007.55646         3.96028         6.52542
     2007.55920         3.28150         6.48698
     2007.56194        -1.25828         6.42523
     2007.56468         2.65995         6.55222
     2007.56741        -2.06383         6.47300
     2007.57015         4.34239         6.57785
     2007.57289         3.00962         6.46018
     2007.57563        -2.75516         6.38678
     2007.57837        -5.66194         6.45319
     2007.58110         0.32429         6.36698
     2007.58384         3.56251         6.50678
     2007.58658        -0.08327         6.46251
     2007.58932         1.14196         6.38795
     2007.59206         1.88418         6.42290
     2007.59479         3.20340         6.47999
     2007.59753         3.72063         6.59999
     2007.60027         5.91085         6.40892
     2007.60301         3.60307         6.38212
     2007.60574         6.99830         6.44620
     2007.60848        -0.30248         6.33436
     2007.61122         3.80974         6.43921
     2007.61396        -0.53804         6.39610
     2007.61670         1.66319         7.02406
     2007.61943         2.29141         6.88426
     2007.62217        10.65063         6.75261
     2007.62491         1.99086         6.68154
     2007.62765         2.50308         6.83300
     2007.63039        14.41230         6.77591
     2007.63312         5.07553         6.58834
     2007.63586         2.62075         6.63144
     2007.63860         0.62297         6.59999
     2007.64134         4.59020         6.45669
     2007.64407         6.96642         6.81552
     2007.64681         2.89664         6.78639
     2007.64955         8.35887         6.96465
     2007.65229         0.59909         6.76542
     2007.65503         0.82631         6.67222
     2007.65776         3.18354         6.69319
     2007.66050         2.18076         6.77824
     2007.66324         5.71498         6.71649
     2007.66598         4.56621         6.67222
     2007.66872        -0.90057         6.78290
     2007.67145         1.01765         6.70717
     2007.67419        19.54087         7.26406
     2007.67693         4.01910         6.73513
     2007.67967         1.86332         6.70018
     2007.68240        14.62654         6.68270
     2007.68514        -1.81523         6.77474
     2007.68788         2.18499         6.81552
     2007.69062         2.74821         6.65591
     2007.69336        10.39544         6.61979
     2007.69609         9.25466         6.62911
     2007.69883         1.08388         6.69785
     2007.70157         5.84911         6.76542
     2007.70431         6.39633         6.93668
     2007.70705        12.09055         6.82717
     2007.70978        20.61478         6.91338
     2007.71252         3.75700         6.62911
     2007.71526         9.98322         6.48931
     2007.71800         5.05445         6.49979
     2007.72073         5.13667         6.52076
     2007.72347        14.51989         6.59067
     2007.72621         5.01212         6.46601
     2007.72895         5.07434         6.53008
     2007.73169         2.43756         6.53008
     2007.73442         4.27478         6.70018
     2007.73716         3.92901         6.65940
     2007.73990        32.15923         6.60115
     2007.74264        10.30145         6.47999
     2007.74538        25.67868         6.58484
     2007.74811        20.80990         6.73047
     2007.75085        20.57112         6.97397
     2007.75359        15.10135         6.78756
     2007.75633        10.32457         6.60931
     2007.75906         4.80679         6.47766
     2007.76180         5.27502         6.55222
     2007.76454         1.66824         6.44504
     2007.76728        12.23346         7.09513
     2007.77002         5.37769         7.10212
     2007.77275         9.68591         6.92037
     2007.77549         4.79913         6.53474
     2007.77823         4.07236         6.48814
     2007.78097        12.98058         6.44387
     2007.78371         5.88380         6.48115
     2007.78644        11.26203         6.54290
     2007.78918         9.11325         6.60698
     2007.79192        11.89447         6.62678
     2007.79466        24.78269         6.69202
     2007.79739        16.38992         6.76193
     2007.80013        27.64414         6.59766
     2007.80264         6.56043         6.90639
     2007.80561        13.69659         6.55688
     2007.80835         6.12681         6.67222
     2007.81108         5.09403         6.84348
     2007.81382        19.55526         6.80503
     2007.81656        -3.62652         6.72931
     2007.81930         2.36270         6.55455
     2007.82203        -4.16607         6.62096
     2007.82477         1.40315         6.80270
     2007.82751         1.46737         6.59300
     2007.83025        -0.52340         6.60581
     2007.83299         1.23782         6.48698
     2007.83572        -3.01596         6.47766
     2007.83846         1.65127         6.56853
     2007.84120         1.69249         6.56154
     2007.84394        -5.45929         6.52659
     2007.84668        -1.49306         6.58834
     2007.84941         6.14816         6.52892
     2007.85215        13.73038         6.72814
     2007.85489        13.75260         7.05552
     2007.85763        17.08983         6.72698
     2007.86036         3.89605         6.59649
     2007.86310        11.00327         6.80853
     2007.86584        16.05250         6.55571
     2007.86858         2.37972         6.50562
     2007.87132        14.53894         6.69785
     2007.87405        20.75917         6.66756
     2007.87679         6.61439         6.49863
     2007.87953        10.58461         6.57086
     2007.88227         6.96584         6.54173
     2007.88501        15.23606         6.56387
     2007.88774        -2.16472         6.49979
     2007.89048        -5.79449         6.49746
     2007.89322        -1.85727         6.60814
     2007.89596         3.14695         6.66290
     2007.89869        -3.32582         6.44853
     2007.90132         0.11143         6.89591
     2007.90948        18.88512         7.28503
     2007.91238         0.13929         6.51144
     2007.91512         1.00051         6.52892
     2007.91786        15.93374         7.08348
     2007.92060        14.63496         7.13707
     2007.92334        22.10018         6.98096
     2007.92607        -2.52159         6.57203
     2007.92881        -2.05137         6.52892
     2007.93155         0.03385         6.53591
     2007.93429        -8.57692         6.55105
     2007.93697        -0.03468         6.91921
     2007.93976        -5.45948         6.91571
     2007.94136        -1.60893        14.51181
     2007.95448         2.97835        14.08191
     2007.95619        -3.69914         6.99144
     2007.95881        17.01712         7.18600
     2007.96167        22.41431         8.30212
     2007.96440        16.03453         6.82950
     2007.96714        20.74176         7.71494
     2007.96988        -1.92802         6.68154
     2007.97262        -1.83180         6.88775
     2007.97535         1.82742         6.90989
     2007.97809        14.40965         6.69436
     2007.98083        -1.53213         6.74562
     2007.98357         3.19909         6.63610
     2007.98631         3.86332         6.89940
     2007.98904         7.30554         6.89591
     2007.99178         3.99676         6.84931
     2007.99452         5.44699         6.82135
     2007.99726        -6.59279         6.57902
     2008.00000       -16.00657         6.66756
     2008.00273        -3.00334         6.78523
     2008.00547         6.00388         6.65474
     2008.00821        20.83510         6.90057
     2008.01095         9.76833         6.43804
     2008.01368         8.25055         6.54406
     2008.01642         7.43977         6.66756
     2008.01916         0.44900         7.00076
     2008.02190         4.21022         6.65008
     2008.02464         6.76944         6.74562
     2008.02737        -1.91633         6.37513
     2008.03011        -5.62411         6.52659
     2008.03285       -10.38189         6.47766
     2008.03559        -2.52267         6.62911
     2008.03833       -10.27444         6.57785
     2008.04106       -14.54122         6.53824
     2008.04380       -15.50800         6.53358
     2008.04654       -12.18377         6.56620
     2008.04928        -8.66555         6.48814
     2008.05201        -0.55633         6.55688
     2008.05475       -12.41110         6.51610
     2008.05749       -15.67388         6.41474
     2008.06023       -12.26566         6.45552
     2008.06297        -4.37643         6.43455
     2008.06570        -4.04321         6.48931
     2008.06844        -5.31899         6.56270
     2008.07118         6.47724         6.46717
     2008.07392         5.93346         6.43105
     2008.07666         7.66968         6.85164
     2008.07939         1.07091         6.66756
     2008.08213         2.67013         6.56037
     2008.08487        -1.07265         6.48115
     2008.08761        -8.20742         6.39144
     2008.09034        -2.16620         6.45436
     2008.09308        -6.05398         6.47183
     2008.09582         0.83425         6.88426
     2008.09856         5.91947         6.78406
     2008.10130         3.11869         6.76775
     2008.10403        -1.50209         7.03105
     2008.10677         7.50114         6.79804
     2008.10945        10.31338         6.77008
     2008.11225        -2.74742         6.51494
     2008.11498         0.29481         6.76309
     2008.11772        -5.29597         6.50678
     2008.12052        -9.76776         6.69552
     2008.12320       -11.03152         6.66756
     2008.12594         7.59870         6.55921
     2008.12867        -9.52708         6.69552
     2008.13141        -6.71085         6.49979
     2008.13415        -6.24563         6.45436
     2008.13689        -3.15541         6.45785
     2008.13963        -2.07418         6.43222
     2008.14236        -0.32496         6.49863
     2008.14510        -4.68374         6.51144
     2008.14784        -4.53951         6.70368
     2008.15058        -9.93229         6.41824
     2008.15331       -12.14907         6.44504
     2008.15605        -8.48184         6.66523
     2008.15873        -6.90161         6.55571
     2008.16347         4.45605        10.38639
     2008.16598       -12.49766        16.86171
     2008.19532        -3.46699        10.52852
     2008.19712         3.04950         6.49164
     2008.19986        13.83473         6.55105
     2008.20260         2.97595         6.47300
     2008.20533        -5.34883         6.43338
     2008.20807        -8.44560         6.73746
     2008.21081        -6.26638         6.62212
     2008.21355        -4.30816         6.48232
     2008.21629        -4.95293         6.52892
     2008.21902        -6.92071         6.56620
     2008.22176       -14.70949         6.52076
     2008.22450        -1.23927         6.79804
     2008.22724        -7.79504         6.51610
     2008.22997        -6.24282         6.61863
     2008.23271         1.89040         6.69785
     2008.23545        -3.00037         6.59882
     2008.23819        -2.87115         6.68853
     2008.24093         1.90207         6.50445
     2008.24366        -4.68370         6.42406
     2008.24640        -9.74248         6.40542
     2008.24914        -7.16626         6.39727
     2008.25188        -8.84003         6.46484
     2008.25462        -2.11981         6.37047
     2008.25735        -1.57159         6.37280
     2008.26009        10.50864         6.54406
     2008.26283        -0.33114         6.43222
     2008.26557         0.41208         6.43222
     2008.26830         2.85231         6.59649
     2008.27104        -1.93347         6.41707
     2008.27378        -7.78325         6.41241
     2008.27652        -8.96702         6.45319
     2008.27926        -3.56280         6.58601
     2008.28199        -5.13258         6.38795
     2008.28473        15.38164         6.75144
     2008.28747         3.36687         6.52076
     2008.29021        -1.25191         6.53241
     2008.29295        -0.51969         6.65474
     2008.29568         7.29854         6.52309
     2008.29842        -5.72424         7.05319
     2008.30116        -1.16302         6.40076
     2008.30390        -3.95779         6.49513
     2008.30663        -1.91857         6.43804
     2008.30937        -6.05935         6.56387
     2008.31211        -6.83812         6.45785
     2008.31485        -8.44390         6.39494
     2008.31759       -10.84168         6.46950
     2008.32032        -9.24545         6.70484
     2008.32306         7.49377         7.01241
     2008.32580        -5.11901         6.63727
     2008.32854        -1.78078         6.46834
     2008.33128        -2.45156         6.47999
     2008.33401        -5.20134         6.46834
     2008.33675         0.11089         6.44038
     2008.33949        -2.73589         6.39494
     2008.34223        -7.45767         6.41591
     2008.34496        -6.82545         6.45086
     2008.34770        -5.09322         6.48581
     2008.35044        -2.43000         6.34950
     2008.35318        -4.73478         6.32038
     2008.35592        -3.92255         6.36115
     2008.35865        -3.37333         6.35766
     2008.36139        -0.52211         6.31338
     2008.36413         3.50612         6.32038
     2008.36687        -0.51866         6.36814
     2008.36961       -13.56344         6.27377
     2008.37234       -12.28121         6.55455
     2008.37508        -7.76399         6.73746
     2008.37782        -7.98577         6.49397
     2008.38056        -4.55054         6.46251
     2008.38329         1.81368         6.75727
     2008.38603        -1.90710         6.31805
     2008.38877        -2.92787         6.37979
     2008.39151        -3.24965         6.49630
     2008.39425        -1.63843         6.36348
     2008.39698        -8.17720         6.86795
     2008.39972         0.40202         6.32038
     2008.40246        -4.72376         6.29940
     2008.40520        -7.48854         6.41358
     2008.40794        -6.45831         6.31688
     2008.41067        -3.94909         6.32970
     2008.41341        -4.44387         6.46484
     2008.41615        -3.02464         6.55222
     2008.41889        -5.57642         6.27261
     2008.42162         7.16280         6.58834
     2008.42436         3.67403         6.42290
     2008.42710         2.68625         6.36814
     2008.42984         4.58847         6.57203
     2008.43258         0.43370         6.70484
     2008.43531        -4.27908         6.51727
     2008.43805        -5.10586         6.46834
     2008.44079        -0.29563         6.42756
     2008.44353        -6.14741         6.49979
     2008.44626        -6.10319         6.42290
     2008.44900       -12.52596         6.39494
     2008.45174        -9.48674         6.52775
     2008.45448        -4.95452         6.55222
     2008.45722        -9.33929         7.17785
     2008.45995        -7.31507         6.41008
     2008.46269        -8.08185         6.38212
     2008.46543       -10.09263         6.35533
     2008.46817       -11.91340         6.32620
     2008.47091        -8.11918         6.67804
     2008.47364       -10.07796         6.43222
     2008.47638        -4.99473         6.33436
     2008.47918        -9.52753         6.73746
     2008.48186        -4.68029         6.32504
     2008.48459        -8.97006         6.61047
     2008.48733        -5.48384         6.35300
     2008.49007       -11.70162         6.35999
     2008.49281        -6.09039         6.36698
     2008.49555        -5.67717         6.68969
     2008.49828        -5.09295         6.61979
     2008.50102        -6.51572         6.63377
     2008.50376         7.56150         6.74562
     2008.50650        -3.40728         6.76659
     2008.50924        -5.49805         6.51494
     2008.51197        -2.48383         6.38329
     2008.51471        -4.57661         6.36814
     2008.51745        -4.99838         6.36931
     2008.52019        -8.36216         6.50329
     2008.52292        -1.14394         6.62329
     2008.52566        -1.44772         6.58368
     2008.52840        -0.65949         6.48814
     2008.53108        -0.76225         6.65008
     2008.53388        -0.90405         6.44154
     2008.53661        -1.27082         6.40659
     2008.53935        -4.01160         6.36581
     2008.54209        -7.50538         6.33203
     2008.54483        -2.17015         6.44504
     2008.54757         0.03807         6.63144
     2008.55030         1.70329         6.36814
     2008.55304         1.25252         6.46135
     2008.55578         3.78374         6.42173
     2008.55852         0.37496         6.35882
     2008.56125        -1.29481         6.43455
     2008.56399        -7.44359         6.42872
     2008.56673         0.75363         6.51610
     2008.56947         0.85086         6.37397
     2008.57221         1.51908         6.55222
     2008.57494         3.35230         6.61513
     2008.57768         5.68453         6.52076
     2008.58042         4.82575         6.44504
     2008.58316        14.48997         6.73164
     2008.58590         7.60819         6.41474
     2008.58863        -1.00058         6.58135
     2008.59137         0.10964         6.80154
     2008.59411         1.85386         6.32737
     2008.59685        -5.51791         6.40659
     2008.59958         1.19731         6.59882
     2008.60232         0.50753         6.63261
     2008.60506         5.44276         6.61280
     2008.61054        -2.11680         6.46368
     2008.61327         0.18543         6.46950
     2008.61601         0.12065         6.44620
     2008.61875         1.34187         6.48348
     2008.62149        -0.51590         6.43804
     2008.62423         4.45032         6.49397
     2008.62696        -1.66846         6.52542
     2008.62970        13.34777         6.74911
     2008.63244         1.87499         6.43804
     2008.63518        22.24521         6.81086
     2008.63791        12.52544         6.57785
     2008.64065         1.23266         6.61863
     2008.64339         5.68088         6.54173
     2008.64613         9.17110         6.81202
     2008.64887        13.78233         6.57552
     2008.65160        12.17155         6.44737
     2008.65434        13.81277         6.78406
     2008.65708         5.61400         6.75960
     2008.65982         3.02922         6.66057
     2008.66256         6.29044         6.65358
     2008.66529         0.22767         6.70601
     2008.66803         1.14789         6.44853
     2008.67077        -4.76889         6.55921
     2008.67351        -1.05866         6.54523
     2008.67624        -0.09544         7.00426
     2008.67898         1.68478         6.52892
     2008.68172        -0.59999         6.54639
     2008.68446        -1.23877         6.51843
     2008.68720        -0.07155         6.47649
     2008.68993         0.40068         6.59067
     2008.69267         1.79590         6.44737
     2008.69541         0.27312         6.51727
     2008.69815         8.49235         6.65474
     2008.70089         7.18257         6.49280
     2008.70362         1.50979         6.50562
     2008.70636         5.64401         6.69669
     2008.70910        -1.26676         6.74096
     2008.71184        -1.28254         6.75960
     2008.71457         3.39568         6.60814
     2008.71731         3.28691         6.52426
     2008.72005        14.42913         6.86096
     2008.72279        14.08735         6.58018
     2008.72553         9.68958         6.68503
     2008.72826         0.15080         6.41241
     2008.73100        -0.74498         6.56620
     2008.73374        17.92725         6.75494
     2008.73648         8.04547         6.88309
     2008.73921         2.52069         6.87028
     2008.74469         5.85114         6.41358
     2008.74743         2.37936         6.46601
     2008.75017         4.70859         6.50329
     2008.75290         5.93581         6.49164
     2008.75564        13.23803         6.55455
     2008.75838        30.61726         6.98329
     2008.76112         9.52248         6.44737
     2008.76386         9.28170         6.48115
     2008.76659        -1.53608         6.76892
     2008.76933        -0.12985         6.78290
     2008.77207        -3.26663         6.37047
     2008.77481        -3.12141         6.33669
     2008.77754        -1.11318         6.47649
     2008.78028        -1.77396         6.45552
     2008.78308         0.29225         6.50212
     2008.78576         7.46849         6.45086
     2008.78850        -0.17729         6.45436
     2008.79123         9.34893         6.64659
     2008.79397        -7.76984         6.49397
     2008.79671        -2.14962         6.38911
     2008.79945        -3.99840         6.39144
     2008.80219         9.52983         6.50445
     2008.80492        22.59305         6.52775
     2008.80766         1.48727         6.45785
     2008.81040         3.59350         6.54756
     2008.81314         0.67472         6.45319
     2008.81587         3.54294         6.44504
     2008.81861        -1.12883         6.41474
     2008.82135        -4.23861         6.41008
     2008.82409        -2.74639         6.55105
     2008.82683        -2.74917         6.69436
     2008.82956        -0.66294         6.44737
     2008.83230         3.82128         6.57785
     2008.83504        14.49250         6.52892
     2008.83778        29.92373         6.87144
     2008.84052        21.99295         6.61397
     2008.84325        27.44417         6.56037
     2008.84599        18.17640         6.45902
     2008.84873        11.89062         6.63843
     2008.85147        21.33984         6.82018
     2008.85420        25.27707         6.89940
     2008.85751        28.61213         8.77629
     2008.86521        26.64294         6.96348
     2008.86801        10.42015         6.91921
     2008.87063        -1.63459         6.65125
     2008.87337        -6.25637         6.47766
     2008.87611        -2.23915         6.44038
     2008.87885        -5.83992         6.51261
     2008.88158        -0.75570         6.53358
     2008.88432        -3.91748         6.45086
     2008.88706        -3.86926         6.59766
     2008.88980         1.62097         6.60348
     2008.89253         7.65019         6.57319
     2008.89527        -1.30359         6.50096
     2008.89801        -3.29736         6.58018
     2008.90075         1.68786         6.50445
     2008.90349         3.25608         6.49979
     2008.90622        -9.52869         6.49863
     2008.90896         1.71953         6.45319
     2008.91170        -1.04325         6.54989
     2008.91444         3.47198         6.46834
     2008.91718         4.55120         6.53591
     2008.91991         5.72142         6.52659
     2008.92265        -3.06335         6.55571
     2008.92539        -4.06113         6.57319
     2008.92813        -1.75791         6.52193
     2008.93086        -1.74168         6.77125
     2008.93360         0.02954         6.59766
     2008.93634         7.59476         6.61164
     2008.93908        -7.14201         6.49047
     2008.94182        -7.25879         6.47766
     2008.94455       -10.77757         6.55455
     2008.94729        -4.27834         6.65358
     2008.95003        10.31488         6.68736
     2008.95277        -0.99190         6.45436
     2008.95551        -5.82868         6.38911
     2008.95824        -7.03245         6.43222
     2008.96098       -10.47023         6.47533
     2008.96372         1.48499         6.44620
     2008.96646        -0.96778         6.54872
     2008.96919        -6.75556         6.46834
     2008.97193         4.93266         6.41824
     2008.97467         5.06689         6.38212
     2008.97741         3.27611         6.61280
     2008.98927        -7.61626        11.56658
     2008.99110        -0.52377         6.51377
     2008.99384         1.55545         6.48465
     2008.99657       -12.68833         6.40309
     2008.99931         0.14390         6.58018
     2009.00479         4.36334         6.41591
     2009.00752        -4.27643         6.38562
     2009.01026       -10.71921         6.41125
     2009.01300        -6.65099         6.95649
     2009.01545        10.57532         7.57280
     2009.02395       -12.76410         6.57319
     2009.02653       -26.17683        13.46677
     2009.02943        -1.56465         6.54523
     2009.03216       -11.46243         6.44154
     2009.03833       -18.69418         9.32386
     2009.04038       -16.83076         6.33203
     2009.04312       -17.81053         6.32853
     2009.04585       -17.60231         6.45902
     2009.04859       -20.23809         6.40892
     2009.05133       -15.15686         6.43688
     2009.05407       -15.34964         6.39144
     2009.05681       -16.21042         6.35999
     2009.05954       -13.23119         6.44154
     2009.06228       -14.76197         6.38329
     2009.06502       -18.05875         6.46601
     2009.06776       -12.40252         6.37863
     2009.07049       -14.65130         6.37979
     2009.07323       -16.43708         6.42057
     2009.07597       -10.91086         6.35766
     2009.07871       -14.71563         6.39377
     2009.08145       -13.98241         6.36465
     2009.08418        -9.68619         6.41824
     2009.08692       -12.84296         6.65474
     2009.08966       -14.50074         6.38911
     2009.09240       -13.87252         6.44853
     2009.09514       -14.33729         6.41940
     2009.09787        -9.41307         7.17435
     2009.10061        -2.08485         6.40076
     2009.10335       -14.05262         6.38795
     2009.10609        -6.10940         6.45086
     2009.10882        -4.14418         7.12775
     2009.11156        -7.96195         6.63028
     2009.11430        -6.84073         6.68270
     2009.11704        -9.98951         6.54173
     2009.11978       -10.18528         6.54756
     2009.12251        -8.82306         6.36931
     2009.12525        -9.66384         6.36581
     2009.12799        -3.35361         6.46601
     2009.13073        -5.76539         6.40659
     2009.13347       -13.23417         6.35766
     2009.13620       -14.39295         6.42173
     2009.13894       -13.01472         6.42989
     2009.14168       -13.18950         6.38678
     2009.14442        -8.85428         6.45319
     2009.14715        -7.92505         6.55105
     2009.14989        -3.75583         6.55921
     2009.15263        -6.24961         6.48931
     2009.15537        -9.16938         6.61513
     2009.15811       -12.50816         6.54290
     2009.16084        -9.55094         6.40426
     2009.16358        -0.05871         6.61863
     2009.16632         0.66251         6.53940
     2009.16889        -7.75322         7.08698
     2009.17180        -4.80304         6.42756
     2009.17453        -2.86482         6.45203
     2009.17727        -4.95260         6.61280
     2009.18001       -15.22837         6.46717
     2009.18275        -7.75015         6.50096
     2009.18548        -4.48193         6.56620
     2009.18817        -9.35669         6.49397
     2009.19096       -11.28048         6.41358
     2009.19370       -15.06526         6.36581
     2009.19644       -10.45504         6.35999
     2009.19917        -0.13581         6.63494
     2009.20191        -0.44859         6.61513
     2009.20465        -6.27837         6.64076
     2009.20739        -3.98814         6.54639
     2009.21013       -16.88492         6.34484
     2009.21286        -8.31670         6.64309
     2009.21560        -1.18547         6.68969
     2009.21822       -13.79522         6.75727
     2009.22108        -5.91503         6.40309
     2009.22381        -3.54780         6.49280
     2009.22655        -8.56558         6.36814
     2009.22935        -2.88837         7.08698
     2009.23203        -9.95013         6.44271
     2009.23477        -7.04391         6.51610
     2009.23750         2.88531         6.53824
     2009.24024        -2.75446         6.62096
     2009.24298        -7.80124         6.55455
     2009.24572        -6.89902         7.03804
     2009.24846         4.62821         6.75261
     2009.25119         6.44343         7.08581
     2009.25393        -6.77635         6.67921
     2009.25667       -11.18913         6.41707
     2009.25941       -12.72290         6.66406
     2009.26214        -6.73468         6.66173
     2009.26488        -8.05446         6.66406
     2009.26762        -5.85523         6.51028
     2009.27036        -7.79601         6.48232
     2009.27310        -9.60079         6.51377
     2009.27583        -2.64856         6.47533
     2009.27857       -10.82434         6.65358
     2009.28131        -6.71312         6.59533
     2009.28405        -9.03689         6.50911
     2009.28679       -11.01667         6.49630
     2009.28952       -13.26545         6.50678
     2009.29226       -10.31822         6.59183
     2009.29500       -10.02300         6.50096
     2009.29774       -14.79878         6.51028
     2009.30047       -10.14355         6.48232
     2009.30321       -12.46233         6.51727
     2009.30595        -0.72511         6.62911
     2009.30869        -2.87388         6.53474
     2009.31143        -8.93066         6.48814
     2009.31416        -7.15144         6.50329
     2009.31690       -13.05822         6.48115
     2009.31964       -11.99799         6.48232
     2009.32238        -6.03377         6.51144
     2009.32512        -6.30255         6.68037
     2009.32785       -11.66132         6.56154
     2009.33059       -12.79710         6.39610
     2009.33333        -8.72388         6.40775
     2009.33612        -9.26967         6.79105
     2009.33880        -6.62243         7.01591
     2009.34154         6.98579         6.97979
     2009.34428        -1.87998         6.67804
     2009.34702        -8.84976         6.53707
     2009.34976        -9.11654         6.40426
     2009.35249       -11.73631         6.39960
     2009.35523       -11.41609         6.43921
     2009.35797       -11.90987         8.24154
     2009.36071        -7.12664         6.59999
     2009.36339       -11.96740         6.80969
     2009.36618        -2.49220         6.71067
     2009.36892       -11.59397         6.64426
     2009.37166       -11.08575         6.65008
     2009.37440       -14.03253         6.58018
     2009.37713       -15.55931         6.71300
     2009.37987         1.51092         7.05668
     2009.38261        -7.35986         6.40309
     2009.38535       -12.00264         6.38096
     2009.38809       -14.85541         6.39028
     2009.39082       -14.79719         6.56387
     2009.39356       -12.49397         6.50795
     2009.39630       -11.08874         6.65125
     2009.39904       -14.57152         6.43804
     2009.40177        -6.27330         6.43571
     2009.40451        -8.56407         6.63494
     2009.40725        -8.37785         6.43222
     2009.40999        -7.90763         6.41591
     2009.41273        -9.52140         6.58601
     2009.41546        -6.92918         6.72814
     2009.41820       -11.10296         6.47183
     2009.42094       -14.86573         6.44504
     2009.42368        -9.73451         6.43455
     2009.42642       -10.02329         6.37746
     2009.42915       -10.36606         6.52076
     2009.43189        -4.39984         6.46251
     2009.43463        -8.07862         6.45436
     2009.43737        -5.72540         6.45785
     2009.44010       -14.01717         6.56737
     2009.44284       -13.18095         6.43105
     2009.44558        -8.62173         6.40659
     2009.44832        -7.05750         6.46717
     2009.45106        -8.45028         6.50096
     2009.45379        -7.15906         6.42872
     2009.45653       -10.10183         6.45785
     2009.45927       -11.04961         6.47533
     2009.46201        -3.18139         6.46251
     2009.46475         2.69984         6.69552
     2009.46748        -6.61094         6.63377
     2009.47022        -9.83972         6.50562
     2009.47296        -6.69049         6.48115
     2009.47570        -4.52927         6.45203
     2009.47843        -8.64305         6.53591
     2009.48117        -7.57682         6.59882
     2009.48391        -5.70960         6.43338
     2009.48665       -10.32638         6.53940
     2009.48939        -8.39615         6.66989
     2009.49212        -4.91493         6.52193
     2009.49486        -5.65771         6.61630
     2009.49760        -8.01349         6.46251
     2009.50034        -5.86126         6.43688
     2009.50308        -8.39604         6.45902
     2009.50581        -6.07882         6.90406
     2009.50855        -1.42359         6.85630
     2009.51123       -10.57535         6.85397
     2009.51408        -3.84816         6.50562
     2009.51676        -3.76192         6.45436
     2009.51950        -6.98070         6.67688
     2009.52224        -9.62148         6.43921
     2009.52498        -5.42025         6.72348
     2009.52772        -2.85903         6.63843
     2009.53045         1.40119         6.75727
     2009.53319        -6.31458         6.49047
     2009.53593        -3.38836         6.57785
     2009.53867        -7.93014         6.87377
     2009.54141        -4.44891         6.63144
     2009.54414        -4.48369         6.50795
     2009.54688        -3.45647         6.44970
     2009.54962        -2.14124         7.07882
     2009.55236        -5.00402         6.38212
     2009.55509        -1.84980         6.46135
     2009.55783        -1.98658         6.42872
     2009.56057        -5.88035         6.79804
     2009.56331         6.81287         6.84115
     2009.56605         1.12509         6.72698
     2009.56878        -4.23168         6.43921
     2009.57152         1.12054         6.44387
     2009.57426        -9.01424         6.55455
     2009.57700        -0.71301         6.58368
     2009.57974        -3.72079         6.48348
     2009.58247         1.85843         6.51377
     2009.58521        -0.55734         6.55688
     2009.58795        -2.04812         6.54406
     2009.59069        -1.14290         6.54057
     2009.59342        -4.38167         6.68037
     2009.59616        -1.21345         6.47882
     2009.59890        -0.08923         6.45319
     2009.60164         0.42300         6.55688
     2009.60438         2.98522         6.52076
     2009.60711        -3.64356         6.53707
     2009.60985        11.87167         6.50212
     2009.61259        -3.77111         6.49397
     2009.61533        -0.51589         6.57086
     2009.61807         2.00533         6.44271
     2009.62080        -1.38244         6.81668
     2009.62354        -4.77822         6.63377
     2009.62628        -1.32200         6.51960
     2009.62902         8.52123         7.14756
     2009.63175        -2.15055         6.62212
     2009.63449        -3.19533         6.89940
     2009.63729        -2.93912         7.28503
     2009.63997        -4.79388         6.93319
     2009.64271        -6.34966         6.71067
     2009.64544         1.71357         6.79455
     2009.64818         2.36079         7.02523
     2009.65092        -0.91999         6.57203
     2009.65366        -6.11376         6.69669
     2009.65639        -5.06354         6.76309
     2009.65913        -8.00732         6.56387
     2009.66187         5.06791         6.45785
     2009.66467         0.03611         6.63727
     2009.66735         5.75335         6.95649
     2009.67008         6.85258         6.69785
     2009.67282        -0.09520         7.42600
     2009.67556        -1.19498         6.74445
     2009.67784        11.62837         8.38717
     2009.68183         9.02524        11.49668
     2009.68377        -8.13631         6.57436
     2009.68651        10.02291         6.53241
     2009.68925         2.32914         6.76542
     2009.69199        -2.25364         6.56387
     2009.69472        -5.57342         6.58950
     2009.69746        -1.64719         6.34251
     2009.70020         1.67403         6.57203
     2009.70294        -1.06775         6.54057
     2009.70568         2.29448         6.46135
     2009.70841        -5.89130         6.49047
     2009.71115        -3.49308         6.58018
     2009.71389         0.33315         6.77241
     2009.71663         3.74837         6.91105
     2009.71937         3.41659         6.56503
     2009.72210        -6.96218         6.49863
     2009.72484        -8.79796         6.60931
     2009.72758        -4.72674         6.47999
     2009.73032         4.03749         6.61979
     2009.73305        -0.35329         6.60581
     2009.73579         2.63793         6.56620
     2009.73853         1.14915         6.43105
     2009.74127         4.44438         6.62212
     2009.74401         3.83660         6.75261
     2009.74652         7.42889         7.73125
     2009.74948        -6.00695         9.12348
     2009.75222         0.47327         7.12775
     2009.75496        -2.87451         6.58368
     2009.75775        -0.76230         7.25125
     2009.76043        -0.97506         6.68853
     2009.76317         1.24916         6.89591
     2009.76591        -1.54061         6.57086
     2009.76865        -3.08339         6.64193
     2009.77138        -2.00017         6.52659
     2009.77412         0.44106         6.59649
     2009.77686        -3.30472         7.02523
     2009.77960         0.61350         7.01940
     2009.78234         4.44473         6.55688
     2009.78507        23.41895         6.91804
     2009.78781         9.76117         7.04969
     2009.79055       -10.96660         7.35727
     2009.79329        21.44162         7.28620
     2009.79603         2.25084         7.29202
     2009.79876        -4.00394         8.22057
     2009.80139         1.20932         7.61241
     2009.80424         4.96451         6.95999
     2009.80698        10.69973         7.99921
     2009.80971        18.09196         7.51222
     2009.81245         7.85118         7.37707
     2009.81821         8.70055         8.61319
     2009.82808        19.93375        13.19065
     2009.83053        14.77205        14.06793
     2009.83359         6.69218        10.67765
     2009.83624        -3.48057        10.60308
     2009.83935         0.57055        11.98599
     2009.84257        -2.85936         7.81047
     2009.84454         4.86708        11.78910
     2009.84804        22.13708         7.70678
     2009.86173         6.62220         7.42367
     2009.86430         0.82547         7.48076
     2009.86732         5.93861         7.51688
     2009.93677         0.62491        15.78404
     2009.93839        -1.42255         6.60465
     2009.94113         5.57167         6.45552
     2009.94387         2.36889         6.63494
     2009.94661         5.23912         6.55688
     2009.94935         3.76834         6.44271
     2009.95208         0.36456         6.40892
     2009.95482        10.82779         6.75028
     2009.95756         9.54201         6.69319
     2009.96030        -4.10477         6.47882
     2009.96303        -2.09454         6.50562
     2009.96577        -0.18532         6.56737
     2009.96851         4.57690         6.79222
     2009.97125        13.78813         6.69785
     2009.97399         5.46835         6.55921
     2009.97672        -6.98543         6.42173
     2009.97946        -7.09720         6.41591
     2009.98220        -5.70798         6.44387
     2009.98494         0.26524         6.38329
     2009.98767        -3.90654         6.37164
     2009.99041        -0.63631         6.45785
     2009.99315        -2.93509         6.42872
     2009.99589         1.54413         6.44038
     2009.99863        -6.05164         6.51261
     2010.00410        -1.07120         6.41008
     2010.00684        -7.13197         6.40076
     2010.00958        -0.32575         6.71649
     2010.01232        -2.76453         6.52542
     2010.01505        -7.04030         6.39494
     2010.01779        -6.30108         6.50212
     2010.02053         3.31014         6.62212
     2010.02287         8.75648         8.33707
     2010.10540         4.72906         6.53358
     2010.10814         3.88628         6.56387
     2010.11088         2.60651         6.49047
     2010.11362         3.45573         6.47183
     2010.11635        10.16695         6.53824
     2010.11909         7.82418         6.43921
     2010.12183        10.22540         6.51028
     2010.12457         6.20962         6.49746
     2010.12731         0.82885         6.67571
     2010.13004        -6.40193         6.52193
     2010.13278        -1.50571         6.46950
     2010.13552        -0.41448         6.46251
     2010.13826         3.79474         6.44737
     2010.14099         1.34796         6.37630
     2010.14373        -1.66881         6.56737
     2010.14647         0.00341         6.79688
     2010.14921         3.17263         6.47999
     2010.15195        -2.49614         6.41474
     2010.15468         5.60808         6.44970
     2010.15742         3.38830         6.44737
     2010.16016         2.88853         6.40076
     2010.16290         1.11875         6.41591
     2010.16564         0.69097         6.46834
     2010.16837         5.71419         6.47999
     2010.17111         2.23842         6.47999
     2010.17385        -0.05336         6.44853
     2010.17659        -1.03614         6.33902
     2010.17932         6.73009         6.37630
     2010.18206         5.62931         6.32853
     2010.18480         3.80953         6.42756
     2010.18754         5.51776         6.44154
     2010.19028         7.40898         6.43222
     2010.19301        12.52020         6.43688
     2010.19575         5.21643         6.43921
     2010.19849         2.12165         6.48698
     2010.20123        -3.99813         6.45086
     2010.20397        -1.43090         6.53358
     2010.20670        -1.46068         6.59416
     2010.20944        -1.65746         6.41940
     2010.21218        -1.52023         6.46484
     2010.21492         0.29699         6.45669
     2010.21765         3.48121         6.48232
     2010.22039        -0.41856         6.41591
     2010.22313        -3.30934         6.35416
     2010.22587         1.19488         6.52659
     2010.22861         6.10710         6.57086
     2010.23134         5.59633         6.55105
     2010.23408        -4.35845         6.53241
     2010.23956        17.00100         6.66872
     2010.24230         3.64322         6.75843
     2010.24503         3.10344         6.70717
     2010.24777         2.80267         6.57319
     2010.25051         8.51989         6.88892
     2010.25325         6.08611         6.87610
     2010.25598         7.06834         6.55338
     2010.25872        10.07856         6.70251
     2010.26146         6.62778         6.69086
     2010.26420         3.10301         6.88076
     2010.26694         8.51423         6.68037
     2010.26967         8.54945         6.62911
     2010.27241         5.07968         6.58950
     2010.27515         4.67690         6.50212
     2010.27789         6.82012         6.65474
     2010.28062         4.90435         6.43571
     2010.28336        -0.12543         6.58251
     2010.28610         1.28679         6.66989
     2010.28884         2.26201         6.43338
     2010.29158         6.38324         6.60931
     2010.29431         5.68246         6.58251
     2010.29705         3.15168         6.57086
     2010.29979         8.44591         6.55921
     2010.30253        16.79413         6.60581
     2010.30527         7.60935         6.68270
     2010.30800         9.30858         6.52076
     2010.31074         7.34580         6.62212
     2010.31348         4.85202         6.48814
     2010.31622        11.63525         6.45319
     2010.32169        11.28369         6.60348
     2010.32443         5.20692         6.61863
     2010.32717         8.16714         6.43688
     2010.32991         9.62536         6.41008
     2010.33264         7.98659         6.40309
     2010.33538         7.30181         6.68387
     2010.33812         3.32103         6.53940
     2010.34086         0.03126         6.42639
     2010.34360        -0.26952         6.37164
     2010.34633         0.57370         6.49397
     2010.34907         8.25092         6.41591
     2010.35181        -1.23485         6.49746
     2010.35455         2.51137         6.42639
     2010.35728        -0.45141         6.40659
     2010.36002         1.03982         6.41824
     2010.36276         4.09904         6.37746
     2010.36550        -2.63674         6.73979
     2010.36824         0.63649         6.70135
     2010.37097         5.40771         6.52309
     2010.37371         2.64793         6.35183
     2010.37645        10.62616         6.42872
     2010.37919         3.42538         6.74678
     2010.38193        -0.30540         6.74329
     2010.38466         4.07983         6.60232
     2010.38740        12.02305         6.46135
     2010.39014         4.96827         6.44271
     2010.39288         1.39050         6.46484
     2010.39561        -5.57428         6.55921
     2010.39835         7.88294         6.48465
     2010.40109         6.00917         6.37979
     2010.40383         7.85339         6.29824
     2010.40657         9.20061         6.32737
     2010.40930        -3.08717         6.56270
     2010.41204         0.49506         6.47882
     2010.41478         5.80228         6.40542
     2010.41752        12.70850         6.42290
     2010.42026         9.85873         6.36115
     2010.42299        10.76095         6.36115
     2010.42573        -1.38183         6.40892
     2010.42847         1.27040         6.48232
     2010.43121         0.43762         6.32853
     2010.43394         1.09084         6.37979
     2010.43668         3.95907         6.48698
     2010.43942         8.95129         6.43338
     2010.44216         2.32251         6.35649
     2010.44490        -0.94226         6.29824
     2010.44763        -4.18704         6.38445
     2010.45037         0.30518         6.35766
     2010.45311        -0.25759         6.35999
     2010.45585         8.85563         6.48931
     2010.45859         5.28485         6.41707
     2010.46132         2.63508         6.41241
     2010.46406         3.10430         6.31105
     2010.46680         2.85052         6.39377
     2010.46954        -3.49926         6.36115
     2010.47227        -1.27303         6.38329
     2010.47501         4.22319         6.33785
     2010.47775         4.53141         6.48232
     2010.48049         3.16764         6.58251
     2010.48323         1.58786         6.36232
     2010.48596         7.10708         6.36698
     2010.48870         6.68431         6.30523
     2010.49144         8.95553         6.32504
     2010.49418         3.83775         6.31572
     2010.49692         1.53598         6.39960
     2010.49965         7.42820         6.30639
     2010.50239         9.46342         6.32387
     2010.50513         4.18365         6.28775
     2010.50787         1.79987         6.39028
     2010.51060        -2.85291         6.33552
     2010.51334         4.06732         6.36465
     2010.51608         6.82254         6.31105
     2010.51882         4.23276         6.29707
     2010.52156        13.40299         6.45669
     2010.52429         8.67021         6.39843
     2010.52703        12.84943         6.45436
     2010.52977         6.99265         6.32154
     2010.53251         0.73288         6.28892
     2010.53525         3.04910         6.30406
     2010.53798         1.14032         6.37979
     2010.54072        -1.78045         6.35882
     2010.54346         2.29877         6.39610
     2010.54620         2.82499         6.34251
     2010.54893         0.54322         6.29008
     2010.55167         2.13444         6.35882
     2010.55441         9.89666         6.47183
     2010.55715         5.96989         6.34834
     2010.55989         3.61011         6.37746
     2010.56262         5.53533         6.32620
     2010.56536         1.80256         6.31455
     2010.56810         5.74578         6.37746
     2010.57084         4.46000         6.34834
     2010.57357         2.01123         6.51028
     2010.57631         5.59745         6.51377
     2010.57905         2.09267         6.46484
     2010.58179         4.53690         6.39144
     2010.58453         3.33812         6.34950
     2010.58726        -0.39066         6.44387
     2010.59000         1.49556         6.55688
     2010.59274         7.63579         6.42756
     2010.59548        14.64901         6.40775
     2010.59822        11.97123         6.39261
     2010.60095        13.40046         6.37513
     2010.60369         5.50168         6.32853
     2010.60643         9.36490         6.35649
     2010.60917        11.13813         6.32853
     2010.61190         6.98835         6.35533
     2010.61464         9.57457         6.38329
     2010.61738         4.95780         6.34717
     2010.62012         9.69902         6.34834
     2010.62286        11.53324         6.36232
     2010.62559         8.92447         6.35183
     2010.62833         5.18569         6.46717
     2010.63107         6.27691         6.62911
     2010.63381        12.27914         6.39377
     2010.63655         9.42936         6.38096
     2010.63928        11.56058         6.44737
     2010.64202         6.02281         6.47183
     2010.64476        -3.20297         6.51727
     2010.64750         7.33325         6.38096
     2010.65023        11.69947         6.52659
     2010.65297         9.07070         6.59649
     2010.65571         8.54192         6.25630
     2010.65845         9.86214         6.37397
     2010.66119         9.23337         6.37979
     2010.66392        17.77259         6.50329
     2010.66666        22.52081         6.33436
     2010.66940         8.38604         6.41008
     2010.67214         9.28026         6.33552
     2010.67488        13.47448         6.35649
     2010.67761        13.53871         6.32154
     2010.68035        12.93493         6.33552
     2010.68309        20.62215         6.40076
     2010.68856         8.16260         6.26562
     2010.69130         6.29182         6.27494
     2010.69404        10.50205         6.45203
     2010.69678        -1.01873         6.32387
     2010.69952         2.43249         6.33669
     2010.70225         6.37172         6.34018
     2010.70499        10.15394         6.29241
     2010.70773        13.53816         6.48465
     2010.71047        28.49138         6.37397
     2010.71321        29.52061         6.63610
     2010.71868        15.64605         6.37746
     2010.72142         6.88028         6.52309
     2010.72416         8.33350         6.45436
     2010.72689         8.64972         6.80154
     2010.72963         8.32995         6.38329
     2010.73237         1.51617         6.42290
     2010.73511        15.31339         6.53474
     2010.73785        16.44562         6.76775
     2010.74058         1.79484         6.84115
     2010.74332         9.03206         6.42173
     2010.74606         7.67829         6.42173
     2010.74880         8.13751         6.44387
     2010.75154         8.72073         6.30523
     2010.75416         7.16699         6.74795
     2010.75701        10.85518         6.47882
     2010.75975         8.98140         6.32504
     2010.76249         9.86763         6.32620
     2010.76522         8.47785         6.28892
     2010.76796         9.91807         6.42872
     2010.77070        11.48230         6.62212
     2010.77344        27.58652         6.87843
     2010.77618        14.70674         6.38795
     2010.77891         4.02096         6.36698
     2010.78165        10.82519         6.33785
     2010.78439         8.67541         6.48232
     2010.78713        19.97863         6.51261
     2010.78987         8.15586         6.28659
     2010.79260        11.03208         6.23649
     2010.79534         2.97530         6.27028
     2010.79808         9.76153         6.32620
     2010.80082        10.69975         6.34251
     2010.80355        12.20097         6.29824
     2010.80629        19.73520         6.37280
     2010.80903        11.31042         6.31572
     2010.81177        25.94564         6.73047
     2010.81451        12.75187         6.27028
     2010.81724        13.12209         6.34018
     2010.81998        18.63531         6.32154
     2010.82272         9.85454         6.38212
     2010.82546         9.07376         6.31222
     2010.82820         9.97698         6.36814
     2010.83093        23.01321         6.84115
     2010.83367        14.99043         6.82251
     2010.83641         5.22165         6.46018
     2010.83915         3.93987         6.30872
     2010.84188         3.33110         6.30756
     2010.84462        13.43632         6.42290
     2010.84736        27.93854         6.42756
     2010.85010        26.75477         6.51843
     2010.85284        13.39399         6.23067
     2010.85557        13.91621         6.29474
     2010.85831        16.97544         6.28076
     2010.86105         3.48566         6.39727
     2010.86379         1.09988         6.29824
     2010.86653         0.78911         6.32620
     2010.86926        21.01833         6.39377
     2010.87200        14.82755         6.26445
     2010.87474         8.31978         6.48931
     2010.87748         6.31600         6.51028
     2010.88021        14.07022         6.37280
     2010.88295         9.03045         6.42057
     2010.88569         8.98767         6.26445
     2010.88843         3.16689         6.44737
     2010.89117        10.66012         6.44737
     2010.89390         8.97634         6.20271
     2010.89664         3.93256         6.21319
     2010.89938         5.17478         6.24348
     2010.90212         4.46201         6.29591
     2010.90485         8.94923         6.21902
     2010.90759        17.55545         6.24348
     2010.91033         6.59868         6.15843
     2010.91307         7.66490         6.26795
     2010.91581         5.04212         6.26445
     2010.91854         4.69535         6.16659
     2010.92128        -2.23143         6.09669
     2010.92402        -1.92921         6.15494
     2010.92676         5.98202         6.21902
     2010.92950         1.06224         6.21203
     2010.93223         1.99946         6.20970
     2010.93497        16.12169         6.32970
     2010.93771         8.03491         6.29358
     2010.94045        -1.06487         6.28309
     2010.94318         5.81036         6.15610
     2010.94592        19.92558         6.40775
     2010.94866         7.11680         6.16659
     2010.95140        17.40303         6.51960
     2010.95414         0.78825         6.21319
     2010.95687         6.03347         6.32970
     2010.95961        -3.19431         6.32970
     2010.96235         1.70292         6.25513
     2010.96509         9.21114         6.24232
     2010.96783         8.22636         6.28542
     2010.97056         3.14759         6.27843
     2010.97330         4.21081         6.31222
     2010.97604         4.87703         6.32387
     2010.97872         5.91527         6.45086
     2010.98151        15.63948         6.33785
     2010.98425        10.55370         6.29008
     2010.98699        10.43993         6.20620
     2010.98973         7.96815         6.37280
     2010.99247        11.59937         6.41241
     2010.99520         5.86560         6.32154
     2010.99794        -7.99418         6.25280
     2011.00342         0.34427         6.26212
     2011.00616        -0.24451         6.17707
     2011.00889         6.76871         6.39028
     2011.01163         1.06194         6.18756
     2011.01437         0.12416         6.23067
     2011.01711         8.43838         6.48465
     2011.01984         3.31260         6.20970
     2011.02258        -1.47617         6.17125
     2011.02532        -3.11095         6.34834
     2011.02806        -4.03273         6.53591
     2011.03080        -4.93950         6.90872
     2011.03353         2.70872         6.27494
     2011.03627        -1.44606         6.28659
     2011.03901        -0.79383         6.27028
     2011.04175         7.26939         6.33319
     2011.04449        -0.73239         6.20620
     2011.04722         0.52284         6.35533
     2011.04996        -4.64794         6.30173
     2011.05270        -5.29072         6.18523
     2011.05544         9.68251         6.36581
     2011.05817         1.37173         6.24115
     2011.06091         6.34095         6.19688
     2011.06365         3.33518         6.16309
     2011.06639        -2.73160         6.20271
     2011.06913       -10.02138         6.65474
     2011.07186        -4.27915         6.40309
     2011.07460        -6.62993         6.23533
     2011.07734        -0.69671         6.19106
     2011.08008         0.70351         6.17940
     2011.08282       -10.46026         6.23999
     2011.08555        -9.10904         6.25047
     2011.08829        -2.91882         6.27028
     2011.09103        -8.07559         6.17707
     2011.09377        -2.97037         6.26678
     2011.09650        -5.99615         6.26096
     2011.09924        -0.36092         6.29940
     2011.10198         2.49530         6.38329
     2011.10472        -5.78048         6.18639
     2011.10746        -3.95825         6.22950
     2011.11019        -4.61803         6.17940
     2011.11293        -5.11481         6.30057
     2011.11567         3.56642         6.36814
     2011.11841        -3.41636         6.30173
     2011.12115         3.80786         6.36581
     2011.12388         1.11009         6.43804
     2011.12662         3.60931         6.52426
     2011.12936         6.43953         6.23300
     2011.13210        -1.54724         6.23416
     2011.13483        -4.69102         6.19805
     2011.13757        -1.95780         6.17241
     2011.14031        -2.27158         6.22950
     2011.14305         2.79565         6.53591
     2011.14579        -3.41213         6.30290
     2011.14852        -1.98791         6.16426
     2011.15086         0.58343         7.45047
     2011.15400         1.71654         6.20853
     2011.15674         6.18876         6.20271
     2011.15948         8.51999         6.31572
     2011.16221         8.20121         6.25863
     2011.16495        -0.20357         6.32504
     2011.16769        -0.50334         6.18873
     2011.17043        -8.47112         6.25513
     2011.17316       -12.66390         6.29591
     2011.17590       -11.11467         6.21669
     2011.17864        -1.04045         6.23649
     2011.18138        -3.08523         6.22368
     2011.18412        -5.80200         6.33436
     2011.18685         5.16822         6.42756
     2011.18959        -2.94956         6.21203
     2011.19233        -2.44433         6.22251
     2011.19507        -3.64611         6.25513
     2011.19780         0.96511         6.45552
     2011.20054         0.73333         6.52542
     2011.20328        -2.31544         6.36931
     2011.20602        -4.20722         6.39377
     2011.20876        -1.00700         6.32154
     2011.21149        -2.44777         6.29358
     2011.21423        -6.27155         6.24115
     2011.21697         1.80167         6.38096
     2011.21971        -2.42210         6.47533
     2011.22245        -6.36388         6.19339
     2011.22518        -1.23366         6.17358
     2011.22792        -0.70343         6.24232
     2011.23066         0.16279         6.28193
     2011.23340        -1.00799         6.24814
     2011.23613        -4.00176         6.25746
     2011.23887        -5.42654         6.30639
     2011.24161         1.45368         6.21669
     2011.24435        -0.33209         6.23882
     2011.24709        -1.17887         6.27144
     2011.24982         2.10635         6.26445
     2011.25256        -5.81542         6.20620
     2011.25530        -2.95520         6.23882
     2011.25804        -0.22798         6.56037
     2011.26078        -0.79876         6.41824
     2011.26351        -2.29153         6.21203
     2011.26625       -10.21131         6.22135
     2011.26899        -3.70009         6.29008
     2011.27173        -4.70486         6.37979
     2011.27446        -0.30564         6.54639
     2011.27720        -6.33342         6.46018
     2011.27994        -4.44819         6.22950
     2011.28268        -2.36597         6.27494
     2011.28542        -6.59475         6.21669
     2011.28815        -4.47252         6.22018
     2011.29089         0.60370         6.18290
     2011.29363        -5.69008         6.24465
     2011.29637        -6.91385         6.34484
     2011.29911        -2.40263         6.21552
     2011.30184        -1.00541         6.46135
     2011.30458        -1.31518         6.20271
     2011.30732        -2.17096         6.28426
     2011.31006        -0.45874         6.27028
     2011.31279         1.65449         6.21552
     2011.31553        -0.40329         6.33785
     2011.31827        -3.13007         6.25397
     2011.32101        -7.39285         6.25397
     2011.32375       -10.94362         6.21902
     2011.32648       -12.13440         6.25630
     2011.32922        -9.84018         6.22135
     2011.33196        -7.28795         6.28775
     2011.33470       -11.55773         6.64193
     2011.33744        -9.66751         6.28076
     2011.34017       -10.56828         6.47416
     2011.34291        -3.40006         6.43571
     2011.34565         0.31016         6.32504
     2011.34839        -5.69161         6.34601
     2011.35112       -10.12839         6.30872
     2011.35386       -11.32717         6.29591
     2011.35660        -8.66994         6.20504
     2011.35934       -15.67272         6.26212
     2011.36208       -15.91150         6.23533
     2011.36481        -9.37327         6.40426
     2011.36755        -3.75105         6.41125
     2011.37029        -5.30083         6.35999
     2011.37303        -1.51460         6.33436
     2011.37577        -7.27238         6.42756
     2011.37850        -9.97416         6.37164
     2011.38124       -11.47794         6.41008
     2011.38398       -10.95671         6.37397
     2011.38672        -6.57849         6.34601
     2011.38945        -5.40227         6.37397
     2011.39219        -5.34004         6.32154
     2011.39493        -5.73682         6.44970
     2011.39767        -2.62860         6.41008
     2011.40041        -3.40037         6.48814
     2011.40314        -7.23515         6.32970
     2011.40588        -7.79993         6.35183
     2011.40862        -3.99770         6.30639
     2011.41136       -14.83648         6.39144
     2011.41410       -11.44326         6.39261
     2011.41683        -3.84603         6.36698
     2011.41957        -6.35781         6.37047
     2011.42231       -13.00459         6.37513
     2011.42505        -6.80236         6.36931
     2011.42778        -4.53814         6.39843
     2011.43052        -7.22792         6.41125
     2011.43326        -8.99369         6.35649
     2011.43600       -10.38747         6.31105
     2011.43874       -11.26725         6.40193
     2011.44119        -6.73494         7.25125
     2011.44421        -3.09880         6.38795
     2011.44695        -8.78358         6.47067
     2011.44969        -7.09136         6.34018
     2011.45243        -9.40713         6.35416
     2011.45516        -5.49091         6.33669
     2011.45790        -3.63369         6.43455
     2011.46064         1.09854         6.43804
     2011.46338        -4.83824         6.41008
     2011.46611        -4.25402         6.36348
     2011.46885        -2.77479         6.36465
     2011.47159        -1.94457         6.46368
     2011.47433        -4.89235         6.38212
     2011.47707         2.57488         6.49397
     2011.47980        -2.91990         6.36931
     2011.48254        -3.24668         6.37863
     2011.48528        -4.59645         6.46484
     2011.48802        -4.36923         6.42173
     2011.49076        -3.08901         6.47999
     2011.49349        -1.84278         6.38445
     2011.49623        -1.15956         6.40775
     2011.49897         0.54166         6.44970
     2011.50171        -4.28412         6.52193
     2011.50444        -5.14489         6.40426
     2011.50718        -5.63467         6.41824
     2011.50992        -3.58245         6.40076
     2011.51266        -1.20822         6.51028
     2011.51540        -1.88800         6.37630
     2011.51813         2.85722         6.41358
     2011.52087         2.40345         6.47533
     2011.52361        -0.20333         6.41125
     2011.52635        -0.40411         6.40659
     2011.52908         6.50512         6.44154
     2011.53182        -0.21766         6.42290
     2011.53456        -4.35644         6.44853
     2011.53730         2.09679         6.44737
     2011.54004        -3.46199         6.37397
     2011.54277        -2.44077         6.43921
     2011.54551        -0.62954         6.40775
     2011.54825        -3.48032         6.41707
     2011.55099         6.24990         6.45785
     2011.55373         0.40013         6.42523
     2011.55646        -3.01865         6.37280
     2011.55806       -16.39610        18.48812
     2011.56194         2.91879         6.56387
     2011.56468         6.13702         6.41707
     2011.56741         2.10324         6.40426
     2011.57015        -4.13254         6.52775
     2011.57289        -0.72831         6.38329
     2011.57563         2.24991         6.38911
     2011.57837         5.36013         6.59649
     2011.58110        -1.76664         6.37047
     2011.58384         1.20958         6.47416
     2011.58658         3.90380         6.59300
     2011.58932         3.88003         6.37397
     2011.59206        -2.19975         6.44620
     2011.59479         4.11347         6.36465
     2011.59753         5.52170         6.40775
     2011.60027         2.86192         6.40426
     2011.60301         2.85214         6.38678
     2011.60574         2.64237         6.43688
     2011.60848         6.28459         6.68154
     2011.61122         9.34781         6.69202
     2011.61396         3.48704         6.49397
     2011.61670         3.25426         6.50678
     2011.61943         4.16148         6.61280
     2011.62217         0.47370         6.51144
     2011.62491        -1.60207         6.59300
     2011.62765         0.46215         6.52309
     2011.63039         4.11337         6.49979
     2011.63312         6.31260         6.39960
     2011.63586         8.49982         6.46135
     2011.63860         5.20304         6.55571
     2011.64134         7.11327         6.75144
     2011.64407         6.92849         6.50329
     2011.64681         5.28471         6.49164
     2011.64955         3.45294         6.63494
     2011.65229        -1.40384         6.57319
     2011.65503         3.74438         6.65358
     2011.65776         4.22461         6.66406
     2011.66050         8.76183         6.59533
     2011.66324         9.75805         6.44504
     2011.66598         4.06028         6.59300
     2011.66872         2.52550         6.64076
     2011.67145         5.84172         6.44620
     2011.67419         4.42395         6.44271
     2011.67693         6.57517         6.43571
     2011.67967         2.35439         6.41125
     2011.68240         3.45662         6.53241
     2011.68514         8.35584         6.58950
     2011.68788         2.98106         6.54290
     2011.69062         6.86328         6.52892
     2011.69336         6.90551         6.52892
     2011.69609         2.25773         6.53241
     2011.69883         4.28695         6.53125
     2011.70157         4.65018         6.53707
     2011.70431         6.69740         6.48581
     2011.70705         7.57362         6.70717
     2011.70978         1.65585         6.70601
     2011.71252        18.44407         6.75610
     2011.71526         2.16729         6.56503
     2011.71800         7.80752         6.61397
     2011.72073         7.54774         6.56737
     2011.72347         0.74396         6.92270
     2011.72621         7.36219         6.60115
     2011.72895         7.94641         6.49746
     2011.73157        10.75766         7.37591
     2011.73442        10.33686         6.55571
     2011.73716         7.67608         6.64193
     2011.73939         0.68545         7.93746
     2011.75359         7.67142         6.67804
     2011.75633        10.22664         6.58834
     2011.75906        16.23386         6.48115
     2011.76180        11.66109         6.52076
     2011.76454        11.28731         6.58368
     2011.76728         0.96653         6.57203
     2011.77002         6.80776         6.66756
     2011.77275        16.93198         6.76775
     2011.77549        17.04820         6.68736
     2011.77823         1.77443         6.68969
     2011.78097         4.90465         6.52426
     2011.78371         4.56287         6.51960
     2011.78644         5.81710         6.42989
     2011.78918         6.44432         6.39960
     2011.79192         0.24654         6.46717
     2011.79466         5.25077         6.49863
     2011.79739         5.36899         6.44620
     2011.80013         9.70321         6.50911
     2011.80287         5.39744         6.46717
     2011.80561         9.01066         6.56737
     2011.80835         0.87488         6.42406
     2011.81108         6.43410         6.43804
     2011.81382        -3.82067         6.64659
     2011.81656         1.38555         6.38562
     2011.81930         3.55777         6.37397
     2011.82203         7.05800         6.45902
     2011.82477        10.21122         6.47882
     2011.82751         5.34844         6.51727
     2011.83025         4.24867         6.51261
     2011.83299        -1.20111         6.34717
     2011.83572        -4.40789         6.42989
     2011.83846        -3.27166         6.41358
     2011.84120         4.94356         6.49979
     2011.84394         7.31178         6.34950
     2011.84668         4.19801         6.37397
     2011.84941        -3.70277         6.35649
     2011.85215        -5.48055         6.41241
     2011.85489        -2.86432         6.61863
     2011.85763         1.63290         6.57319
     2011.86036        12.08212         6.53707
     2011.86310        12.18935         6.59183
     2011.86584        12.99157         6.41591
     2011.86858        12.52379         6.41008
     2011.87132         6.68301         6.34018
     2011.87405         2.29524         6.34601
     2011.87679         5.79046         6.42523
     2011.87953         6.88868         6.47067
     2011.88227         3.35891         6.36581
     2011.88501         0.50513         6.34368
     2011.88774        -3.96465         6.56970
     2011.89048         7.97058         6.44620
     2011.89322        11.90580         6.53940
     2011.89596         1.30002         6.44970
     2011.89869         2.90825         6.40892
     2011.90143        -1.30053         6.49513
     2011.90417         1.98669         6.62795
     2011.90691        -0.22708         6.45436
     2011.90965         1.31614         6.37979
     2011.91238         0.42536         6.55222
     2011.91512        -2.00441         6.39610
     2011.91786         2.11381         6.54639
     2011.92060        -8.89497         6.40542
     2011.92334        -8.05374         6.46601
     2011.92607        -5.67452         6.52193
     2011.92881        -1.75430         6.48115
     2011.93155         1.23392         6.44970
     2011.93429        -2.90185         6.39727
     2011.93702        -0.70963         6.49164
     2011.93976        -2.47541         6.50562
     2011.94250         4.45082         6.46018
     2011.94524         0.67904         6.45086
     2011.94798         4.49626         6.55105
     2011.95071         5.10249         6.46368
     2011.95345         5.46071         6.47300
     2011.95619        -0.54607         6.52775
     2011.95893        -2.87784         6.33669
     2011.96167         6.76638         6.56037
     2011.96440        -1.59440         6.43105
     2011.96714        -4.64017         6.46251
     2011.96988         2.60805         6.26212
     2011.97262        -2.89373         6.24348
     2011.97535        -3.86350         6.34368
     2011.97809       -10.01128         6.38096
     2011.98083        -2.22406         6.46251
     2011.98357         0.98117         6.25397
     2011.98631         4.15039         6.42057
     2012.33128        -9.37049         6.44038
     2012.33401        -7.67427         6.36581
     2012.33675        -1.96004         6.28193
     2012.33949       -10.85382         6.25047
     2012.34223       -10.03960         6.29125
     2012.34496       -15.28137         6.29125
     2012.34770       -11.05915         6.33902
     2012.35044        -6.56893         6.24814
     2012.35318       -10.78171         6.32970
     2012.35592        -9.74848         6.30290
     2012.35865       -14.49326         6.24698
     2012.36139        -7.83704         6.24698
     2012.36413        -8.95781         6.23183
     2012.36687       -11.60459         6.19688
     2012.36961        -9.10337         6.28542
     2012.37234        -5.79314         6.36931
     2012.37508        -8.50992         6.31688
     2012.37793        -9.34273         6.59766
     2012.38329        -5.70625         6.39960
     2012.38603        -1.37003         6.48698
     2012.38877        -5.32380         6.50911
     2012.39151        -0.78858         6.51028
     2012.39425        -4.09136         6.37397
     2012.39698        -3.76113         6.43688
     2012.39972        -7.17191         6.25280
     2012.40246        -5.57969         6.25280
     2012.40520        -9.08646         6.24814
     2012.40794        -8.98324         6.20970
     2012.41067        -6.84202         6.23649
     2012.41341        -7.19180         6.30639
     2012.41615        -1.13857         6.36348
     2012.41889        -0.38035         6.47882
     2012.42162        -5.56113         6.27028
     2012.42436        -2.03590         6.35999
     2012.42710        -1.31868         6.32853
     2012.42984         0.50954         6.18989
     2012.43258        -3.86423         6.32970
     2012.43531        -5.05301         6.29241
     2012.43805        -4.63279         6.32387
     2012.44079       -15.50756         6.24348
     2012.44347       -18.11632         6.42639
     2012.44604        -3.64205         7.00426
     2012.44860        -2.95678         7.95260
     2012.45111        -9.39349         8.64930
     2012.45448        -8.77545         6.29940
     2012.45687        -8.40013         7.33863
     2012.45995        -1.70100         6.37630
     2012.46269         0.48922         6.31105
     2012.46543        -4.98855         6.35416
     2012.46817        -5.09033         6.42523
     2012.47091        -3.94311         6.33203
     2012.47364         0.73511         6.33785
     2012.47638        -3.82866         6.30872
     2012.47912        -2.86544         6.27843
     2012.48186        -3.26222         6.23882
     2012.48459        -3.20999         6.27494
     2012.48733        -2.14977         6.31805
     2012.49007        -7.53955         6.30756
     2012.49281        -7.81232         6.25863
     2012.49549        -0.90508         6.42756
     2012.49811        -4.16083         6.70018
     2012.50068        -5.49556         7.42251
     2012.50325        -2.07928         8.27416
     2012.50576       -10.42100         9.32969
     2012.50827       -12.65771        12.99259
     2012.51083       -11.74244        18.30287
     2012.51454       -17.37349         6.66523
     2012.51705        -2.55320         7.66717
     2012.52019         0.81791         6.38911
     2012.52292        -5.66987         6.29474
     2012.52566        -4.50964         6.29940
     2012.52840        -3.29342         6.32154
     2012.53114        -5.49120         6.42523
     2012.53388        -3.01898         6.46368
     2012.53650        -2.72672         6.62445
     2012.53901        -3.81543         7.32814
     2012.54158        -1.10016         8.04348
     2012.54414         2.05811         9.11765
     2012.54671        -3.71162        11.54211
     2012.54928        -2.40234        13.79531
     2012.55310         3.24557         6.34135
     2012.55561         0.38686         6.58135
     2012.55812        -2.98785         7.24309
     2012.56068        -0.64558         8.21241
     2012.56325        -1.00831         9.12348
     2012.56582         3.89696        10.79765
     2012.56838        -3.21377        14.59803
     2012.57209         2.52818         6.35533
     2012.57466        -0.35455         6.76659
     2012.57717         5.19274         7.81513
     2012.57979         1.75500         8.55144
     2012.58236        -3.15973         9.41590
     2012.58493         2.82154        11.60502
     2012.58755        -8.43220        13.92463
     2012.64887         8.14140         6.24232
     2012.65160        12.24362         6.30173
     2012.65434         1.41885         6.47416
     2012.65708        12.07407         6.54406
     2012.65982         7.25629         6.43688
     2012.66256         7.19951         6.31222
     2012.66529         9.37574         6.28775
     2012.66803         5.67196         6.23649
     2012.67077        -0.71382         6.36581
     2012.67351         5.38441         6.33436
     2012.67624         5.51363         6.27377
     2012.67898         5.67585         6.34018
     2012.68172         8.74308         6.24581
     2012.68446         6.22530         6.29940
     2012.68720         9.14652         6.28892
     2012.68993        10.14975         6.35649
     2012.69267        15.26897         6.44387
     2012.69541         2.48519         6.42523
     2012.69815         4.65342         6.42406
     2012.70089         3.03064         6.42173
     2012.70362         3.08286         6.46484
     2012.70636         0.71409         6.29358
     2012.70910         2.78931         6.44737
     2012.71184         2.94653         6.26562
     2012.71457         6.39476         6.25630
     2012.71731         8.40498         6.24698
     2012.72005         6.07720         6.22834
     2012.72279         6.78042         6.18989
     2012.72553        12.67965         6.33785
     2012.72826         8.46687         6.29940
     2012.73100         9.98509         6.39261
     2012.73374         5.88432         6.49863
     2012.73648         6.20154         6.27727
     2012.73921         5.31976         6.42523
     2012.74195         5.68599         6.58834
     2012.74469         8.47621         6.28309
     2012.74743         3.72043         6.33086
     2012.75017         0.78366         6.45785
     2012.75290        10.79488         6.48698
     2012.75564         1.01410         6.33086
     2012.75838         3.73333         6.22368
     2012.76112         5.70555         6.23882
     2012.76386         4.16277         6.25397
     2012.76659         2.69000         6.36698
     2012.76933         4.56122         6.45319
     2012.77207         9.96444         6.33552
     2012.77481         7.40967         6.34484
     2012.77754         5.37489         6.29707
     2012.78028         2.67711         6.42173
     2012.78302         7.39933         6.66290
     2012.78576         5.41556         6.49047
     2012.78850        14.34578         6.59300
     2012.79123        14.35400         6.66173
     2012.79397         4.65423         6.39727
     2012.79671         1.56045         6.38445
     2012.79945        -1.89033         6.84581
     2012.80219        10.90490         6.50678
     2012.80492         6.82212         6.37746
     2012.80766         7.92234         6.37746
     2012.81040         5.04857         6.43105
     2012.81314         1.94579         6.48814
     2012.81587        -1.03899         6.42290
     2012.81861        -0.43976         6.55921
     2012.82135         7.15346         6.49630
     2012.82409         3.69768         6.55222
     2012.82683         9.90491         6.60581
     2012.82956         3.26913         6.61746
     2012.83230        22.65135         6.53125
     2012.83504        13.99758         6.48465
     2012.83778        -0.52920         6.38212
     2012.84052         9.75602         6.53358
     2012.84325         4.84624         6.52892
     2012.84599         0.90547         6.69202
     2012.84873        -5.43531         6.48465
     2012.85147         2.29891         6.76309
     2012.85420         2.18814         6.37513
     2012.85694        -2.36664         6.40426
     2012.85968        -0.75642         6.39727
     2012.86242        -1.69119         6.40309
     2012.86516        13.33803         6.46484
     2012.86789         4.19025         6.68154
     2012.87063        -1.98752         6.38795
     2012.87337        -1.99130         6.40892
     2012.87611         6.03092         6.42523
     2012.87885        21.78615         6.44504
     2012.88158        16.26637         6.34251
     2012.88432        14.04259         6.50678
     2012.88706         6.66182         6.70368
     2012.88980        12.25504         6.60931
     2012.89253        -0.63274         6.34135
     2012.89516         5.32452         6.76542
     2012.89825         6.25764         7.03688
     2012.90075        -1.64907         6.29008
     2012.90349        -3.65085         6.26562
     2012.90622        -0.59162         6.42173
     2012.90896         4.85960         6.42989
     2012.91170         9.95582         6.45902
     2012.91444        12.33605         6.43105
     2012.91718        16.25227         6.40193
     2012.91991        10.32249         6.41940
     2012.92265         7.92472         6.42290
     2012.92539         6.50994         6.40426
     2012.92813         0.02616         6.44387
     2012.93086        -7.50861         6.47300
     2012.93360        -7.02139         6.51377
     2012.93634         0.60883         6.31338
     2012.95120         1.43162        15.28541
     2012.95277        15.22517         6.35067
     2012.95551        13.12540         6.23649
     2012.95824        11.16462         6.23882
     2012.96098        17.04784         6.47416
     2012.96372         3.49706         6.41241
     2012.96646        11.61129         6.86329
     2012.96919        10.78851         6.43222
     2012.97193        -3.64027         6.35416
     2012.97467         3.11496         6.27843
     2012.97689         1.06333         8.29513
     2012.98015         3.17940         6.36698
     2012.98288        -0.21637         6.29591
     2012.98562         3.82685         6.24115
     2012.98836         5.30807         6.26678
     2012.99110        -1.54570         6.25979
     2012.99384         4.24552         6.31805
     2012.99657         0.57374         6.25280
     2012.99931        -0.08403         6.25513
     2013.00205        -3.60081         6.25047
     2013.00479        -0.60759         6.28542
     2013.00752        -6.28336         6.31105
     2013.01026         4.66386         6.34251
     2013.01192        -7.02761        18.71530
     2013.01574        -0.54969         6.29707
     2013.01848         2.41353         6.33785
     2013.02121         3.89675         6.31688
     2013.02395         6.08597         6.37397
     2013.02669         4.62820         6.45902
     2013.02943        -5.81358         6.34834
     2013.03216        -5.97536         6.39261
     2013.03490        -9.80513         6.35649
     2013.03764       -11.14191         6.30406
     2013.04038       -11.37169         6.26329
     2013.04312       -10.76246         6.37513
     2013.04585        -5.21524         6.50562
     2013.04859       -10.51502         6.53474
     2013.05093       -14.75768         7.61940
     2013.05407        -6.20457         6.32271
     2013.05681        -2.06335         6.26911
     2013.05954        -5.49812         6.33319
     2013.06228        -5.43090         6.51028
     2013.06502        -2.49568         6.47416
     2013.06776         4.22455         6.40426
     2013.07049         7.72377         6.36698
     2013.07323         2.58199         6.30406
     2013.07597         3.79722         6.30756
     2013.07871         4.02344         6.34135
     2013.08145         9.73766         6.34368
     2013.08418        -0.83012         6.41241
     2013.08692        -5.03289         6.31688
     2013.08966       -12.36167         6.30173
     2013.09240        -6.12245         6.29125
     2013.09514        -0.83422         6.31338
     2013.09787         1.79600         6.63843
     2013.10061        -2.09678         6.66523
     2013.10335        -3.48355         6.42756
     2013.10609        -5.85633         6.28426
     2013.10882        -4.83011         6.33552
     2013.11156        -7.13788         6.48581
     2013.11430        -6.89566         6.30290
     2013.11704       -11.39644         6.34368
     2013.11978        -9.90321         6.47533
     2013.12251        -8.03499         6.27377
     2013.12525       -12.26177         6.31105
     2013.12799        -3.35354         6.39377
     2013.13073        -2.87932         6.37280
     2013.13347        -2.96510         6.35999
     2013.13620        -3.47587         6.28775
     2013.13894        -3.95965         6.30756
     2013.14168        -1.97843         6.37397
     2013.14442         2.38879         6.47766
     2013.14715        -1.58598         6.52775
     2013.14989       -13.76576         6.27727
     2013.15263        -6.90654         6.31921
     2013.15537       -15.80131         6.28193
     2013.15811       -10.87609         6.37863
     2013.16084        -8.02487         6.29591
     2013.16358       -14.52664         6.37047
     2013.16632       -13.68942         6.40892
     2013.16906         1.07480         6.33203
     2013.17180        -5.41697         6.30523
     2013.17453        -7.14275         6.28426
     2013.17727         0.81847         6.41125
     2013.18001        -3.23030         6.44737
     2013.18275        -5.65508         6.35067
     2013.18548        -7.38986         6.24465
     2013.18822       -13.08363         6.26562
     2013.19096       -10.71941         6.29940
     2013.19370        -4.01919         6.29707
     2013.19644        -3.06196         6.38678
     2013.19917       -14.63574         6.35416
     2013.20191        -6.40252         6.34601
     2013.20465        -7.69930         6.38212
     2013.20739        -1.64907         6.33785
     2013.21013        -5.19385         6.30173
     2013.21286        -6.87563         6.20970
     2013.21560         9.31760         6.46601
     2013.21834        -5.17518         6.32271
     2013.22108       -11.84896         6.26096
     2013.22381       -10.65473         6.21086
     2013.22655        -9.91951         6.24465
     2013.22929        -9.07529         6.18873
     2013.23203        -9.63006         6.24581
     2013.23477        -8.03884         6.24232
     2013.23750       -11.89962         6.36465
     2013.24024        -8.74539         6.39028
     2013.24298       -10.65217         6.37397
     2013.24572        -1.27795         6.39727
     2013.24846        -4.65572         6.41358
     2013.25119       -10.79250         6.41824
     2013.25393        -9.84628         6.37746
     2013.25667        -6.06205         6.58368
     2013.25941         3.40517         6.43222
     2013.26214        -0.15061         6.54989
     2013.26488         0.24761         6.39960
     2013.26762        -7.07416         6.37863
     2013.27036       -13.21194         6.32737
     2013.27310        -7.39472         6.56503
     2013.27583       -10.01749         6.47300
     2013.27857        -9.12627         6.50445
     2013.28131         0.75295         6.44853
     2013.28405        -5.09782         6.34368
     2013.28679        -7.66360         6.32038
     2013.28952       -10.54938         6.39377
     2013.29226       -12.30015         6.44737
     2013.29500       -14.02893         6.42639
     2013.29774        -6.20071         6.39494
     2013.30047       -13.06348         6.32620
     2013.30321       -13.51926         6.36698
     2013.30595       -17.98004         6.35882
     2013.30869       -14.49481         6.41940
     2013.31143       -15.26159         6.41358
     2013.31416        -8.43437         6.41940
     2013.31690        -8.76414         6.31105
     2013.31964       -11.24092         6.46368
     2013.32238        -8.62970         6.35416
     2013.32512        -3.85048         6.45203
     2013.32785        -6.63225         6.45552
     2013.33059        -9.80803         6.39727
     2013.33333       -12.37481         6.35999
     2013.33607       -13.92258         6.35999
     2013.33880        -9.47336         6.37280
     2013.34154        -8.06514         6.42173
     2013.34428        -5.99191         6.40775
     2013.34702        -7.26369         6.34368
     2013.34976       -10.46447         6.32154
     2013.35249       -12.80624         6.35416
     2013.35523        -9.62302         6.49280
     2013.35797        -3.89280         6.49047
     2013.36071        -5.41957         6.53940
     2013.36344       -11.46535         6.61164
     2013.36618        -6.56513         6.35766
     2013.36892        -3.72890         6.37746
     2013.37166        -7.01068         6.35649
     2013.37440        -2.26846         6.42406
     2013.37713        -7.19923         6.39843
     2013.37987        -9.85701         6.34484
     2013.38261       -11.26479         6.35649
     2013.38535        -1.92157         6.45436
     2013.38809        -8.22234         6.35649
     2013.39082        -5.65512         6.39028
     2013.39356        -8.86690         6.35067
     2013.39630        -8.23967         6.34251
     2013.39904        -2.12945         6.40193
     2013.40177        -3.92223         6.38212
     2013.40451        -7.79700         6.36931
     2013.40725        -4.69078         6.39377
     2013.40999        -7.05856         6.34018
     2013.41273        -3.81033         6.37397
     2013.41546        -4.65311         6.56270
     2013.41820        -7.97989         6.41824
     2013.42094        -4.27266         6.37047
     2013.42368       -10.31244         6.47766
     2013.42642       -10.20122         6.40659
     2013.42915        -0.94999         6.37630
     2013.43189        -6.95477         6.46717
     2013.43463        -0.36055         6.50678
     2013.43737        -6.37432         6.40426
     2013.44010        -3.02110         6.46368
     2013.44284        -4.10588         6.33436
     2013.44558        -2.64365         6.56853
     2013.44815       -10.99938         6.85513
     2013.45106        -6.10221         6.34950
     2013.45379        -4.94099         6.49863
     2013.45653        -8.45876         6.44038
     2013.45927        -5.74654         6.43921
     2013.46201        -5.19032         6.43222
     2013.46475         0.24391         6.42872
     2013.46748        -6.34987         6.34717
     2013.47022        -5.53365         6.36581
     2013.47296        -6.05642         6.22368
     2013.47570        -4.51020         6.28309
     2013.47843         1.79502         6.48814
     2013.48117        -4.38475         6.50795
     2013.48391        -2.08253         6.41591
     2013.48665        -6.64531         6.34484
     2013.48939        -3.56008         6.38329
     2013.49212        -6.28986         6.43921
     2013.49486        -8.77564         6.35766
     2013.49760        -3.05541         6.39960
     2013.50034        -6.50319         6.40193
     2013.50308        -4.21797         6.43222
     2013.50581        -4.44074         6.38096
     2013.50855        -0.49152         6.28892
     2013.51129        -2.31430         6.39727
     2013.51403        -0.66008         6.38096
     2013.51676        -6.15885         6.44271
     2013.51950        -5.13263         6.33203
     2013.52224         1.03759         6.45552
     2013.52498         4.19882         6.52193
     2013.52772        -5.27496         6.38445
     2013.53045        -4.69374         6.38096
     2013.53319        -7.08851         6.36348
     2013.53593        -0.45329         6.44154
     2013.53867         0.64993         6.39144
     2013.54141        -1.72584         6.49979
     2013.54414        -1.78162         6.33902
     2013.54688        -3.38440         6.29358
     2013.54962        -4.17817         6.30756
     2013.55236         3.35305         6.35067
     2013.55509        -1.29673         6.36698
     2013.55783         1.90250         6.33902
     2013.56057        -0.32628         6.42872
     2013.56331         2.83494         6.50096
     2013.56605        -2.30883         6.33902
     2013.56878         2.39739         6.38212
     2013.57152         0.36761         6.29358
     2013.57426        -1.54717         6.35067
     2013.57700         3.77006         6.34601
     2013.57974         0.19228         6.36348
     2013.58247         2.56950         6.30523
     2013.58521         5.70173         6.34601
     2013.58795         0.18095         6.34950
     2013.59069        -2.64783         6.33902
     2013.59342         4.28340         6.36698
     2013.59616         4.20962         6.34834
     2013.59890         3.91084         6.45436
     2013.60164         2.95907         6.38445
     2013.60438         4.20529         6.42639
     2013.60711         4.96351         6.42989
     2013.60985         6.66474         6.45086
     2013.61259         1.85696         6.38329
     2013.61533         7.77418         6.53940
     2013.61807         3.90841         6.56037
     2013.62080        -2.71037         6.68736
     2013.62354         8.13285         6.35067
     2013.62628        10.11808         6.45436
     2013.62902        -0.39870         6.39028
     2013.63175         4.53252         6.34834
     2013.63449         2.62174         6.48465
     2013.63723         7.32997         6.36115
     2013.63997        11.14919         6.39960
     2013.64271         5.05241         6.49513
     2013.64544         8.26264         6.42290
     2013.64818         3.81986         6.41824
     2013.65092         7.70708         6.52775
     2013.65366         1.62831         6.46135
     2013.65639         9.49753         6.43105
     2013.65913         7.60775         6.68154
     2013.66461        -0.80080         6.39377
     2013.66735         4.40942         6.53824
     2013.67008         1.34065         6.48348
     2013.67282         4.95887         6.72814
     2013.67556         8.84309         6.61397
     2013.67830        10.98832         6.44620
     2013.68104        14.55854         6.52309
     2013.68377         3.96976         6.37746
     2013.68651         0.54699         6.34368
     2013.68925         3.60121         6.43688
     2013.69199         0.21743         6.36465
     2013.69472         6.88065         6.38445
     2013.69746         1.36488         6.37630
     2013.70020         7.19810         6.36348
     2013.70294         9.28732         6.32271
     2013.70568        10.20855         6.43105
     2013.70841        10.85177         6.57086
     2013.71115         4.67099         6.36465
     2013.71389         0.82422         6.39727
     2013.71663         7.85444         6.37863
     2013.71937         8.21866         6.38678
     2013.72210        12.89789         6.40426
     2013.72484        11.82211         6.54173
     2013.72758        10.80333         6.42057
     2013.73032         1.23756         6.35416
     2013.73305        10.64578         6.29125
     2013.73579         7.52200         6.35533
     2013.73853         2.94323         6.38911
     2013.74127        11.86145         6.46135
     2013.74401        25.22467         6.66523
     2013.74674         9.73790         6.59416
     2013.74948         1.47412         6.52775
     2013.75222        -2.43766         6.41358
     2013.75496        -6.51044         6.41940
     2013.75770        -7.58221         6.36465
     2013.76043        -9.53099         6.33436
     2013.76317         0.23023         6.41125
     2013.76591        14.32246         6.73280
     2013.76865        -1.18832         6.39494
     2013.77138        -4.63510         6.47183
     2013.77412         2.71713         6.37397
     2013.77686        -0.10365         6.35067
     2013.77960        -4.72443         6.35067
