# ================= DQRFIT RESULTS ================
# INPUT FILE: series/KTMT.rad
# OUTPUT: LDETRENDED
# FILTER FUNCTION: f(t)
# f(t)=+line(t)+annual(t)
# line(t)=+P 1+P 2*t
# annual(t)=+P 3*sin(2*pi*t+P 4)
# heav(t)=(t<0?0:1)
# TOTAL OBSERVATIONS MTOT= 2189
# INITIAL TIME INTERVAL= 2022.7488 - 2015.7289 =  7.0198
# TOTAL OBSERVATIONS AFTER PREFILTER M= 2160
# TIME-SPAN= 2022.7488 - 2015.7289 =  7.0198
# OBSERVATIONS: USED M=  2160 REJECTED MTOT-M=    29 %USED=   98.6752
# N=  4 PARAMETERS
# MAXSIG= 175.00000
# MAXRES=  28.97544
# SCALE FACTOR FOR LENGTHS: SCL=  10.00000
# SCALE FACTOR FOR SIGMAS: SCLSIG=   1.00000
# CHI^2=   3256.674 DOF=  2156 CHI^2/DOF=   1.51052
# RMS=      7.803 SDEV=      7.804 MEAN=    0.08803
#  P #       PARAMETER +-    SIGMA %error PARAMETER NAME
# P 1 =     -6608.42651 +-  163.442   2.47 YZERO                              
# P 2 =         3.28257 +-    0.081   2.47 SLOPE                              
# P 3 =         8.73208 +-    0.223   2.55 ANNUAL AMPLITUDE                   
# P 4 =        -3.02455 +-    0.036   1.18 ANNUAL PHASE                       
#       T            LDETRENDED       SIG_OBS
     2015.72895         6.15736         8.13250
     2015.73169         6.08737         7.88177
     2015.73442         6.17638         7.76379
     2015.73716        13.66540         7.60401
     2015.73990         7.45441         7.71954
     2015.74264        -0.80358         7.81787
     2015.74538         0.86043         8.23205
     2015.74811        -2.90855         7.97026
     2015.75085        -3.42154         7.70848
     2015.75359        -9.23853         7.58312
     2015.75633        -2.93851         7.76502
     2015.75906        -4.44650         7.49463
     2015.76180        -7.02549         7.53642
     2015.76454         8.30152         7.86211
     2015.76728        -2.20246         7.61999
     2015.77002         2.77455         7.75887
     2015.77275        18.14956         7.86703
     2015.77549         4.64458         7.92848
     2015.77823         5.44559         7.83753
     2015.78097         3.53060         7.57083
     2015.78371         3.79661         7.56468
     2015.78644         7.99963         7.59664
     2015.78918         2.82364         7.71954
     2015.79192         9.99165         7.66915
     2015.79466         1.30267         7.62982
     2015.79739        -3.39732         7.70725
     2015.80013        11.19669         7.55239
     2015.80287         9.46270         7.63843
     2015.80561         4.15372         7.58189
     2015.80835        -0.51427         7.67776
     2015.81108        -5.92826         7.51184
     2015.81382        -6.27025         7.59418
     2015.81656         2.61577         7.41351
     2015.81930        -3.40622         7.52658
     2015.82203         1.64279         7.47005
     2015.82477        -0.19819         7.39631
     2015.82751         2.83482         7.71094
     2015.83025         6.65683         7.57820
     2015.83299        -5.44516         7.43318
     2015.83572        -7.02714         7.42089
     2015.83846        -0.01213         7.73306
     2015.84120        -6.57712         7.41843
     2015.84394        -3.20910         7.47005
     2015.84668        -0.34209         7.59910
     2015.84941         2.25192         7.60278
     2015.85215        -2.43307         7.45530
     2015.85489         1.50295         7.51429
     2015.85763        -3.23704         7.84490
     2015.86036         3.34797         7.52044
     2015.86310         9.67399         7.65440
     2015.86584        10.41800         7.56223
     2015.86858        -3.60299         7.57329
     2015.87132        -5.53698         7.22056
     2015.87405       -10.79396         7.07553
     2015.87679        -0.92095         7.08782
     2015.87953         0.24606         7.13084
     2015.88227         5.08908         7.15296
     2015.88501       -13.96391         7.09028
     2015.88774        -4.37490         7.23039
     2015.89048        -7.94389         7.25005
     2015.89322         0.37613         7.10749
     2015.89596        -5.66386         7.02514
     2015.89869        -6.35685         7.02268
     2015.90143        -7.58283         6.94894
     2015.90417        -8.16082         6.90470
     2015.90691        -4.01981         6.88011
     2015.90965        -3.26480         6.84570
     2015.91238        -1.41178         6.93911
     2015.91512         5.97323         7.21318
     2015.91786        -4.59676         7.19966
     2015.92060        -3.61975         6.97721
     2015.92334       -13.24173         7.23162
     2015.92607       -13.02372         6.95631
     2015.92881        -6.74471         6.91330
     2015.93155        -4.29669         7.06570
     2015.93429         1.06432         7.09642
     2015.93702         3.45333         7.13084
     2015.93976         2.77034         7.04358
     2015.94250        -6.85364         7.22547
     2015.94524       -28.75963         7.23408
     2015.94798         4.00438         7.04726
     2015.95071         5.17640         6.78302
     2015.95345        -1.65559         6.93173
     2015.95619        -4.12758         6.75721
     2015.95893        -4.43357         7.00548
     2015.96167        -5.55255         6.94280
     2015.96440        -8.56154         6.80637
     2015.96714       -16.90753         7.48726
     2015.96988        -8.81651         7.09519
     2015.97262        -1.93850         6.90838
     2015.97535         6.83751         6.84570
     2015.97809        -0.09748         6.72771
     2015.98083        -1.57546         6.67610
     2015.98357       -22.70745         6.66626
     2016.00273       -30.02236         6.76459
     2016.00547       -22.23835         6.87397
     2016.00821       -19.11133         6.73878
     2016.01095       -15.81432         6.81866
     2016.01368       -26.04831         6.73755
     2016.01642       -19.50730         6.94648
     2016.01916        -6.65528         7.04480
     2016.02190        -1.51927         7.10749
     2016.02464        -9.07626         6.74246
     2016.02737        -9.97624         6.71911
     2016.03011       -25.11323         7.00302
     2016.03285       -28.49522         6.90961
     2016.03559        -7.73721         6.94525
     2016.03833        -8.99919         7.11363
     2016.04106        -5.71918         6.97967
     2016.04380       -16.55917         6.86414
     2016.04654       -19.93316         7.01654
     2016.04928        -7.26314         6.85553
     2016.05201        -8.43713         7.18860
     2016.05475       -12.82612         6.91084
     2016.05749        -0.79610         6.84570
     2016.06023       -10.48209         6.89732
     2016.06297        -0.06708         6.92190
     2016.06570        -6.54907         7.08536
     2016.06844       -27.14705         7.34838
     2016.07118        -5.13404         7.14559
     2016.07392         0.46897         7.15910
     2016.07666        -1.17701         7.23162
     2016.07939         2.88000         7.05341
     2016.08213        -6.39699         7.21195
     2016.08487        -6.73398         7.12223
     2016.08761        -3.54696         7.07922
     2016.09034        -7.26795         7.08659
     2016.09308       -12.96294         7.04972
     2016.09582        11.44008         7.30536
     2016.09856       -14.36291         7.07922
     2016.10130       -13.91790         7.21318
     2016.10403       -29.56889         7.23162
     2016.10677       -14.31987         7.16402
     2016.10951       -13.31786         7.07430
     2016.11225        -6.91685         6.95140
     2016.11498        -7.78383         7.04480
     2016.11772       -13.12882         7.03006
     2016.12046       -12.93681         7.14190
     2016.12320        -4.61180         7.03251
     2016.12594       -15.59078         7.13944
     2016.12867        -8.17177         7.06078
     2016.13141        -5.70476         7.10871
     2016.13415        -4.45274         7.03374
     2016.13689        -3.10273         6.99073
     2016.13963        -9.42472         6.95263
     2016.14236       -10.54471         7.01408
     2016.14510        -8.30869         6.97352
     2016.14784        -9.03768         7.07184
     2016.15058        -9.08667         6.98581
     2016.15331       -10.56065         7.10994
     2016.15605        -1.54564         6.98335
     2016.15879        -5.37263         7.13329
     2016.16153       -13.78562         7.07430
     2016.16427        -5.75660         7.02268
     2016.16700        -3.35959         7.01777
     2016.16974        -4.67058         7.04235
     2016.17248        -0.26557         7.19598
     2016.17522       -11.81455         7.06939
     2016.17796        -3.57054         7.22547
     2016.18069        -2.13353         7.16771
     2016.18343        -7.43151         7.39016
     2016.18617       -14.65850         7.06693
     2016.18891        -3.41149         7.02514
     2016.19164        -4.28648         7.03129
     2016.19438         2.59654         6.97106
     2016.19712        -2.17345         6.90470
     2016.19986        -3.32644         7.20704
     2016.20260       -13.71742         7.21810
     2016.20533       -16.17141         7.41720
     2016.20807       -11.97040         7.21441
     2016.21081       -12.46239         7.06816
     2016.21355        -6.30637         6.95509
     2016.21629       -11.17336         7.00548
     2016.21902        -3.07435         6.92067
     2016.22176        -3.62233         6.99196
     2016.22450        -5.77232         6.91821
     2016.22724        -2.64931         6.90838
     2016.22997        -4.05930         6.95877
     2016.23271       -10.41628         7.04972
     2016.23545        -5.06527         6.98704
     2016.23819       -12.75626         6.90224
     2016.24093        -5.73624         7.06939
     2016.24366        -9.39223         6.91576
     2016.24640        -3.37222         6.95263
     2016.24914       -11.37721         6.90592
     2016.25188        -6.59219         6.98090
     2016.25462        -0.30718         7.00916
     2016.25735        -3.51817         7.02022
     2016.26009        -4.16715         6.98090
     2016.26283        -9.41814         7.04235
     2016.26557       -11.31513         7.16279
     2016.26830        -3.76712         7.13329
     2016.27104       -13.46110         6.94157
     2016.27378        -7.73609         6.94034
     2016.27652        -7.07008         7.06816
     2016.27926        -4.05107         7.06939
     2016.28199        -6.22905         7.22424
     2016.28473       -12.03604         7.06693
     2016.28747       -10.62003         7.01777
     2016.29021        -7.36701         7.17139
     2016.29295        -7.49700         7.14927
     2016.29568        -6.05799         7.14559
     2016.29842       -11.39598         7.27095
     2016.30116       -10.76396         7.31150
     2016.30390       -11.40995         7.12961
     2016.30663        -4.69094         7.15788
     2016.30937        -7.40092         7.02883
     2016.31211        -8.31591         7.04849
     2016.31485       -10.20990         7.20212
     2016.31759        -8.29889         7.13452
     2016.32032        -7.52387         7.20335
     2016.32306       -12.11386         7.07307
     2016.32580       -11.57585         7.16156
     2016.32854       -14.72383         7.15173
     2016.33128       -11.70582         7.25005
     2016.33401        -5.73381         7.36312
     2016.33675        -1.97280         7.22179
     2016.33949        -3.38378         7.18000
     2016.34223       -13.36477         7.23899
     2016.34496        -8.72376         7.44178
     2016.34770         7.57926         7.41228
     2016.35044         2.77727         7.47005
     2016.35318       -11.93172         7.13575
     2016.35592       -16.59671         7.07676
     2016.35865       -18.82369         7.17139
     2016.36139        -2.83168         7.15910
     2016.36413        19.94833         7.16279
     2016.36687        -0.71665         7.13329
     2016.36961        11.87536         7.12223
     2016.37234         9.52437         7.27340
     2016.37508         7.61738         7.29553
     2016.37782        -9.61760         7.25989
     2016.38056        -4.57159         7.13575
     2016.38329         0.61142         7.26726
     2016.38603        -8.63656         7.22424
     2016.38877        16.48545         7.12592
     2016.39151        -0.96754         7.14927
     2016.39425        -0.47553         7.11363
     2016.39698        15.13049         7.30905
     2016.39972        10.38950         7.24514
     2016.40246         3.43651         7.22916
     2016.40520        -2.75348         7.22793
     2016.40794         0.24654         7.10749
     2016.41067        -3.48845         7.10871
     2016.41341        -3.61244         7.14436
     2016.41615         2.38858         7.26849
     2016.41889        -0.79341         7.27832
     2016.42162         8.01660         7.32011
     2016.42436        -2.85839         7.27832
     2016.42710        -4.70337         7.16525
     2016.42984       -11.55336         7.39262
     2016.43258         0.85065         7.14927
     2016.43531         8.88567         7.31150
     2016.43805         3.84768         7.25251
     2016.44079         3.66869         7.10380
     2016.44353         2.27770         7.11978
     2016.44626        -4.82228         7.20458
     2016.44900        -6.92827         7.29061
     2016.45174         7.98174         7.16156
     2016.45448        10.37576         7.16402
     2016.45722         2.59377         7.07922
     2016.45995         4.01678         7.13575
     2016.46269        -2.68421         7.16156
     2016.46543        -1.37719         7.10380
     2016.46817         1.76682         7.10011
     2016.47091         0.05583         7.44055
     2016.47364         7.29285         7.20704
     2016.47638        -0.84714         7.27586
     2016.47912         1.32687         7.36927
     2016.48186        -0.03612         7.05955
     2016.48459         4.47990         7.18983
     2016.48733         3.60091         7.26357
     2016.49007        -1.90008         7.23653
     2016.49281        -3.73806         7.33117
     2016.49555         5.57495         7.20089
     2016.49828         0.96796         7.09151
     2016.50102         4.64397         7.27218
     2016.50376         7.16299         7.42089
     2016.50650        -0.68200         7.41597
     2016.50924         6.37501         7.21441
     2016.51197         1.14903         7.02145
     2016.51471         7.86004         7.22056
     2016.51745         7.08305         7.49586
     2016.52019        -4.13494         7.26603
     2016.52292         4.52308         7.16402
     2016.52566         3.70209         7.16894
     2016.52840         3.51710         7.21933
     2016.53114        -1.86389         7.16525
     2016.53388         5.25813         7.26234
     2016.53661         8.25414         7.21564
     2016.53935         4.16815         7.20458
     2016.54209        12.19017         7.27218
     2016.54483         7.46518         7.25497
     2016.54757         9.40319         7.31273
     2016.55030        12.32120         7.37296
     2016.55304         8.94622         7.35698
     2016.55578         8.39923         7.34960
     2016.55852         5.54424         7.32011
     2016.56125        13.33026         7.39262
     2016.56399         4.36327         7.17139
     2016.56673        11.65228         7.40368
     2016.56947         4.02529         7.37541
     2016.57221         6.34831         7.18737
     2016.57494         6.15932         7.66547
     2016.57768         4.79233         7.21810
     2016.58042         6.39335         7.30290
     2016.58316         4.42736         7.08905
     2016.58590        -2.64263         7.21687
     2016.58863         2.47138         7.57452
     2016.59137        14.09940         7.42458
     2016.59411         8.05141         7.36558
     2016.59685        22.13142         7.45530
     2016.59958         6.82544         7.30290
     2016.60232         8.17745         7.32871
     2016.60506        14.62046         7.52658
     2016.60780         0.34347         7.24759
     2016.61054        14.83249         7.45530
     2016.61327         1.67050         7.16771
     2016.61601         1.62551         7.25374
     2016.61875         5.64253         7.25374
     2016.62149         1.31754         7.19352
     2016.62423         3.23955         7.43318
     2016.62696         5.33956         7.21564
     2016.62970         9.77458         7.33486
     2016.63244        -6.16541         7.48603
     2016.63518         7.22260         7.27586
     2016.63791        11.43161         7.39508
     2016.64065        15.67463         7.20949
     2016.64339         2.70364         7.23899
     2016.64613         1.44265         7.27586
     2016.64887         5.22967         7.16525
     2016.65160         6.77268         7.29430
     2016.65434         0.64269         7.46759
     2016.65708         2.42370         7.29553
     2016.65982        10.72072         7.22670
     2016.66256        12.43873         7.22547
     2016.66529        10.90174         7.30044
     2016.66803         9.63376         7.23776
     2016.67077        11.76877         7.34592
     2016.67351         8.60578         7.22056
     2016.67624         8.37379         7.21564
     2016.67898        13.15181         7.21687
     2016.68172        12.92382         7.19352
     2016.68446         9.98083         7.51307
     2016.68720        11.34085         7.51675
     2016.68993        18.33886         7.57452
     2016.69267        32.35887         7.46145
     2016.69541         4.08788         7.13821
     2016.69815        -0.94410         7.17877
     2016.70089         7.86791         7.13452
     2016.70362         2.59592         7.53765
     2016.70636         5.62394         7.53765
     2016.70910         9.59095         7.63105
     2016.71184        16.34596         7.46390
     2016.71457        13.75297         7.17262
     2016.71731        12.22099         7.21318
     2016.72005         9.73100         7.31273
     2016.72279         7.54901         7.14681
     2016.72553        12.05503         7.29921
     2016.72826        11.23204         7.41843
     2016.73100         6.92905         7.25005
     2016.73374        13.43406         7.17754
     2016.73648        15.25608         7.25251
     2016.73921        12.72109         7.15788
     2016.74195         7.72010         7.11855
     2016.74469         2.40712         7.41228
     2016.74743         3.22913         7.15665
     2016.75017        12.24614         7.16894
     2016.75290         5.94915         7.03866
     2016.75564        18.17917         7.13207
     2016.75838        19.19818         7.25128
     2016.76112         9.37519         7.23285
     2016.76386        14.52420         7.22179
     2016.76659        12.03922         7.18246
     2016.76933        14.10223         7.16402
     2016.77207         8.07224         7.20335
     2016.77481         6.65326         7.21810
     2016.77754         2.23527         7.12961
     2016.78028         4.97328         7.13329
     2016.78302        10.94029         7.33363
     2016.78576        12.33031         7.19843
     2016.78850        13.69432         7.16279
     2016.79123        10.11433         7.06570
     2016.79397        11.56335         7.04726
     2016.79671        13.33836         7.12223
     2016.79945        12.64137         7.25620
     2016.80219         7.09538         7.42458
     2016.80492         8.94140         7.13084
     2016.80766        15.04841         7.11732
     2016.81040         1.84942         7.12346
     2016.81314         4.68144         7.14190
     2016.81587         2.04945         7.13329
     2016.81861         5.23846         7.18246
     2016.82135         4.80647         7.20458
     2016.82409         6.39349         7.03989
     2016.82683        -1.21650         7.10503
     2016.82956        11.29251         7.20089
     2016.83230         7.27553         7.04849
     2016.83504         6.63854         7.07307
     2016.83778         1.06055         7.09519
     2016.84052         6.97556         7.18983
     2016.84325         7.64158         7.12838
     2016.84599         6.96559         7.06570
     2016.84873         9.36760         7.24268
     2016.85147         3.75862         7.19106
     2016.85420         3.63163         7.08168
     2016.85694         8.96564         7.26480
     2016.85968         4.41565         7.32379
     2016.86242         6.70767         7.21072
     2016.86516        10.86768         7.16402
     2016.86789        16.18269         7.29307
     2016.87063        10.55170         7.28447
     2016.87337        17.69072         7.17017
     2016.87611        12.83973         7.15173
     2016.87885         4.46974         7.05341
     2016.88158         2.78676         7.11486
     2016.88432         4.35177         7.06447
     2016.88706         8.57378         7.01408
     2016.88980         7.82579         7.16894
     2016.89253         3.67481         7.01285
     2016.89527         5.19882         7.14067
     2016.89801        -0.38117         7.17262
     2016.90075         1.00285         7.05955
     2016.90349         5.74386         7.17877
     2016.90622         5.13987         7.06693
     2016.90896         2.84288         7.24637
     2016.91170         2.95790         7.19352
     2016.91444         9.49991         7.21195
     2016.91718         3.04492         7.13575
     2016.91991         2.01294         7.34346
     2016.92265         1.68195         7.23285
     2016.92539        -1.45304         7.12838
     2016.92813        -3.90603         7.03006
     2016.93086        -0.61401         6.96492
     2016.93360        -5.07300         6.80146
     2016.93634        -4.22499         6.96369
     2016.93908         0.06303         7.07061
     2016.94182         4.87804         6.91576
     2016.94455         0.25605         6.92067
     2016.94729         0.73906         6.77073
     2016.95003         1.23308         6.78548
     2016.95277        -2.13591         6.87397
     2016.95551        -1.15890         6.95017
     2016.95824         3.92312         6.88995
     2016.96098         4.74813         6.86537
     2016.96372         0.60114         7.02760
     2016.96646        -8.22385         7.14313
     2016.96919         6.21417         7.07307
     2016.97193         4.25718         7.20458
     2016.97467         9.67119         7.03620
     2016.97741         4.39821         6.81866
     2016.98015         3.22522         6.88503
     2016.98288         0.20923         6.86045
     2016.98562       -23.84076         7.02268
     2016.98836         2.32726         7.35329
     2016.99110         4.25327         7.15910
     2016.99384         1.58428         7.02145
     2016.99657         0.79529         6.99810
     2016.99931        -0.05369         7.11732
     2017.00205        -1.40768         6.89486
     2017.00479        -4.17767         6.96983
     2017.00752        -2.87765         6.87766
     2017.01026        -5.33264         6.92805
     2017.01300         2.38037         6.84201
     2017.01574        -8.04062         7.02268
     2017.01848       -13.34560         7.03006
     2017.02121       -27.11559         7.01900
     2017.02395        -8.15358         6.81129
     2017.02669        -2.25256         6.99196
     2017.02943         0.11145         6.80269
     2017.03216        -2.39954         6.86168
     2017.03490       -11.15153         6.89118
     2017.03764        -1.98351         6.98704
     2017.04038        -3.59550         6.92559
     2017.04312         2.03451         7.17385
     2017.04585        -3.35147         7.46636
     2017.04859         2.33954         7.35575
     2017.05133        11.62855         6.98827
     2017.05407        10.95356         7.12469
     2017.05681         5.83258         6.98827
     2017.05954        -4.03841         6.91699
     2017.06228         3.60160         6.95140
     2017.06502        -3.62338         7.02268
     2017.06776         2.43263         7.10134
     2017.07049         0.56464         6.99196
     2017.07323       -10.60935         7.05464
     2017.07871         1.84268         7.07061
     2017.08145        -5.03931         7.08536
     2017.08418       -11.80229         7.02145
     2017.08692        -9.24228         6.92067
     2017.08966       -13.32527         6.86905
     2017.09240        -9.09626         6.92928
     2017.09514        -0.15424         6.88134
     2017.09787        -0.80723         6.86537
     2017.10061        -5.88322         6.97352
     2017.10335        -8.63820         6.80883
     2017.10609        -7.99119         6.81498
     2017.10882         3.38182         6.79900
     2017.11156         0.33883         6.88380
     2017.11430        -6.87815         7.01285
     2017.11704        -2.90614         7.05955
     2017.11978         0.11587         7.19598
     2017.12251        -3.39412         7.12592
     2017.12525         8.34190         7.09397
     2017.12799         5.97191         7.19720
     2017.13073         1.34492         7.17877
     2017.13347        -2.14406         6.97229
     2017.13620         0.38595         7.14436
     2017.13894        -0.81104         7.06939
     2017.14168        -7.41103         7.07184
     2017.14442        -8.51301         7.01285
     2017.14715        -8.63500         6.99073
     2017.14989        -5.98399         7.07922
     2017.15263         1.33103         6.97721
     2017.15537         1.83404         7.06447
     2017.15811        -0.22395         7.01408
     2017.16084        -4.23294         7.04112
     2017.16358       -11.26792         7.12715
     2017.16632       -15.33791         7.10994
     2017.16906        -8.89290         7.17508
     2017.17180        -4.55788         7.02883
     2017.17453        -4.68987         6.90347
     2017.17727        -4.96686         7.02145
     2017.18001        -2.91985         6.95877
     2017.18275       -13.95183         6.91453
     2017.18548        -7.25382         6.90838
     2017.18822       -12.27881         6.88257
     2017.19096       -11.53979         6.92436
     2017.19370       -22.09378         7.01285
     2017.19644       -40.01677         7.50446
     2017.19917        -5.26776         7.09888
     2017.20191        -0.39174         7.14559
     2017.20465       -16.28173         7.12838
     2017.20739        -6.49372         7.01531
     2017.21013        -0.33970         7.04235
     2017.21286        -6.80369         7.06939
     2017.21560        -8.92968         7.02145
     2017.21834        -5.86867         6.97475
     2017.22108         0.10635         7.08290
     2017.22381        -4.54264         7.13575
     2017.22655        -2.06163         7.14927
     2017.22929        -5.70162         7.00425
     2017.23203        -3.96460         7.01162
     2017.23477        -4.96759         7.42458
     2017.23750        -8.43458         7.07676
     2017.24024        -7.90656         6.98090
     2017.24298       -12.35955         7.04112
     2017.24572        -6.40054         7.14067
     2017.24846        -5.64453         7.10994
     2017.25119       -16.23251         7.00670
     2017.25393       -14.89050         7.06324
     2017.25667       -13.88949         7.12469
     2017.25941        -7.53947         7.05955
     2017.26214        -8.80646         7.02514
     2017.26488        -4.59945         7.10503
     2017.26762        -2.38844         7.04480
     2017.27036        -9.23442         7.07676
     2017.27310       -14.41141         6.97106
     2017.27583       -13.28040         7.10257
     2017.27857       -19.60338         7.08782
     2017.28131       -13.34637         7.00179
     2017.28405       -12.88936         7.08045
     2017.28679       -11.54835         6.99933
     2017.28952       -18.07433         7.09397
     2017.29226       -12.90232         7.09397
     2017.29500       -13.60931         7.03866
     2017.29774       -15.36429         7.03497
     2017.30047        -9.39928         7.14804
     2017.30321        -9.58827         7.15296
     2017.30595       -18.48826         7.29184
     2017.30869       -15.60524         6.99073
     2017.31143       -13.60423         7.02391
     2017.31416       -11.37622         7.00425
     2017.31690        -0.03620         7.04726
     2017.31964        -4.39919         7.20581
     2017.32238       -19.46718         7.07922
     2017.32512       -19.37017         7.00548
     2017.32785        -6.52115         7.12961
     2017.33059       -13.68914         7.09642
     2017.33333       -15.70313         7.05464
     2017.33607        -5.60411         7.12346
     2017.33880       -12.41910         7.09765
     2017.34154        -4.56009         7.26480
     2017.34428        -8.76208         6.94402
     2017.34702       -11.52106         7.03251
     2017.34976        -6.97505         6.97844
     2017.35249       -11.33304         7.01777
     2017.35523       -12.31503         7.09151
     2017.35797       -10.49001         7.07553
     2017.36071        -7.90100         7.14681
     2017.36344        -3.00399         7.13084
     2017.36618        -0.25997         7.11117
     2017.36892        -2.45796         7.05095
     2017.37166        -3.45595         7.10749
     2017.37440        -8.62894         6.93419
     2017.37713        -3.92292         7.03743
     2017.37987       -11.76691         7.34346
     2017.38261       -13.61990         7.17262
     2017.38535        -9.93188         7.05341
     2017.38809        -8.39587         7.39385
     2017.39082         4.55714         7.10257
     2017.39356        -4.21885         7.06816
     2017.39630        -4.07283         7.16525
     2017.39904        -7.61182         7.16156
     2017.40177        -9.04581         7.14190
     2017.40451        -6.16879         7.80312
     2017.40725        -6.80978         7.16525
     2017.40999         3.54923         7.16279
     2017.41273        -3.43576         7.21564
     2017.41546        -1.52274         7.17139
     2017.41820         3.64827         7.34223
     2017.42094        -2.40772         7.09397
     2017.42368        -8.35470         7.04235
     2017.42642        -1.30769         7.20827
     2017.42915        -3.85868         7.18246
     2017.43189         2.14633         7.45530
     2017.43463        -2.84365         7.20335
     2017.43737         2.64536         7.15419
     2017.44010         2.17737         7.22670
     2017.44284        -0.83061         7.26603
     2017.44558         1.57440         7.14804
     2017.44832        -2.27959         7.42949
     2017.45106         2.78342         7.13698
     2017.45379        -1.19356         7.40122
     2017.45653        16.49845         7.56468
     2017.45927        -8.23254         7.18860
     2017.46201        -5.06552         7.13207
     2017.46475        -3.46251         7.20827
     2017.46748        -5.88650         7.26849
     2017.47022         2.38451         7.14067
     2017.47296         2.68653         7.34223
     2017.47570        -9.97946         7.23162
     2017.47843        -4.79945         7.23285
     2017.48117         6.46456         7.43441
     2017.48391         1.65458         7.24391
     2017.48665         1.22059         7.22056
     2017.48939         3.88560         7.32748
     2017.49212         1.35362         7.42458
     2017.49486         1.96163         7.42703
     2017.49760         3.73464         7.36067
     2017.50034         1.19965         7.42212
     2017.50308        -3.40333         7.21072
     2017.50581        -1.16132         7.25005
     2017.50855        -4.07831         7.21072
     2017.51129        -1.02929         7.38648
     2017.51403        -4.72328         7.37050
     2017.51676         0.83773         7.29430
     2017.51950         1.88174         7.35698
     2017.52224         3.87476         7.19598
     2017.52498        -1.69023         7.20089
     2017.52772        -1.71322         7.66547
     2017.53045         5.72880         7.33731
     2017.53319         1.15681         7.21072
     2017.53593         2.65182         7.23530
     2017.53867         3.93483         7.45161
     2017.54141         2.37585         7.16033
     2017.54414         2.71686         7.21072
     2017.54688         0.33587         7.35083
     2017.54962        -1.00111         7.18860
     2017.55236         1.22490         7.32625
     2017.55509         4.14291         7.35944
     2017.55783         0.09992         7.24514
     2017.56057         0.02994         7.20089
     2017.56331        -0.43405         7.40122
     2017.56605        11.64696         7.41597
     2017.56878        -3.47302         7.19352
     2017.57152         0.83799         7.20089
     2017.57426         3.14400         7.43072
     2017.57700         1.53901         7.21564
     2017.57974        -4.08997         7.19843
     2017.58247        -3.92596         7.32379
     2017.58521        -0.35995         7.30044
     2017.58795        -8.36694         7.63720
     2017.59069        -0.59492         7.44301
     2017.59342         0.13409         7.31765
     2017.59616         1.82710         7.17385
     2017.59890        -0.22388         7.32257
     2017.60164        -0.47287         7.29307
     2017.60438         5.30114         7.19966
     2017.60711        -0.49985         7.49217
     2017.60985        -6.10283         7.79943
     2017.61259        14.96318         7.32379
     2017.61533         7.39619         7.39877
     2017.61807        13.46021         7.52658
     2017.62080         9.12922         7.40614
     2017.62354         3.48423         7.36804
     2017.62628         5.14324         7.68144
     2017.62902        15.60626         7.70111
     2017.63175         8.18727         7.41228
     2017.63449        -1.42572         7.36927
     2017.63723         7.12630         7.48848
     2017.63997         6.85731         7.55485
     2017.64271        13.35232         7.57575
     2017.64544         2.90333         7.23162
     2017.64818         3.06435         7.49463
     2017.65092        10.39936         7.40614
     2017.65366         2.38537         7.29553
     2017.65639        10.59239         7.44178
     2017.65913         7.35740         7.13084
     2017.66187        13.47941         7.33240
     2017.66461         6.40142         7.63228
     2017.66735         9.46644         7.48848
     2017.67008         8.09145         7.31028
     2017.67282         2.21046         7.50692
     2017.67556         0.36748         7.29430
     2017.67830         4.61049         7.19352
     2017.68104         5.56350         7.29553
     2017.68377        17.11151         8.03909
     2017.68653         8.50948         7.96166
     2017.68925        12.84754         7.45038
     2017.69199        12.73455         7.41351
     2017.69472        16.36157         7.31888
     2017.69746         2.22358         7.33609
     2017.70020         5.14559         7.24514
     2017.70294         3.03260         7.41720
     2017.70568        -7.91538         7.36558
     2017.70841         4.58763         7.25743
     2017.71115         7.24664         7.45530
     2017.71389        13.28565         7.18860
     2017.71663        15.92767         7.23899
     2017.71937         2.03668         7.20335
     2017.72210        -0.62831         7.24145
     2017.72484         0.64971         7.18246
     2017.72758        20.12872         7.29061
     2017.73032        13.90773         7.48848
     2017.73305         4.52574         7.45038
     2017.73579        14.11776         7.49709
     2017.73853         9.49277         7.39754
     2017.74127        10.73078         7.59418
     2017.74401        13.85680         7.46636
     2017.74674         6.91181         7.26111
     2017.74948         1.06482         7.28938
     2017.75222        -3.81017         7.30167
     2017.75496        -0.11815         7.26972
     2017.75770         1.09086         7.48357
     2017.76043         2.63587         7.34715
     2017.76317        12.94189         7.50078
     2017.76591        16.82490         7.26111
     2017.76865         8.80191         7.12715
     2017.77138        11.99392         7.30905
     2017.77412         2.98294         7.31765
     2017.77686        -2.70705         7.24145
     2017.77960         3.34496         7.23408
     2017.78234         0.21998         7.17877
     2017.78507         5.35199         7.26480
     2017.78781         3.22000         7.39877
     2017.79055        10.24601         7.40860
     2017.79329        10.67303         7.29430
     2017.79603        11.50804         7.28692
     2017.79876        22.04505         7.52536
     2017.80150        19.92607         7.54748
     2017.80424        12.64908         7.25374
     2017.80698        -2.36291         7.65686
     2017.80971        11.20310         7.15665
     2017.81245         5.38812         7.53642
     2017.81519         5.18213         7.43318
     2017.81793        -7.95686         7.27832
     2017.82067       -11.72984         7.38402
     2017.82340         6.11417         7.19720
     2017.82614        -5.25882         7.22547
     2017.82888         5.22419         7.15910
     2017.83162         7.29721         7.29061
     2017.83436        -2.30578         7.22670
     2017.83709         8.15623         7.34960
     2017.83983        -2.83076         7.06447
     2017.84257         2.97326         7.10134
     2017.84531        -4.27973         7.11240
     2017.84804        -2.52872         6.98704
     2017.85078        -1.89770         7.06078
     2017.85352         3.28131         7.05095
     2017.85626         4.08832         7.33486
     2017.85900         8.85033         7.31888
     2017.86173         6.65635         7.09765
     2017.86447         7.51636         7.06447
     2017.86721        14.26237         6.99687
     2017.86995        12.76939         7.04480
     2017.87269        15.69340         7.07676
     2017.87542        11.00941         6.96738
     2017.87816        14.07042         6.80146
     2017.88090        -8.33356         7.16279
     2017.88364       -20.17955         7.20458
     2017.88637        15.80646         7.10749
     2017.88911         9.87448         7.11609
     2017.89185         7.39249         7.12223
     2017.89459         9.62650         7.09274
     2017.89733         8.01051         7.14804
     2017.90006       -14.29947         7.34715
     2017.90280       -19.06646         7.21687
     2017.90554        18.17055         7.21564
     2017.90828         6.15457         7.16894
     2017.91102        19.48658         7.28447
     2017.91375         5.65559         7.21564
     2017.91649        -3.40740         7.16648
     2017.91923         4.00662         7.06324
     2017.92197         3.96863         7.04726
     2017.92470         3.25064         7.20089
     2017.92744         3.22766         7.13329
     2017.93018        -3.23333         7.05710
     2017.93292         2.81368         7.15665
     2017.93566        -1.84431         7.11117
     2017.93839        -2.83329         7.14804
     2017.94113        -3.58828         7.25374
     2017.94387         3.70773         7.24268
     2017.94661        -2.08926         7.09642
     2017.94935         5.51676         7.19106
     2017.95208         8.65077         7.30413
     2017.95482         9.12578         7.07553
     2017.95756         1.36280         7.10626
     2017.96030         6.07881         7.10257
     2017.96303         6.12982         6.98458
     2017.96577         3.32983         7.15296
     2017.96851        -0.24715         6.95140
     2017.97125        -6.94814         7.05095
     2017.97399        -7.99013         6.93419
     2017.97672        -2.84511         6.90347
     2017.97946        -6.85710         6.85308
     2017.98220         1.39291         6.92928
     2017.98494        -5.98308         6.81743
     2017.98767       -10.13506         6.86291
     2017.99041        -6.42405         6.85922
     2017.99315        -2.31304         6.85185
     2017.99589        -4.42702         6.80391
     2017.99863        -2.57701         6.77811
     2018.00136        -3.95400         6.82358
     2018.00410       -11.80699         6.92436
     2018.00684       -11.58097         7.03497
     2018.00958        -3.64296         7.02637
     2018.01232        -0.32395         7.09397
     2018.01505         0.64707         7.01039
     2018.01779         4.66808         7.27832
     2018.02053        -8.42191         7.03866
     2018.02327         6.31410         7.02268
     2018.02600        -1.80888         6.91699
     2018.02874        -4.71187         6.85553
     2018.03148        -6.69386         6.85676
     2018.03422       -19.50084         6.96983
     2018.04243        -6.93581         7.10503
     2018.04517        -4.13079         7.04235
     2018.04791         3.28322         7.15050
     2018.05065         3.09823         7.02268
     2018.05338        -4.38275         6.94402
     2018.05612        -4.24174         7.07061
     2018.05886       -12.03673         7.10503
     2018.06160        -6.79472         7.03006
     2018.06433        -2.18670         7.14067
     2018.06707         2.63231         7.17139
     2018.06981        -4.21268         7.06447
     2018.07255        -9.43967         7.12223
     2018.07529        -8.72665         7.06201
     2018.08076       -23.74163         7.36927
     2018.08350        -0.52461         7.12961
     2018.08624       -13.10960         7.21441
     2018.08898        -9.22759         7.53273
     2018.09171        -7.91158         7.14681
     2018.09445        -5.18256         7.07553
     2018.09719        -6.21355         7.20949
     2018.09993       -16.70654         6.96123
     2018.10266       -25.04652         7.02268
     2018.10814       -11.06450         7.06447
     2018.11088       -11.83949         6.93296
     2018.11362       -10.55047         6.97598
     2018.11635        -9.22446         6.92436
     2018.11909       -15.96445         7.39999
     2018.12183        -8.26643         7.27832
     2018.12457        -5.90442         7.08905
     2018.12731        -7.02341         7.20458
     2018.13004        -2.82840         7.01531
     2018.13278        -7.71538         7.08168
     2018.13552        -6.90937         6.95017
     2018.13826        -7.76836         6.93419
     2018.14099       -13.72234         6.98581
     2018.14373       -15.02533         6.98090
     2018.14647        -0.06532         7.36804
     2018.14921        -6.29531         7.27095
     2018.15195        -1.35929         7.14436
     2018.15468        -3.62428         7.18000
     2018.15742        -3.92927         7.29061
     2018.16016        -8.03525         7.24391
     2018.16290        -8.65224         7.20212
     2018.16564       -16.35123         7.25251
     2018.16837       -16.61922         7.02514
     2018.17111        -8.24620         7.06939
     2018.17385        -7.03719         7.05955
     2018.17659       -11.58418         6.98090
     2018.17932        -9.83516         7.07799
     2018.18206        -2.70015         7.02637
     2018.18480        -8.62514         7.06816
     2018.18754        -8.14913         7.05464
     2018.19028       -13.51911         7.08536
     2018.19301        -8.48910         7.06324
     2018.19575        -7.96709         7.06939
     2018.19849        -8.35708         7.05464
     2018.20123        -5.06206         7.18246
     2018.20397        -2.10905         7.12592
     2018.20670         2.39996         7.00548
     2018.20944        -9.38602         7.10380
     2018.21218        -9.09501         7.07061
     2018.21492       -18.27100         7.02268
     2018.21765        -2.37899         7.12592
     2018.22039        -6.26897         7.00548
     2018.22313        -5.84596         7.14313
     2018.22587       -16.13695         7.13452
     2018.22861       -16.34393         7.15050
     2018.23134        -7.99192         7.10257
     2018.23408       -14.89691         7.13084
     2018.23682       -15.78290         7.05218
     2018.23956       -15.44688         7.17139
     2018.24230       -13.04587         7.21195
     2018.24503       -16.30586         7.10994
     2018.24777       -10.26284         7.04112
     2018.25051        -9.13783         7.00425
     2018.25325       -16.49482         7.27340
     2018.25598       -12.02981         7.01900
     2018.25872       -16.53979         7.25005
     2018.26146       -15.66178         7.29799
     2018.26420        -9.17377         7.07553
     2018.26694       -10.74775         7.08168
     2018.26967       -13.77974         7.07553
     2018.27241       -21.90073         7.27709
     2018.27515        -0.02872         7.13944
     2018.27789        -3.43870         7.28447
     2018.28062        -9.37669         7.26234
     2018.28336        -9.11568         7.13329
     2018.28610       -11.46966         7.18246
     2018.28884       -13.42665         7.07184
     2018.29158        -9.93364         7.51798
     2018.29431       -11.98263         7.23530
     2018.29705        -6.83761         7.11855
     2018.29979        -9.83760         7.36681
     2018.30253        -2.95459         7.07184
     2018.30527        -9.94858         7.05095
     2018.30800       -13.72356         7.12469
     2018.31074        -4.62455         7.04972
     2018.31348       -14.10554         7.08536
     2018.31622       -14.20252         7.08905
     2018.31895        -6.75851         7.39999
     2018.32169       -10.98250         7.05218
     2018.32443        -3.26849         7.01531
     2018.32717       -10.48547         7.06201
     2018.32991        -8.94246         7.28201
     2018.33264         2.07255         7.29799
     2018.33538        -1.36943         7.36067
     2018.33812        -1.51342         7.32871
     2018.34086        -5.04141         6.96860
     2018.34360        -6.59240         7.10011
     2018.34633        -8.17538         7.09765
     2018.34907        -6.61337         7.06939
     2018.35181         1.69864         7.14436
     2018.35455         2.65366         7.07799
     2018.35728        -4.95433         7.18246
     2018.36002        -6.34732         7.11363
     2018.36276        -3.25031         7.28815
     2018.36550        -2.63929         7.17139
     2018.36824         6.49472         7.14436
     2018.37097        -3.30327         7.10994
     2018.37371       -10.08125         7.13944
     2018.37645       -10.19924         7.25251
     2018.37919        -2.54323         7.12346
     2018.38193        -0.07922         7.14804
     2018.38466         6.78380         7.26357
     2018.38740        -1.56519         7.21072
     2018.39014         8.14782         7.18491
     2018.39288         0.17784         7.36189
     2018.39561         3.06685         7.19229
     2018.39835         7.31686         7.21195
     2018.40109        10.24587         7.15788
     2018.40383         1.68989         7.33117
     2018.40657         0.37390         7.18246
     2018.40930         9.21191         7.35575
     2018.41204         0.26393         7.15665
     2018.41478         3.08294         7.21195
     2018.41752         4.87995         7.17754
     2018.42026         4.89396         7.29799
     2018.42299        -0.01402         7.12223
     2018.42573         7.24999         7.21564
     2018.42847        10.77500         7.25620
     2018.43121         7.36901         7.14804
     2018.43394         4.59903         7.20827
     2018.43668         4.54404         7.28815
     2018.43942        -0.90995         7.20335
     2018.44216         4.20407         7.18491
     2018.44490         3.76708         7.22179
     2018.44763         9.71609         7.17877
     2018.45037         8.07410         7.27095
     2018.45311         1.53912         7.22670
     2018.45585        -3.14387         7.15050
     2018.45859         5.26114         7.15665
     2018.46132        -0.37484         7.15665
     2018.46406         7.63917         7.12346
     2018.46680         2.30018         7.20212
     2018.46954         5.27819         7.26480
     2018.47227         2.91521         7.39877
     2018.47501        12.33622         7.23039
     2018.47775         7.60623         7.32134
     2018.48049         8.73625         7.30659
     2018.48323         5.54426         7.30782
     2018.48596         0.35527         7.22179
     2018.48870         6.62728         7.08536
     2018.49144         9.86630         7.13821
     2018.49418         9.29431         7.43809
     2018.49692         4.43432         7.26849
     2018.49965         4.70234         7.26849
     2018.50239         1.92335         7.36558
     2018.50513        -1.83264         7.26234
     2018.50787        13.30337         7.37541
     2018.51060        -5.28061         7.25497
     2018.51334        -1.53760         7.29430
     2018.51608         4.58041         7.29676
     2018.51882         0.18743         7.19106
     2018.52156         5.12444         7.20089
     2018.52429         1.31045         7.23162
     2018.52703        -3.37054         7.28692
     2018.52977         2.25748         7.15910
     2018.53251        -0.59251         7.28569
     2018.53525        12.51650         7.29430
     2018.53798         7.59351         7.14313
     2018.54072         5.52653         7.13821
     2018.54346         5.81054         7.28692
     2018.54620         9.86855         7.14313
     2018.54893         3.90157         7.23653
     2018.55167        -1.57942         7.08905
     2018.55441         3.44959         7.10626
     2018.55715         5.97060         7.29307
     2018.55989         1.85862         7.50569
     2018.56262         0.46663         7.25743
     2018.56536        11.77864         7.37296
     2018.56810        12.94766         7.21318
     2018.57084         7.81267         7.26849
     2018.57357         3.41568         7.56591
     2018.57631         0.20569         7.58435
     2018.57905         6.34071         7.85105
     2018.58179        13.06072         7.63843
     2018.58453         1.27273         7.34838
     2018.58726         9.11575         7.30413
     2018.59000        11.37176         7.21195
     2018.59274         5.50977         7.31150
     2018.59548        10.35878         7.26357
     2018.59822         5.36180         7.34592
     2018.60095         8.41981         7.27463
     2018.60369        16.87782         7.42826
     2018.60643        15.55384         7.67038
     2018.60917        12.98285         7.12838
     2018.61190        13.38786         7.22916
     2018.61464         7.74587         7.10134
     2018.61738         4.18889         7.39631
     2018.62012         5.11990         7.28938
     2018.62286         1.85991         7.77116
     2018.62559         2.41293         7.47374
     2018.62833         3.50094         7.19229
     2018.63107        10.62195         7.14804
     2018.63381        10.24696         7.43809
     2018.63655        12.64298         7.19352
     2018.63928        11.60699         7.96781
     2018.64202        18.91200         7.54133
     2018.64476        16.11602         7.13575
     2018.64750         8.02203         7.13944
     2018.65023        22.12004         8.96209
     2018.65297        12.77005         7.33977
     2018.65571        15.93507         7.28078
     2018.65845        14.34908         7.26726
     2018.66119        10.05609         7.34960
     2018.66392        17.61610         7.49094
     2018.66666         6.71312         7.24759
     2018.66940        15.73413         7.24268
     2018.67214        12.64114         7.28815
     2018.67488         6.78716         7.25497
     2018.67761         5.49217         7.28201
     2018.68035         8.13218         7.25128
     2018.68309         4.04319         7.51675
     2018.68583        14.04921         7.36435
     2018.68856        10.00622         7.29430
     2018.69130        16.95423         7.40368
     2018.69404        14.58925         7.38648
     2018.69678        15.66626         7.31396
     2018.69952         5.14127         7.25989
     2018.70225         4.94928         7.29430
     2018.70499         0.30330         7.21810
     2018.70773         4.46431         7.20704
     2018.71047         3.05632         7.18000
     2018.71321         1.14834         7.24759
     2018.71594         5.40135         7.15050
     2018.71868         5.09336         7.17508
     2018.72142         3.31837         7.16156
     2018.72416        -2.81961         7.16894
     2018.72689        13.39240         7.22793
     2018.72963         7.50241         7.26603
     2018.73237         0.82743         7.12592
     2018.73511         2.77644         7.18491
     2018.73785         1.93645         7.18369
     2018.74058         3.44046         7.18983
     2018.74332        12.03448         7.23776
     2018.74606         6.72049         7.15296
     2018.74880         6.52750         7.22179
     2018.75154        10.97052         7.14190
     2018.75427         7.82653         7.27955
     2018.75701        13.18454         7.42703
     2018.75975         5.08055         7.20212
     2018.76249         3.30757         7.28815
     2018.76522         9.90858         7.32011
     2018.76796        13.50759         7.37173
     2018.77070        17.92561         7.30659
     2018.77344         8.21662         7.26234
     2018.77618        14.41063         7.34960
     2018.77891        20.33764         7.41966
     2018.78165         0.66266         7.46022
     2018.78439         9.62267         7.27709
     2018.78713        11.00268         7.21441
     2018.78987        -3.03131         7.39631
     2018.79260         3.49471         7.32748
     2018.79534        21.80572         7.39139
     2018.79808        13.32673         7.54502
     2018.80082         9.37775         7.38893
     2018.80355         9.82576         7.08536
     2018.80629         7.40277         7.37173
     2018.80903         8.55778         7.23039
     2018.81177        11.12580         7.53519
     2018.81451        14.99881         7.37296
     2018.81724        12.32482         7.14190
     2018.81998        16.72584         7.17631
     2018.82272        16.10685         7.14067
     2018.82546        19.60486         7.07061
     2018.82820        12.57687         7.12715
     2018.83093        12.57789         7.08905
     2018.83367        10.07490         7.07307
     2018.83641        16.83391         7.09519
     2018.83915        16.64193         7.05464
     2018.84188        11.90494         7.14313
     2018.84462        18.12695         7.18491
     2018.84736         3.60496         7.00548
     2018.85010         8.32998         7.00916
     2018.85284         6.22199         7.05955
     2018.85557         1.55800         7.08290
     2018.85831         4.73902         7.09765
     2018.86105        -0.40497         7.17631
     2018.86379         1.38604         7.11240
     2018.86653         2.67905         7.31888
     2018.86926         7.91907         7.12838
     2018.87200        11.11308         6.98950
     2018.87474         5.58009         7.03129
     2018.87748         1.75711         7.15665
     2018.88021         9.26412         7.25128
     2018.88295         6.04213         7.09888
     2018.88569        11.03514         7.15910
     2018.88843        13.35416         7.22056
     2018.89117         9.37317         7.25251
     2018.89390         6.84018         7.28447
     2018.89664         4.96019         7.36435
     2018.89938         5.21121         7.26849
     2018.90212         9.94122         7.32748
     2018.90485        13.95423         7.22424
     2018.90759        12.36825         7.17754
     2018.91033        15.15126         7.12592
     2018.91307        14.12927         7.21072
     2018.91581         9.67428         7.06570
     2018.91854         8.22930         7.07676
     2018.92128         5.55931         7.01777
     2018.92402         3.81232         7.01162
     2018.92676         5.93834         6.96000
     2018.92950         8.41835         6.89240
     2018.93223         0.58536         7.00793
     2018.93497        -2.41763         7.04112
     2018.93771        -3.90561         7.11486
     2018.94045        15.34140         7.18491
     2018.94318        29.58241         7.25251
     2018.94592        14.67243         7.22547
     2018.94866        19.09444         7.37418
     2018.95140        15.14945         7.23039
     2018.95414        18.30846         7.05832
     2018.95687        -8.47152         7.14190
     2018.95961       -23.65851         7.35329
     2018.96235        17.47250         7.20335
     2018.96509        10.38552         7.14313
     2018.96783         1.20053         7.21564
     2018.97056         8.38354         7.10011
     2018.97330        -3.80645         7.17139
     2018.97604        -3.24743         7.09642
     2018.97878         5.58658         7.13575
     2018.98151        -7.01941         7.11240
     2018.98425         4.51261         7.35575
     2018.98699        -7.10438         7.40122
     2018.98973        -2.55337         7.20704
     2018.99247        17.50464         7.27218
     2018.99520        -6.78234         7.23039
     2019.00068        -4.50432         7.28815
     2019.00342        -2.70030         7.33854
     2019.00616        -3.04629         7.03374
     2019.00889        -5.14328         7.10626
     2019.01163       -11.75727         7.17631
     2019.01437         3.67475         7.05832
     2019.01711         6.74176         7.05218
     2019.01984        -5.06723         6.95017
     2019.02258        -3.62222         6.97598
     2019.02532       -12.80820         7.22179
     2019.02806         1.98581         7.28692
     2019.03080        -5.37218         7.57820
     2019.03353       -24.17816         7.44301
     2019.03627        -7.65315         7.11732
     2019.03901        -3.23114         7.08782
     2019.04175        -3.79113         7.11363
     2019.04449        -0.97711         7.07430
     2019.04722        -6.29710         7.25989
     2019.04996       -17.99209         7.31273
     2019.05270        -4.25207         7.43809
     2019.05544        -7.95406         7.18491
     2019.05817       -22.31605         7.43809
     2019.06091        -4.21604         7.29676
     2019.06365         1.12098         7.16894
     2019.06639        -6.80901         7.24759
     2019.06913        -2.50600         7.34223
     2019.07186       -12.08198         7.33240
     2019.07460        -7.65797         7.15788
     2019.07734        -5.51996         7.07799
     2019.08008        -5.49795         7.04603
     2019.08282        -5.78393         7.31642
     2019.08555       -22.87392         7.28815
     2019.08829        -3.46191         6.95509
     2019.09103         0.66711         6.86291
     2019.09377        -1.99488         6.85553
     2019.09650         6.95813         6.84570
     2019.09924        -4.12086         6.84079
     2019.10198        -8.33184         6.93173
     2019.10472        -1.34983         7.05218
     2019.10746       -10.09282         7.06939
     2019.11019        -2.99180         6.89978
     2019.11293         1.31821         6.96860
     2019.11567        -0.23378         7.35452
     2019.11841         9.77223         6.94034
     2019.12115         8.49625         7.13821
     2019.12388         8.50526         7.09888
     2019.12662         5.98327         6.87766
     2019.12936        -2.13171         7.02145
     2019.13210        -0.70670         6.96000
     2019.13483        -3.27469         7.00179
     2019.13757        -5.13068         6.97844
     2019.14031         1.72334         6.86291
     2019.14305        -7.50165         7.01039
     2019.14579        -4.62064         7.04849
     2019.14852        -1.23563         6.92559
     2019.15126        -2.12461         6.90592
     2019.15400        -0.93460         7.04358
     2019.15674        -8.75259         6.99687
     2019.15948        -0.79057         7.08782
     2019.16221        -4.27656         7.24268
     2019.16495        -2.56555         7.06939
     2019.16769        -6.86454         6.88995
     2019.17043        -9.68652         6.91453
     2019.17316        -3.67951         6.97844
     2019.17590        -9.39750         7.03866
     2019.17864        -4.68948         7.03743
     2019.18138        -4.66847         6.90470
     2019.18412       -13.61746         6.93419
     2019.18685        -0.87845         6.96246
     2019.18959       -17.60343         7.34223
     2019.19233        -2.93142         7.11609
     2019.19507        -7.16741         7.01777
     2019.19780       -11.28639         7.09888
     2019.20054         1.06762         7.22424
     2019.20328        -9.75437         7.08782
     2019.20602       -11.42436         7.10626
     2019.20876       -15.44734         7.14190
     2019.21149       -18.94933         7.11363
     2019.21423        -6.84032         7.01285
     2019.21697        -5.69930         7.01162
     2019.21971        -7.14129         7.32257
     2019.22245        -8.67328         7.10380
     2019.22518        -9.35627         7.01777
     2019.22792        -5.23925         6.99196
     2019.23066        -5.74124         7.05218
     2019.23340        -4.43923         7.05464
     2019.23613        -5.17121         7.09765
     2019.23887       -10.03120         7.02637
     2019.24161        -9.65119         7.40737
     2019.24435        -6.02118         7.21810
     2019.24709        -5.42016         7.16279
     2019.24982        -0.80715         7.16648
     2019.25256        -0.72214         7.28938
     2019.25530         2.22587         6.99810
     2019.25804         0.51989         6.98458
     2019.26078         4.44690         7.12223
     2019.26351        -1.75609         7.19966
     2019.26625        -4.52607         7.00425
     2019.26899        -5.73006         7.23285
     2019.27173         1.22295         7.24022
     2019.27446        -7.88904         7.01285
     2019.27720         1.82698         7.20581
     2019.27994        -3.39801         7.03497
     2019.28268         1.92100         7.10257
     2019.28542         5.05202         7.06324
     2019.29089         5.64004         6.94771
     2019.29363         6.31305         7.04972
     2019.29637         4.32907         7.18614
     2019.30184         0.29709         7.02022
     2019.30458         2.63711         7.03129
     2019.30732        -3.14688         6.99073
     2019.31006         3.02513         7.10134
     2019.31279        -9.10486         7.19598
     2019.31553         5.03416         6.89978
     2019.31827         1.42517         6.97352
     2019.32101        -9.58882         6.95509
     2019.32375       -13.88780         6.97229
     2019.32648        -6.90979         7.10134
     2019.32922         0.22922         7.07184
     2019.33196         5.37823         7.22793
     2019.33470        -3.88075         7.21441
     2019.33744        -0.98874         6.95263
     2019.34017       -11.11673         7.01900
     2019.34291        -0.94871         7.08168
     2019.34839        -7.50869         7.05955
     2019.35112        -7.50568         7.08413
     2019.35386        -6.18866         7.05218
     2019.35660        -3.02165         7.32379
     2019.35934        -0.18764         7.13698
     2019.36208        -3.01462         7.32748
     2019.36481         1.26939         7.25497
     2019.36755        -0.64060         7.11732
     2019.37029        -3.61359         7.28938
     2019.37303         4.89943         7.21441
     2019.37577         3.23044         7.24022
     2019.37850         3.22745         7.14436
     2019.38124         4.95446         7.13698
     2019.38398         4.10748         7.18491
     2019.38672        -3.50551         7.26603
     2019.38945        -6.28150         7.09028
     2019.39219        -0.62948         7.16771
     2019.39493         4.02353         7.18737
     2019.39767         4.77154         7.19966
     2019.40041         2.87755         7.11117
     2019.40314         2.66957         7.27586
     2019.40588        -4.72342         7.32379
     2019.40862         5.86859         7.15296
     2019.41136         5.33561         7.24759
     2019.41410         8.69962         7.37910
     2019.41683         7.76463         7.30905
     2019.41957         8.60464         7.21441
     2019.42231         1.07066         7.16156
     2019.42505         6.11267         7.23776
     2019.42778         8.92368         7.60156
     2019.43052         5.92170         7.20827
     2019.43326         1.29771         7.27832
     2019.43600        -1.64128         7.12346
     2019.43874         6.06573         7.25128
     2019.44147        -0.70825         7.40983
     2019.44421         2.41576         7.35329
     2019.44695        -5.67823         7.59049
     2019.44969        -0.95721         7.26603
     2019.45243        -5.19120         7.30905
     2019.45516         4.34981         7.43195
     2019.45790        -3.67418         7.43809
     2019.46064        16.72484         7.43932
     2019.46338         5.14485         7.53027
     2019.46611         4.71186         7.62614
     2019.46885         6.00088         7.65317
     2019.47159        15.56289         7.29799
     2019.47433         4.99490         7.45284
     2019.47707         3.60891         7.46268
     2019.47980         0.84193         7.35698
     2019.48254         9.29794         7.36189
     2019.48528        13.13895         7.58189
     2019.48802        -3.16803         7.40122
     2019.49076         5.32298         7.36681
     2019.49349        -1.40201         7.45284
     2019.49623         5.61700         7.36804
     2019.49897         5.43502         7.27340
     2019.50171         6.40503         7.30782
     2019.50444         2.46204         7.34100
     2019.50718        -4.10995         7.51307
     2019.50992         4.03607         7.22424
     2019.51266         6.71108         7.39631
     2019.51540        10.40509         7.45899
     2019.51813         4.95611         7.42089
     2019.52087        -1.35288         7.40122
     2019.52361         5.13513         7.47742
     2019.52635         4.13514         7.46882
     2019.52908         6.65216         7.67653
     2019.53182        -0.72883         7.50446
     2019.53456        -3.19582         7.52290
     2019.53730         4.49220         7.47251
     2019.54004        10.60221         7.76870
     2019.54277        12.55822         7.59541
     2019.54551        10.12523         7.68390
     2019.54825         6.84425         7.37541
     2019.55099         1.45326         7.51184
     2019.55373         5.12727         7.65440
     2019.55646         7.94729         7.68267
     2019.55920         5.47730         7.78099
     2019.56194        14.19631         7.38893
     2019.56468         5.18032         7.54994
     2019.56741         3.22634         7.40860
     2019.57015        -1.16465         7.50692
     2019.57289         8.42136         7.49955
     2019.57563         8.00538         7.29921
     2019.57837        10.22239         7.41966
     2019.58110         6.37940         7.35083
     2019.58384         5.55241         7.44301
     2019.58658         3.43043         7.26726
     2019.58932        10.44944         7.32134
     2019.59206        12.42045         7.72323
     2019.59479        11.17447         7.40614
     2019.59753        10.57248         7.68267
     2019.60027         5.32749         7.79328
     2019.60301         5.41550         7.20089
     2019.60574        12.18652         7.55977
     2019.60848        12.49153         7.64949
     2019.61122         7.64754         7.14681
     2019.61396         2.05855         7.39877
     2019.61670         5.02357         7.30044
     2019.61943         7.27958         7.50692
     2019.62217        17.03359         7.51675
     2019.62491        14.47761         7.37418
     2019.62765        20.59762         7.61508
     2019.63039         8.82463         7.38525
     2019.63312        10.87064         7.48357
     2019.63586         6.15866         7.58804
     2019.63860        18.33767         7.31642
     2019.64134         7.81268         7.47005
     2019.64407         8.35470         7.45530
     2019.64681         0.30871         7.45530
     2019.64955        11.79272         7.50323
     2019.65229        10.18473         7.47251
     2019.65503         0.82575         7.38648
     2019.65776         2.41076         7.46145
     2019.66050         7.95377         7.45038
     2019.66324         0.39579         7.56960
     2019.66598        -8.07020         7.46145
     2019.66872         5.06181         7.36558
     2019.67145         5.51582         7.39262
     2019.67419         8.19184         7.39508
     2019.67693         2.78585         7.63966
     2019.67967         5.01386         7.49340
     2019.68240         5.78388         7.20827
     2019.68514         6.86389         7.30659
     2019.68788        11.85590         7.42212
     2019.69062         6.11091         7.38893
     2019.69336         1.12993         7.31519
     2019.69609        13.32494         7.49094
     2019.69883         9.82395         7.37664
     2019.70157         9.40197         7.75027
     2019.70431         7.03298         7.25497
     2019.70705         3.00899         7.35944
     2019.70978         6.56900         7.37541
     2019.71252         1.13902         7.33854
     2019.71526         7.74903         7.37050
     2019.71800         8.66104         7.57575
     2019.72073        11.92206         7.72692
     2019.72347         9.10307         7.36435
     2019.72621         8.70308         7.32379
     2019.72895         4.89209         7.55362
     2019.73169        25.08211         7.32134
     2019.73442        16.24312         7.27340
     2019.73716         9.29313         7.31396
     2019.73990         4.88914         7.56100
     2019.74264         3.32316         7.30290
     2019.74538         4.17417         7.28815
     2019.74811        13.45818         7.50569
     2019.75085         9.42620         7.41597
     2019.75359        12.28921         7.61753
     2019.75633        16.10022         7.43564
     2019.75906         6.67323         7.27340
     2019.76180        11.77525         7.35083
     2019.76454        12.74326         7.44424
     2019.76728         8.36427         7.19720
     2019.77002         3.60629         7.08045
     2019.77275         6.09030         7.30044
     2019.77549         4.85531         7.14313
     2019.77823        14.90232         7.17508
     2019.78097         8.89934         7.21195
     2019.78371         9.55035         7.12715
     2019.78644         7.93236         7.22056
     2019.78918        14.31438         7.06816
     2019.79192        21.01139         7.18983
     2019.79466        20.53240         7.12346
     2019.79739        15.35541         7.12592
     2019.80013        18.05743         7.08045
     2019.80287        17.08344         7.10134
     2019.80561        20.33645         7.10503
     2019.80835         8.32647         7.22547
     2019.81108        14.20248         7.17017
     2019.81382        18.83749         7.13084
     2019.81656         3.82750         7.06324
     2019.81930         9.08352         6.97475
     2019.82203         6.32553         7.04235
     2019.82477         1.90554         7.06570
     2019.82751         9.81656         7.09519
     2019.83025        12.54757         7.18123
     2019.83299         7.78658         7.36681
     2019.83572        17.16059         7.17262
     2019.83846        18.88861         7.13452
     2019.84120        13.35362         7.15050
     2019.84394         9.55163         7.37910
     2019.84668         1.45565         7.15296
     2019.84941        16.44566         7.04849
     2019.85215        21.63367         7.20704
     2019.85489        17.62368         7.22547
     2019.85763        12.61670         7.15419
     2019.86036       -12.38929         7.19966
     2019.86584        22.18373         7.37173
     2019.86858        20.60375         7.13452
     2019.87132        17.31976         7.40491
     2019.87405        22.35577         7.13698
     2019.87679        12.24479         7.67161
     2019.87953        14.19580         7.12100
     2019.88227        25.36581         7.05341
     2019.88501        13.44882         7.19598
     2019.88774        17.35484         7.26603
     2019.89048        20.25985         7.21441
     2019.89322        19.30886         7.29430
     2019.89596        16.84388         7.16033
     2019.89869        10.17889         7.10011
     2019.90143         7.88590         7.12100
     2019.90417         3.42391         7.35698
     2019.90691         9.50093         7.05955
     2019.90965         8.75494         7.08045
     2019.91238        13.76695         7.00425
     2019.91512        13.79797         6.92682
     2019.91786        19.10798         7.12469
     2019.92060        18.24299         7.12223
     2019.92607         8.02302         7.08045
     2019.92881        11.37703         6.97598
     2019.93155        15.04604         6.92928
     2019.93429        12.21506         6.94894
     2019.93702         8.19907         6.94525
     2019.93976         4.80008         6.96246
     2019.94250        -1.99291         7.04235
     2019.94524        -2.54489         7.03989
     2019.94798         5.30712         7.08905
     2019.95071        10.06213         7.46636
     2019.95345         6.54615         7.05341
     2019.95619        -1.63784         7.15542
     2019.95893         3.48517         7.47128
     2019.96167        12.63918         7.06078
     2019.96440         2.96320         7.40737
     2019.96714        -0.68679         7.27832
     2019.96988         5.41322         7.20827
     2019.97262         9.57023         7.13452
     2019.97535        11.99625         7.08659
     2019.97809         1.36226         7.18860
     2019.98083         5.78027         7.01900
     2019.98357       -14.42171         7.23530
     2019.98631        14.97130         7.20704
     2019.98904        11.79931         7.05832
     2019.99178        10.14832         7.06447
     2019.99452        12.38334         7.10749
     2020.00000        24.18436         7.32134
     2020.00273        13.98538         7.13575
     2020.00547       -13.84961         7.23285
     2020.00821        -8.21760         7.46882
     2020.01095         9.06541         7.42580
     2020.01368        -1.38857         7.35206
     2020.01642         4.28044         7.22424
     2020.01916         3.25045         6.88257
     2020.02190        -0.12653         7.11117
     2020.02464       -24.48452         7.22301
     2020.05475        -4.87838         7.02637
     2020.05749        -0.57337         7.10134
     2020.06023         3.05265         7.30659
     2020.06297         0.77466         7.06324
     2020.06570         4.82367         7.17754
     2020.06844         3.35968         7.04603
     2020.07118         6.78170         7.02022
     2020.07392         7.68171         7.07430
     2020.07666        -9.22128         7.17877
     2020.07939        -6.05026         7.20335
     2020.08213        -2.81125         7.07553
     2020.08487        -1.42124         7.11240
     2020.08761        -6.56323         6.97721
     2020.09034         0.25379         6.86168
     2020.09308        -7.07420         7.15788
     2020.09582         8.04381         7.08168
     2020.09856        -1.96518         6.99196
     2020.10130        -0.24616         6.98335
     2020.10403        -3.05815         6.99933
     2020.10677        -3.72414         7.07061
     2020.10951        -7.50312         7.18614
     2020.11225         4.70789         7.07922
     2020.11498         6.45690         7.03129
     2020.11772       -23.68909         7.45284
     2020.12046        -7.32607         7.42949
     2020.12320        -5.88806         7.14313
     2020.12594        -3.24205         7.03620
     2020.12867        -6.65603         6.99073
     2020.13141        -3.27602         6.99441
     2020.13415        -6.05401         6.89609
     2020.13689        -6.95400         7.22547
     2020.13963         1.66002         7.39016
     2020.14236        -6.64297         7.02637
     2020.14510         0.27904         7.12838
     2020.14784        -3.31494         7.12223
     2020.15058        -7.85193         7.14190
     2020.15331       -31.33992         7.38402
     2020.15605        -4.69391         7.50323
     2020.15879        -1.14589         7.15173
     2020.16153        -0.31388         7.07307
     2020.16427        -0.97887         7.17754
     2020.16700         3.42715         7.18737
     2020.16974        -2.35884         7.12346
     2020.17248         2.05417         6.97598
     2020.17522        -9.11882         7.17017
     2020.17796        -7.80180         7.06447
     2020.18069        -9.77879         6.90470
     2020.18343        -7.05278         6.94771
     2020.18617        -7.25476         7.07799
     2020.18891       -16.16075         7.38770
     2020.19164        -6.40074         7.22916
     2020.19438       -11.06873         6.99564
     2020.19712        -9.61771         7.00302
     2020.19986       -10.93570         6.92190
     2020.20260       -15.85769         6.96860
     2020.20533       -11.20868         6.89855
     2020.20807        -8.56466         6.98335
     2020.21081        -8.39965         7.01039
     2020.21355       -10.53664         7.60278
     2020.75864        10.06107         8.36847
     2020.76085        27.29680        25.78752
     2020.76446         9.54694        10.16408
     2020.76659        11.04295         7.28938
     2020.76933        12.19797        18.44161
     2020.77137        11.05929        10.45659
     2020.77596       -12.82578        20.69073
     2020.77855         6.65970        18.02620
     2020.78007        22.39870        10.79212
     2020.78314        12.60063         7.92971
     2020.78611        13.62987        10.19235
     2020.78894         5.14061        10.58318
     2020.79173        17.06845        10.76139
     2020.79390        10.91233         9.66633
     2020.79600        36.66844        24.10990
     2020.80010        25.51295        14.17073
     2020.80239         9.86747         8.15339
     2020.80492        14.64115        22.61171
     2020.80825         4.92823        17.16710
     2020.80927         7.80086        19.04260
     2020.82203         3.92698        10.48117
     2020.82409        18.62622         8.49629
     2020.82683         5.00424         7.38525
     2020.82928        -8.05281         8.71260
     2020.83283         1.33453        16.09047
     2020.83444         9.35524        10.29190
     2020.83739        23.80155         9.62823
     2020.84093        32.33893        18.99221
     2020.84448        31.91027        29.19440
     2020.84599        11.85933         9.27181
     2020.85267       -10.49160        21.28804
     2020.85420        16.76736        12.64181
     2020.85680        31.84086        43.99193
     2020.85952        34.02592        16.60052
     2020.86443        33.07379        12.24115
     2020.86822        11.69737         8.87114
     2020.86999        30.62253        10.09895
     2020.89253        23.51254        32.85076
     2020.89527        22.42456         7.98378
     2020.89794        21.41879        12.53980
     2020.90432        33.03685        26.28774
     2020.90514        19.48015        16.26008
     2020.97300         0.97642        15.40959
     2020.97352         6.51772        18.89143
     2020.98648        -1.95584        11.77657
     2020.98836        13.44699         8.36478
     2020.99066         8.19243         9.14891
     2020.99425        -2.76834         9.13662
     2020.99658        -0.85998         7.26111
     2020.99813         9.05491        20.31711
     2021.00252        -5.21449        16.98029
     2021.00489       -26.83627        21.45765
     2021.01050        20.37533        13.05108
     2021.01295         8.81526         7.62737
     2021.01574        -0.63288        10.15179
     2021.01777       -22.25256        11.37468
     2021.03240         6.70243         8.76791
     2021.04150        16.59455        17.51615
     2021.04312         4.17325        13.61152
     2021.04534        -1.66204        10.85603
     2021.04851       -37.79344        56.17531
     2021.05229        21.06412        93.55506
     2021.05419        -2.07711        11.66227
     2021.05809        14.25609        38.30643
     2021.05861         1.45940        13.85609
     2021.11229        -8.28983         9.95146
     2021.11390       -15.02709         8.55651
     2021.12619       -32.43844        54.32562
     2021.12668        18.15794       137.41425
     2021.13193       -37.49527        84.42827
     2021.13223       -10.10829        42.18157
     2021.13889       -15.19713        11.43982
     2021.16192        19.79226        26.75846
     2021.16253       -15.67574        18.39613
     2021.17027       -17.38416        23.88253
     2021.17158       -25.91545        10.79704
     2021.17559        15.28240        14.95485
     2021.17614        -2.58439        24.68508
     2021.18399        16.11583        26.23981
     2021.18431        -7.37023        23.73013
     2021.19029        -4.80384        11.06988
     2021.20845        -6.34046        25.07469
     2021.21015         0.38395         9.01248
     2021.21264        -5.84324         7.84490
     2021.21847         8.62963        51.36734
     2021.22556       -25.34463        17.95614
     2021.22930        -7.29691        10.56721
     2021.23718        -6.41478         8.29350
     2021.24660         3.96530        12.42796
     2021.24846        -3.88579        12.33210
     2021.25119        -4.01378         7.22793
     2021.25352       -17.87341         8.93874
     2021.28515       -29.59323        34.50381
     2021.28668       -15.95227         8.51841
     2021.28976       -10.68436         9.23740
     2021.29226       -16.59458         7.49094
     2021.29500       -16.63157         7.21564
     2021.29774       -21.39756         7.42949
     2021.30047       -12.78955         7.33731
     2021.30321       -17.96053         7.41106
     2021.30595       -11.23052         7.42458
     2021.30869        -6.58851         7.53150
     2021.31143       -12.77549         7.25005
     2021.31416       -11.14248         7.33977
     2021.31690        -4.55047         7.25866
     2021.31964       -13.84646         7.55485
     2021.32238       -12.67944         7.51061
     2021.32512       -10.96943         7.36804
     2021.32785       -10.47942         7.42212
     2021.33059        -8.88940         7.39631
     2021.33333       -10.61239         7.20827
     2021.33607       -11.50738         7.36435
     2021.33880       -15.06837         7.28201
     2021.34154       -17.75635         7.25743
     2021.34428       -13.65734         7.47619
     2021.34702       -20.08633         7.33731
     2021.34976       -12.60031         7.30782
     2021.35249       -15.16830         7.17631
     2021.35523       -15.78529         7.13329
     2021.35797       -12.99228         7.08905
     2021.36071       -19.83926         7.39631
     2021.36344       -20.26225         7.26603
     2021.36618       -20.65024         7.22301
     2021.36892       -11.27822         7.22916
     2021.37166       -10.71121         7.34223
     2021.37440       -18.62720         7.32748
     2021.37713       -12.62419         7.22301
     2021.37987        -5.47417         7.44793
     2021.38261       -18.65216         7.78345
     2021.38535       -22.46715         7.67776
     2021.38809       -16.97913         7.48111
     2021.39082       -20.24812         7.28692
     2021.39356        -6.70511         7.49217
     2021.39630       -12.63710         7.28938
     2021.39904        -3.87108         7.40860
     2021.40177         2.56793         7.35329
     2021.40451        -8.16606         7.47005
     2021.40725       -15.33505         7.61630
     2021.40999        -5.94103         7.23899
     2021.41273        -8.06602         7.41843
     2021.41546        -5.94201         7.43564
     2021.41820       -16.44499         7.44793
     2021.42094       -12.58098         7.63597
     2021.42368        -1.96097         7.42212
     2021.42642        -3.37796         7.31519
     2021.42915        -3.60794         7.32134
     2021.43189        -3.92793         7.51675
     2021.43463        -6.94992         7.66915
     2021.43737        -3.92190         7.65563
     2021.44010        -9.93289         7.54502
     2021.44284       -12.65388         7.71463
     2021.44558        -5.15287         7.57820
     2021.44832       -11.72585         7.60893
     2021.45106        -8.22784         7.82770
     2021.45379        -9.50383         7.60524
     2021.45653        -0.73181         7.65932
     2021.45927        -4.92680         7.46636
     2021.46201        -5.51879         7.49463
     2021.46475       -15.55878         7.56100
     2021.46748        -8.73576         7.65563
     2021.47022        -5.16575         7.93462
     2021.47296        -5.95474         7.75518
     2021.47570        -2.70772         7.57575
     2021.47843        -2.18171         7.59664
     2021.48117       -15.28870         8.04401
     2021.48391        -6.35969         7.83138
     2021.48665        -7.48467         7.62122
     2021.48939        -3.52566         7.50938
     2021.49212        -5.58165         7.68267
     2021.49486        -5.22463         7.91619
     2021.49760         1.71938         8.03663
     2021.50034        -4.80861         7.58681
     2021.50308        -5.47960         7.49340
     2021.50581       -26.06358         7.70971
     2021.50855       -13.11957         7.64826
     2021.51129        -1.81056         7.65563
     2021.51403       -17.19454         7.77977
     2021.51676         6.79047         7.73060
     2021.51950        -9.00752         7.85105
     2021.52224        -0.83851         7.71463
     2021.52498        -8.62949         7.56100
     2021.52772         2.01852         7.69373
     2021.53045        -0.37847         7.49709
     2021.53319        -3.31846         7.49217
     2021.53593        -5.75944         7.90267
     2021.53867         4.10857         8.09194
     2021.54141         7.37358         7.80435
     2021.54414         0.07960         7.74535
     2021.54688         0.13461         7.45776
     2021.54962         0.27362         7.57698
     2021.55236         8.66463         7.63474
     2021.55509         2.90765         7.75273
     2021.55783         0.92166         7.64334
     2021.56057         5.36367         7.58066
     2021.56331         1.62969         7.59787
     2021.56605        -5.35230         7.63228
     2021.56878        -2.71329         7.56591
     2021.57152        -1.16128         7.56960
     2021.57426         3.91374         7.60893
     2021.57700        -3.80525         7.79697
     2021.57974        -5.31724         7.57329
     2021.58247        -1.16722         7.67407
     2021.58521         2.69679         8.08211
     2021.58795        -2.33320         7.54994
     2021.59069         4.86981         7.72937
     2021.59342         3.71583         7.79083
     2021.59616        -4.46316         7.72692
     2021.59890        -3.60115         7.49463
     2021.60164         2.36987         7.47374
     2021.60438        15.23088         7.76502
     2021.60711        17.29389         7.61999
     2021.60985         6.24290         7.59787
     2021.61259         1.00392         7.53027
     2021.61533        -1.77307         7.61385
     2021.61807         0.63194         8.04892
     2021.62080        -2.55804         8.19026
     2021.62354        -1.76903         7.51921
     2021.62628        -4.28502         7.50938
     2021.62902        10.16799         7.57452
     2021.63175         5.81701         7.69250
     2021.63449        -6.14798         7.52904
     2021.63723        -0.96297         8.12144
     2021.63997         7.28404         7.79820
     2021.64271        -3.02994         7.77608
     2021.64544        -0.63793         7.52044
     2021.64818         5.68108         7.82155
     2021.65092         3.68110         7.72815
     2021.65366         2.49911         7.71708
     2021.65639        12.49112         7.87317
     2021.65913        10.99513         7.71463
     2021.66187         2.65115         7.55239
     2021.66461        -3.66184         7.51798
     2021.66735         1.64417         7.51798
     2021.67008         0.23319         7.71094
     2021.67282         3.95520         7.97764
     2021.67556        16.10521         8.32668
     2021.67830         8.31122         7.75273
     2021.68104         4.59524         7.55239
     2021.68377        12.99425         7.85228
     2021.68651        10.61426         7.55608
     2021.68925         0.85928         7.41474
     2021.69199         8.92929         7.65932
     2021.69472         7.22030         7.53765
     2021.69746         8.51031         7.40614
     2021.70020        18.63433         7.44793
     2021.70294         7.83134         7.67161
     2021.70568         7.49035         7.47251
     2021.70841         2.95837         7.62737
     2021.71115        13.76838         7.55608
     2021.71389        13.30839         7.53150
     2021.71663         9.50440         7.51552
     2021.71937         5.64142         7.41474
     2021.72210         7.20643         7.55977
     2021.72484        -3.97056         7.69005
     2021.72758         6.91346         7.50692
     2021.73032         3.31647         7.88300
     2021.73305         9.01348         7.41351
     2021.73579        18.04249         7.64088
     2021.73853         9.75951         7.59787
     2021.74127        13.01152         7.55239
     2021.74401         5.22753         7.56591
     2021.74674        16.96655         7.53642
     2021.74948        11.32456         7.54256
     2021.75222         5.45157         7.66178
     2021.75496         3.68958         7.69005
     2021.75770         6.99960         7.45653
     2021.76043         2.08761         7.36927
     2021.76317        -1.42238         7.35329
     2021.76591         1.79163         7.46759
     2021.76865        10.77765         7.50569
     2021.77138         7.69366         7.64088
     2021.77412        14.67767         7.43564
     2021.77686        11.94469         7.45776
     2021.77960         6.94570         7.69619
     2021.78234         9.83971         7.48971
     2021.78507        15.67172         7.46513
     2021.78781        10.85174         7.54871
     2021.79055        12.25475         7.42089
     2021.79329         8.95676         7.47988
     2021.79603         3.64678         7.50815
     2021.79876        10.57879         7.45530
     2021.80150        18.93080         7.47865
     2021.80424        11.32981         7.67161
     2021.80698        16.52183         7.55731
     2021.80971        12.60284         7.52290
     2021.81245        14.30285         7.67038
     2021.81519        16.78487         7.39999
     2021.81793        19.58688         7.57452
     2021.82067        18.68389         7.74044
     2021.82340        15.79090         7.41597
     2021.82614         6.08392         7.48971
     2021.82888         6.35393         7.31150
     2021.83162         9.89394         7.44424
     2021.83436         8.37296         7.40491
     2021.83709        11.70097         7.51798
     2021.83983        10.08098         7.56714
     2021.84257         2.84499         7.63597
     2021.84531         3.84901         7.38033
     2021.84804        15.93302         7.37910
     2021.85078        12.71303         7.36681
     2021.85352         7.00305         7.37541
     2021.85626         7.77406         7.44793
     2021.85900         2.95307         7.42949
     2021.86173         5.02708         7.43809
     2021.86447        14.19710         7.56223
     2021.86721         7.55411         7.70234
     2021.86995        17.05012         7.74167
     2021.87269         7.05913         7.50569
     2021.87542        10.15915         7.52413
     2021.87816         5.57116         7.32871
     2021.88090         9.31517         7.36067
     2021.88364         4.17719         7.38648
     2021.88637         4.01720         7.44547
     2021.88911        -0.00879         7.49463
     2021.89185       -15.72178         7.80066
     2021.89459         2.08924         7.50078
     2021.89733         0.34225         7.47374
     2021.90006         1.11026         7.56714
     2021.90280         6.95828         7.39754
     2021.90554       -10.96871         7.29061
     2021.90828        15.79530         7.45530
     2021.91102        -4.65269         7.49586
     2021.91375        -2.09867         7.40491
     2021.91649         3.78834         7.54502
     2021.91923         9.23735         7.52167
     2021.92197        -8.65763         7.71340
     2021.92470        -7.00962         7.31396
     2021.92744       -10.41861         7.28447
     2021.93018        -6.43060         7.15296
     2021.93292        -8.11258         7.37664
     2021.93566        -8.26457         7.75150
     2021.93839         6.46544         7.55977
     2021.94113         4.04446         8.19395
     2021.94387        25.21247         7.41966
     2021.94661        -2.59252         7.25866
     2021.94935        -7.52051         7.16648
     2021.95208        -9.20049         7.07430
     2021.95482       -11.91648         7.08536
     2021.95756       -14.49347         7.16525
     2021.96030       -15.96845         7.04112
     2022.17659        -4.84744         7.25374
     2022.17932        -7.38643         7.41843
     2022.18206       -16.36242         7.31150
     2022.18480        -9.73640         7.32871
     2022.18754        -1.33739         7.42335
     2022.19028       -15.32238         7.39631
     2022.19301         1.19364         7.42089
     2022.19575        -0.91035         7.51675
     2022.19849        -1.46834         7.44670
     2022.20123         5.14867         7.43318
     2022.20397         3.57669         7.44670
     2022.20670        -6.36830         7.70111
     2022.20944         3.99571         7.62491
     2022.21218        -1.64627         7.36435
     2022.21492       -13.02026         7.42089
     2022.21765       -17.99625         7.43072
     2022.22039        -8.34824         7.48603
     2022.22313       -23.11622         7.63720
     2022.22587       -18.74621         7.58435
     2022.22861        -8.62920         7.39999
     2022.23134        -7.06519         7.28324
     2022.23408         0.20183         7.37296
     2022.23682       -12.79716         7.54748
     2022.23956       -16.59815         7.50323
     2022.24230       -14.90613         7.38893
     2022.24503       -10.33612         7.31519
     2022.24777        -7.37511         7.30536
     2022.25051       -10.18810         7.39754
     2022.25325       -10.30208         7.41843
     2022.25598        -1.93307         7.37173
     2022.25872        -7.42506         7.35944
     2022.26146       -13.78804         7.26726
     2022.26420       -12.73303         7.68144
     2022.26694       -38.23902         7.99362
     2022.26967       -15.91001         7.45284
     2022.27241        -7.39999         7.44178
     2022.27515        -9.48498         7.45284
     2022.27789        -3.61897         7.43318
     2022.28062       -12.57195         7.33240
     2022.28336        -9.66094         7.50569
     2022.28610       -15.33893         7.59664
     2022.28884        -9.77092         7.51429
     2022.29158       -14.68590         7.31273
     2022.29431        -8.81289         7.35329
     2022.29705        -8.01188         7.37787
     2022.29979        -4.07686         7.35575
     2022.30253        -1.04585         7.62859
     2022.30527       -13.16984         7.50692
     2022.30800        -9.85983         7.31396
     2022.31074        -7.10881         7.50078
     2022.31348        -4.76280         7.48603
     2022.31622       -15.98179         7.34100
     2022.31895       -20.81877         7.48480
     2022.32169       -14.99476         7.50200
     2022.32443        -8.74875         7.39877
     2022.32717       -17.74874         7.46636
     2022.32991        -7.96872         7.40245
     2022.33264       -18.98371         7.50446
     2022.33538       -16.04670         7.74412
     2022.33812        -4.03968         7.64949
     2022.34086       -15.39967         7.51184
     2022.34360        -8.80766         7.35329
     2022.34633       -13.97065         7.35083
     2022.34907       -11.12563         7.38033
     2022.35181       -14.72062         7.32379
     2022.35455        -9.12361         7.56223
     2022.35728        -9.16560         7.44424
     2022.36002        -8.77358         7.43932
     2022.36276       -16.38057         7.36927
     2022.36550        -7.14656         7.33486
     2022.36824        -7.75154         7.39385
     2022.37097       -12.78353         7.55731
     2022.37371        -9.61952         7.46636
     2022.37645       -14.69851         7.42089
     2022.37919        -8.13149         7.63597
     2022.38193       -19.87748         7.73429
     2022.38466       -18.60247         7.49709
     2022.38740       -28.42245         7.44178
     2022.39014       -17.46544         7.54994
     2022.39288       -17.30243         7.48726
     2022.39561       -12.80642         7.37787
     2022.39835       -16.59640         7.74781
     2022.40109       -12.24639         7.88792
     2022.40383        -3.24538         7.59910
     2022.40657       -10.08536         7.55731
     2022.40930       -10.65435         7.78960
     2022.41204        -7.15734         7.87686
     2022.41478        -4.92333         7.77116
     2022.41752       -10.78931         7.92971
     2022.42026       -18.35530         7.70602
     2022.42299        -8.82029         7.74044
     2022.42573       -10.18227         7.61139
     2022.42847        -1.60926         7.58558
     2022.43121        -7.74525         7.68636
     2022.43394         3.02476         8.13618
     2022.43668        -8.59922         7.82401
     2022.43942        -7.85221         7.69005
     2022.44216        -2.84520         7.76256
     2022.44490         4.82282         7.92971
     2022.44763         6.27383         7.60647
     2022.45037        -3.03416         7.57329
     2022.45311       -11.59815         7.57820
     2022.45585        -0.24013         7.61262
     2022.45859       -26.26412         7.82524
     2022.46132        -6.33911         7.60033
     2022.46406        -5.44409         7.69127
     2022.46680        -0.94608         7.57329
     2022.46954         5.98693         7.75518
     2022.47227       -15.20706         7.59910
     2022.47501         4.42096         7.55117
     2022.47775       -12.78003         7.93216
     2022.48049        -7.65602         7.83753
     2022.48323         0.93799         7.67898
     2022.48596         7.57701         7.56714
     2022.48870         4.92902         7.80189
     2022.49144        -2.51997         7.74535
     2022.49418        -4.41495         7.86826
     2022.49692         9.70006         7.67653
     2022.49965        -3.21493         7.83999
     2022.50239       -20.73092         7.77731
     2022.50513        -1.50990         8.05876
     2022.50787        17.92811         8.05753
     2022.51060        -4.22688         7.73060
     2022.51334       -12.04586         7.89407
     2022.51608       -10.05785         7.56960
     2022.51882       -12.54184         7.65809
     2022.52156        -2.31583         7.71463
     2022.52429         9.22119         8.00714
     2022.52703        -3.39980         7.68513
     2022.52977        12.28421         7.61753
     2022.53251        -4.81377         7.80926
     2022.53525        -1.10776         7.85351
     2022.53798        -3.01775         7.67284
     2022.54072        -7.12474         7.77116
     2022.54346        -0.78572         7.99976
     2022.54620       -10.53471         7.92602
     2022.54893         3.54830         7.79697
     2022.55167         0.28332         7.77485
     2022.55441         4.49233         7.69127
     2022.55715        16.10934         7.80926
     2022.55989         7.17835         7.88055
     2022.56262        -5.19763         7.88669
     2022.56810        -8.61761         7.74658
     2022.57084         3.63241         7.80803
     2022.57357         3.55242         8.16322
     2022.57631       -12.39457         7.77362
     2022.57905       -16.41456         7.78960
     2022.58179         7.62246         7.92725
     2022.58453         7.86547         8.20009
     2022.58726        -5.27152         7.97149
     2022.59000         4.28249         7.80557
     2022.59274        -7.37649         7.69865
     2022.59548        -2.99748         7.90513
     2022.59822       -12.95547         7.90267
     2022.60095        -8.28045         8.05876
     2022.60369        -9.29044         7.69865
     2022.60643        -3.36543         7.70971
     2022.60917        11.54758         7.93585
     2022.61190         8.29760         8.05015
     2022.61464        15.34361         7.80189
     2022.61738        17.82362         7.88055
     2022.62012         3.14964         7.92233
     2022.62286         3.64865         7.72569
     2022.62559         1.39366         7.77608
     2022.62833         4.80067         7.80803
     2022.63107        15.71469         8.05261
     2022.63381         9.40970         7.82770
     2022.63655         1.12471         7.58681
     2022.63928         5.02773         7.66055
     2022.64202         3.82074         8.22099
     2022.64476         1.71675         8.10792
     2022.64750        11.71276         7.80803
     2022.65023        14.61778         7.89529
     2022.65297        16.46379         7.60770
     2022.65571        17.29380         7.78099
     2022.65845        22.50182         7.66424
     2022.66119        19.98183         8.22590
     2022.66392        10.61784         7.77485
     2022.66666        -1.88115         7.90636
     2022.66940         5.10487         7.74658
     2022.67214        16.21088         7.62491
     2022.67488        17.52489         7.88177
     2022.67761        12.90691         8.08579
     2022.68035        12.06292         7.71586
     2022.68309         9.73193         7.51921
     2022.68583         5.61094         7.96781
     2022.68856         4.86196         7.81418
     2022.69130        11.92897         7.73675
     2022.69404        17.41398         8.00222
     2022.69678        11.68300         7.66178
     2022.69952        -2.82999         7.66178
     2022.70225         6.06702         7.97641
     2022.70499         5.35403         7.92725
     2022.70773         7.94705         7.84613
     2022.71047        10.30406         7.64334
     2022.71321        15.54707         7.52167
     2022.71594        12.95108         7.67776
     2022.71868         6.89710         7.56960
     2022.72142        13.80211         7.55485
     2022.72416         6.04512         7.70234
     2022.72689        16.42414         7.71708
     2022.72963        16.22615         7.63351
     2022.73237        16.35316         7.67284
     2022.73511        10.52817         7.66792
     2022.73785        13.42819         7.69250
     2022.74058         9.77720         7.87194
     2022.74332        21.01421         7.79574
     2022.74606        15.06923         7.77485
     2022.74880        11.43424         7.58066
