# ================= DQRFIT RESULTS ================
# INPUT FILE: series/KUMI.rad
# OUTPUT: LDETRENDED
# FILTER FUNCTION: f(t)
# f(t)=+line(t)
# line(t)=+P 1+P 2*t
# heav(t)=(t<0?0:1)
# TOTAL OBSERVATIONS MTOT=  514
# INITIAL TIME INTERVAL= 2018.3515 - 2006.6147 = 11.7369
# TOTAL OBSERVATIONS AFTER PREFILTER M=  514
# TIME-SPAN=    0.0000 -    0.0000 =  0.0000
# OBSERVATIONS: USED M=   514 REJECTED MTOT-M=     0 %USED=  100.0000
# N=  2 PARAMETERS
# MAXSIG= 175.00000
# MAXRES=  19.08159
# SCALE FACTOR FOR LENGTHS: SCL=  10.00000
# SCALE FACTOR FOR SIGMAS: SCLSIG=   1.00000
# CHI^2=    912.495 DOF=   512 CHI^2/DOF=   1.78222
# RMS=      7.684 SDEV=      7.692 MEAN=    0.03032
#  P #       PARAMETER +-    SIGMA %error PARAMETER NAME
# P 1 =      1500.24538 +-  151.939  10.13 YZERO                              
# P 2 =        -0.74335 +-    0.075  10.15 SLOPE                              
#       T            LDETRENDED       SIG_OBS
     2006.61465        -9.54002         7.67089
     2006.61739        -7.27699         7.81240
     2006.62013       -10.95195         7.88449
     2006.62287       -11.28092         7.79905
     2006.62560        -9.66788         7.75366
     2006.62834        -5.67385         7.84311
     2006.63108       -13.80181         7.63084
     2006.63382        -9.57478         7.65754
     2006.63656       -10.59374         7.80573
     2006.63929        -9.73471         7.78570
     2006.64203        -7.76067         7.80172
     2006.64477        -6.28564         7.78437
     2006.64751        -3.86060         7.95792
     2006.65024        -7.24057         8.06739
     2006.65298       -11.10453         8.05537
     2006.65572       -12.01850         8.19154
     2006.65846        -6.58046         8.16751
     2006.66120        -4.61843         8.14348
     2006.66393        -7.67539         8.13547
     2006.66667       -11.18436         8.13547
     2006.66941       -13.91432         8.16084
     2006.67215       -10.85729         8.16217
     2006.67488       -13.11325         8.33439
     2006.67762       -10.52822         8.42650
     2006.68036       -12.92818         8.24361
     2006.68310        -7.05715         8.46789
     2006.68584        -7.26611         8.44252
     2006.68857        -9.05707         7.96593
     2006.69131        -8.05804         7.93122
     2006.69405        -8.81600         7.92321
     2006.69679        -7.55997         7.87248
     2006.69953        -4.34593         7.93789
     2006.70226        -1.00690         8.37177
     2006.70500        -5.19986         8.12346
     2006.70774        -1.45583         7.71495
     2006.71048        -3.05779         7.72563
     2006.71321        -4.23576         7.75633
     2006.71595        -1.08972         8.03802
     2006.71869        -9.26469         7.83109
     2006.72143         2.87535         8.19154
     2006.72417         7.81538         8.14882
     2006.72690        -3.67458         7.86046
     2006.72964        -3.65255         7.94991
     2006.73238        -5.03251         7.78437
     2006.73512        -7.92948         7.76701
     2006.73786        -7.35244         7.70827
     2006.74059        -3.59141         7.76701
     2006.74333        -0.54137         7.80306
     2006.74607        -0.80534         7.87515
     2006.74881        -4.96230         7.88182
     2006.75154        -8.57427         8.15950
     2006.75428        -4.55123         8.01799
     2006.75702        -7.83220         7.93522
     2006.75976        -8.12416         7.84177
     2006.76250        -6.58312         7.89384
     2006.76523        -9.56209         7.94724
     2006.76797       -10.47405         7.95525
     2006.77071        -7.06802         7.79638
     2006.77345        -2.75198         7.76301
     2006.77619        -2.97595         7.83777
     2007.25805        -4.16276         7.76301
     2007.26079        -0.87972         7.80306
     2007.26352        -1.82669         7.61616
     2007.26626         7.57035         7.57210
     2007.26900         7.44238         7.84311
     2007.27174         8.65842         7.66555
     2007.27447         3.26845         7.65888
     2007.27721        -2.21251         7.56676
     2007.27995         3.80052         7.50402
     2007.28269         4.92956         7.57878
     2007.28543         1.81459         7.55608
     2007.28816         3.55563         7.57344
     2007.29090         4.72167         7.66155
     2007.29364         3.37670         7.62550
     2007.29638         2.46674         7.57077
     2007.29911        -0.35223         7.67757
     2007.30185         1.82781         7.56276
     2007.30459        -5.63616         7.57344
     2007.30733        -2.29812         7.63351
     2007.31007        -9.99209         7.75233
     2007.31280        -0.16205         7.66155
     2007.31554         0.21998         7.59346
     2007.31828        -2.10098         7.61349
     2007.32102        -3.16895         7.58011
     2007.32376        -9.07091         7.49734
     2007.32649        -3.97988         7.58145
     2007.32923         0.52416         7.54140
     2007.33197        -8.88881         7.92721
     2007.33471        -4.19577         7.80306
     2007.33744        -4.31274         7.55742
     2007.34018        -1.53270         7.61215
     2007.34292        -7.22567         7.56676
     2007.34566        -9.73063         7.58412
     2007.34840        -7.54660         7.60014
     2007.35113        -9.76656         7.64953
     2007.35387        -6.99853         8.14749
     2007.35661       -12.92249         8.11678
     2007.35935        -3.31146         7.65087
     2007.36209        -1.95442         7.60014
     2007.36482        -6.38838         7.68558
     2007.36756        -3.76635         7.54140
     2007.37000        -2.41153         8.51595
     2007.89049         7.52037         7.68424
     2007.89323        11.72141         7.77235
     2007.89597        11.73044         7.75633
     2007.89870        11.66748         7.65487
     2007.90144         8.07951         7.68424
     2007.90418        12.38255         7.74699
     2007.90692        10.09158         7.73364
     2007.90966         8.68162         7.77903
     2007.91239        13.17865         7.66822
     2007.91513        15.19869         7.75900
     2007.91787         9.46772         7.78170
     2007.92061        -1.24824         7.92588
     2007.92334        -4.17921         8.03001
     2007.92608        10.15183         7.81107
     2007.92882        11.31886         7.81374
     2007.93156         8.78090         7.76835
     2007.93703         7.94797         7.88716
     2007.93977         6.11200         7.79905
     2007.94251        10.44504         7.82976
     2007.94525        11.13207         8.02333
     2007.95072         9.40614         9.31561
     2007.95894        15.47925         7.90852
     2007.97536         4.69246         7.91787
     2007.98358         8.91857         7.75633
     2007.98632         9.93660         8.59605
     2008.00000        -0.51722         7.72162
     2008.00274         1.20581         7.66155
     2008.01643        16.88499         8.80431
     2008.04381         4.52434         8.45587
     2008.04655         3.79638         8.32905
     2008.04929         4.80741         8.39313
     2008.06024         7.34155         8.61340
     2008.07666        11.27876         8.86305
     2008.08214        14.43483         8.70552
     2008.44080        -5.69956         7.89117
     2008.44354        -0.44352         7.60948
     2008.44627         1.91451         7.64286
     2008.44901         4.49955         7.57611
     2008.45175         1.13258         7.70427
     2008.45449         6.12162         7.69092
     2008.45723         2.81565         7.61482
     2008.45996         1.34969         7.68157
     2008.46270         7.31672         7.70694
     2008.46544        -2.68024         7.62016
     2008.46818        -1.18621         7.60548
     2008.47092        -0.68617         7.70026
     2008.47365         0.55786         7.71361
     2008.47639         5.70990         7.54273
     2008.47913         6.07793         7.52805
     2008.48187         4.75897         7.61883
     2008.48460         7.39900         7.72296
     2008.48734         2.47504         7.60548
     2008.49008         1.92907         7.64286
     2008.49282         2.74811         7.61749
     2008.49556         0.29315         7.64286
     2008.49829         4.96718         7.70160
     2008.50103         3.32722         7.67623
     2008.50377         4.58425         7.64686
     2008.50651         5.88629         7.60414
     2008.50924        -0.45068         7.71628
     2008.51198         3.81636         7.65087
     2008.51472         3.76339         7.57878
     2008.51746         2.83543         7.65087
     2008.52020         3.97946         7.57210
     2008.52293         4.43850         7.73631
     2008.52567         7.45353         7.80706
     2008.52841         8.93157         7.55875
     2008.53115         6.24860         7.63752
     2008.53389         7.08764         7.63618
     2009.36619        -8.30967         7.73764
     2009.36893        -5.80463         7.76167
     2009.37167       -11.73060         7.65354
     2009.37441       -11.70656         7.72696
     2009.37714       -18.19453         7.70160
     2009.37988       -13.38149         7.96860
     2009.38262        -0.15646         7.70427
     2009.38536        -7.72542         7.67089
     2009.38810       -11.20939         7.56142
     2009.39083       -12.85035         7.54140
     2009.39357        -5.98432         7.85512
     2009.39631       -10.34428         7.79238
     2009.39905        -5.98724         7.71628
     2009.40178        -5.82121         7.62150
     2009.40452        -5.81217         7.60414
     2009.40726        -9.18914         7.71762
     2009.41000        -9.91210         7.74565
     2009.41274       -11.52507         7.78170
     2009.41547        -6.86103         7.72696
     2009.41821        -7.06800         7.71762
     2009.42095        -9.60096         7.65487
     2009.42369        -0.05693         7.76968
     2009.42643        -8.19989         7.70293
     2009.42916        -7.86786         7.73097
     2009.43190        -8.38682         7.66555
     2009.43464        -0.04979         7.74432
     2009.43738         2.54225         7.66956
     2009.44011         0.48228         7.63218
     2009.44285        -8.44568         7.69225
     2009.44559        -7.12665         7.56543
     2009.44833        -4.70561         7.56810
     2009.45107        -5.01058         7.65754
     2009.45380        -4.13454         7.73097
     2009.45654        -1.28251         7.58011
     2009.45928        -3.90947         7.62684
     2009.46202        -4.53744         7.71094
     2009.46475        -0.13740         7.75767
     2009.46749        -9.39237         7.91119
     2009.47023        -1.36933         7.68424
     2009.47297        -4.49929         7.61215
     2009.47571        -7.19926         7.55875
     2010.30254        -1.39063         7.78170
     2010.30528        -3.20660         7.77903
     2010.30801         1.78544         7.64953
     2010.31075        -1.96653         7.70026
     2010.31349        -2.88749         7.64419
     2010.31623         3.47854         7.63351
     2010.32170        14.30761         9.05395
     2010.32444         1.77465         9.18478
     2010.32718         3.80068         9.12737
     2012.12321         9.45776         7.44661
     2012.12595         0.88180         7.51069
     2012.12868         0.16883         7.50802
     2012.13142        -1.52313         7.71495
     2012.13416         6.26590         7.47465
     2012.13690         5.56294         7.49067
     2012.13964         3.74397         7.62016
     2012.14237         4.81301         7.71895
     2012.14511        13.68204         7.80840
     2012.14785         0.06008         7.41591
     2012.15059        10.83811         7.51069
     2012.15332         2.66715         7.40389
     2012.15606         5.86518         7.51870
     2012.15880         4.35422         7.52538
     2012.16154        17.62425         7.45329
     2012.16428         2.16629         7.65888
     2012.16701         3.09932         7.54807
     2012.16975        -1.19364         7.36918
     2012.17249        -0.38261         7.36384
     2012.17523         2.56743         7.41858
     2012.17797         7.62046         7.60014
     2012.18070         4.84450         7.43460
     2012.18344        -0.00446         7.43193
     2012.18618        -1.11043         7.36384
     2012.18892         2.14761         7.40656
     2012.19165        12.75864         7.58545
     2012.19439         0.62668         7.54140
     2012.19713        10.43271         7.64686
     2012.19987         8.46575         7.45329
     2012.20261         4.06378         7.48533
     2012.20534         5.65582         7.56409
     2012.20808         8.81785         7.53606
     2012.21082         9.70589         7.46263
     2012.21356         5.58292         7.37986
     2012.21629         0.81396         7.45462
     2012.21903        -2.52601         7.52004
     2012.22177         3.32103         7.59613
     2013.62355         3.94604         7.44928
     2013.62629         6.82908         7.51603
     2013.62903         0.06311         7.40122
     2013.63176         7.93815         7.45863
     2013.63450         5.15218         7.65888
     2013.63724         6.08922         7.84578
     2013.63998         5.52425         7.65621
     2013.64272         3.17229         7.41457
     2013.67283         9.70167         7.65087
     2013.67557         3.44071         7.70026
     2013.67831         2.40874         7.58278
     2013.68105         6.64478         7.52004
     2013.70569        11.49110         7.56009
     2013.70842         6.32713         7.49734
     2013.71116         7.35017         7.53472
     2013.71390         8.79820         7.51603
     2013.74402        19.08159         7.66021
     2015.48255        10.25193         7.73764
     2015.48529         0.30996         7.56676
     2015.48803         5.46800         7.57744
     2015.49076        -0.80097         7.51336
     2015.49350         9.17407         7.70293
     2015.49624         8.08811         7.70560
     2015.49898         4.77314         7.84444
     2015.50172         9.38318         7.64286
     2015.50445        12.72421         7.77235
     2015.50719         3.17725         7.52137
     2015.50993         7.74428         7.70694
     2015.51267         8.11932         7.74966
     2015.51541        -4.53165         7.61482
     2015.51814         1.87239         7.60414
     2015.52088        11.68242         7.47865
     2015.52362         7.73346         7.66822
     2015.52636         3.43049         7.59346
     2015.52909        11.52553         7.55341
     2015.53183        12.21956         7.49734
     2015.53457         7.82060         7.52805
     2015.53731         6.84463         7.50669
     2015.54005         9.18667         7.77636
     2015.54278        16.17670         7.97394
     2015.54552        12.60874         7.78704
     2015.54826         6.14277         7.64553
     2015.55100        14.28081         7.69359
     2015.55374        10.00584         7.66422
     2015.55647        17.87988         7.84845
     2015.55921         9.85991         7.65220
     2015.56195        11.12395         7.66155
     2015.56469        11.48598         7.65888
     2015.56742         7.37502         7.64953
     2015.57016        13.11606         7.90585
     2015.57290         7.07909         7.97527
     2015.57564         9.59913         7.58679
     2015.57838         8.05816         7.60815
     2015.58111        11.00520         7.61883
     2015.58385         6.01423         7.69893
     2015.58659         8.20127         7.76034
     2015.58933        -0.78070         7.79238
     2015.59206         5.88534         7.83376
     2015.59480        15.35937         7.76434
     2015.59754         9.46441         7.74031
     2015.60028        10.58244         7.79371
     2015.60302        10.42348         7.97794
     2015.60575        13.63551         7.70694
     2015.60849        11.83655         7.62016
     2015.61123         8.47358         7.62016
     2015.61397         5.87362         7.68958
     2015.61671         6.30065         7.67757
     2015.61944         8.87569         7.55875
     2015.62218        12.05972         7.49601
     2015.62492        11.02476         7.48132
     2015.62766         9.52979         7.41591
     2015.63039        10.13383         7.45996
     2015.63313         4.74886         7.54941
     2015.63587        12.34190         7.64553
     2015.63861         5.80293         7.52671
     2015.64135         6.15397         7.53606
     2015.64408         3.44800         7.49601
     2015.64682         9.96704         7.64152
     2015.64956         6.30808         7.52271
     2015.65230         5.08011         7.50135
     2015.65504        13.49815         7.54941
     2015.65777        17.92818         7.71228
     2015.66051         4.38522         7.82308
     2015.66325        12.80225         7.46931
     2015.66599        10.12929         7.62016
     2015.66872         7.25832         7.67356
     2015.67146         9.79836         7.58145
     2015.67420         8.91839         7.55742
     2015.67694        12.05643         7.43326
     2015.67968         7.34446         7.46797
     2015.68241         6.94550         7.48266
     2015.68515         6.59253         7.48800
     2015.68789         8.23757         7.54407
     2015.69063         8.00360         7.50535
     2015.69337         4.03464         7.77102
     2015.69610         8.26667         7.50001
     2015.69884        14.53371         7.51470
     2015.70158        13.43474         7.55475
     2015.70432         3.16278         7.57744
     2015.70705        11.72681         7.55074
     2015.70979        13.40385         7.54407
     2015.71253         4.12588         7.48399
     2015.71527         5.84092         7.57611
     2015.71801         7.72895         7.51470
     2015.72074        10.52999         7.45729
     2015.72348        10.34403         7.59079
     2015.72622         3.23006         7.53072
     2015.72896         1.29210         7.54807
     2015.73170         6.90713         7.56543
     2015.73443         6.27017         7.59480
     2015.73717        12.54720         7.53339
     2015.73991        10.61024         7.69626
     2017.89186        -5.36511         7.33314
     2017.89460         1.30192         7.35183
     2017.89734        -5.03004         7.52538
     2017.90007        -1.12401         7.41591
     2017.90281        10.00803         7.40256
     2017.90555        -0.95893         7.49200
     2017.90829         2.43110         7.39588
     2017.91102         3.50614         7.47999
     2017.91376         1.27617         7.49067
     2017.91650        -0.50079         7.33714
     2017.91924         2.83324         7.39321
     2017.92198         0.66128         7.35984
     2017.92471         2.08231         7.30110
     2017.92745        -3.90265         7.31845
     2017.93019        -4.20562         7.34782
     2017.93293        -3.84558         7.36651
     2017.93567        -4.13155         7.85379
     2017.93840        -4.10851         8.03134
     2017.94114        -1.78148         8.17018
     2017.94388        -0.72344         8.34774
     2017.94662        -3.04041         8.36376
     2017.94935        -2.60037         8.35708
     2017.95209         3.28766         8.44252
     2017.95483        -1.55230         8.43318
     2017.96304         2.03680         8.59204
     2017.98495        -7.19591         7.31979
     2017.99316        -3.22881         8.71086
     2018.00411        -9.17567         7.33047
     2018.00685        -4.62363         7.31445
     2018.01780        -3.08049         8.15149
     2018.03423        -4.10728         7.30110
     2018.03697        -6.74025         7.29042
     2018.03970        -6.54721         8.58270
     2018.04244        -4.72518         8.03001
     2018.04518        -5.57314         7.36384
     2018.05339        -0.49203         7.33581
     2018.05613        -3.35700         7.36251
     2018.05887        -8.87696         7.32513
     2018.06161        -4.57593         7.37986
     2018.06434        -1.42889         7.46797
     2018.06708        -5.69886         8.82700
     2018.06982        -5.72182         7.60147
     2018.07256        -6.79379         8.27965
     2018.07803       -12.94972         7.58679
     2018.08077       -11.01768         7.60548
     2018.08351        -3.48165         7.60548
     2018.08625       -11.11261         7.43593
     2018.08898       -11.03358         7.52137
     2018.09172        -7.85654         7.50001
     2018.09446        -8.52551         7.50001
     2018.09720        -3.89647         7.71895
     2018.09994        -5.48644         7.41057
     2018.10267       -11.91740         7.46397
     2018.10541        -8.77337         7.64953
     2018.10815        -3.98033         7.52004
     2018.11089         0.85970         7.50936
     2018.11363        -2.76926         7.50936
     2018.11636        -4.49423         7.46263
     2018.11910        -7.27819         7.60948
     2018.12184        -3.45216         7.64419
     2018.12458        -7.14812         7.47598
     2018.12731        -7.47509         7.46797
     2018.13005        -5.10105         7.46797
     2018.13279         7.16199         7.67089
     2018.13553        -5.58798         7.48399
     2018.13827        -1.47594         7.43593
     2018.14100        -5.43591         7.45462
     2018.14374        -4.32787         7.45863
     2018.14648        -6.44584         7.76301
     2018.14922        -1.09980         7.59213
     2018.15196        -1.86977         7.48533
     2018.15469        -1.85573         7.46797
     2018.15743        -6.46370         7.43059
     2018.16017        -7.26966         7.47331
     2018.16291       -11.55663         7.75633
     2018.16564       -10.38859         7.75633
     2018.16838        -6.91856         7.47732
     2018.17112        -3.21152         7.44394
     2018.17386        -7.71949         7.48399
     2018.17660        -7.21345         7.50268
     2018.17933        -6.72842         7.51737
     2018.18207         5.57162         7.80039
     2018.18481        -5.61835         7.60414
     2018.18755        -9.14031         7.55475
     2018.19029       -10.07228         7.47865
     2018.19302        -6.73924         7.47865
     2018.19576        -4.11821         7.54006
     2018.19850        -7.14317         7.47465
     2018.20124         4.41586         7.61215
     2018.20397        -6.82810         7.43593
     2018.20671       -24.80706         7.41591
     2018.20945        -6.15803         7.48399
     2018.21219        -5.44199         7.45996
     2018.21493       -13.23596         7.44795
     2018.21766        -6.53892         7.36251
     2018.22040       -14.74989         7.37853
     2018.22314       -12.21685         7.41858
     2018.22588       -13.73582         7.37586
     2018.22862       -10.94478         7.37719
     2018.23135        -6.61175         7.28775
     2018.23409        -7.47071         7.32780
     2018.23683        -9.72468         7.32780
     2018.23957        -9.23464         7.35183
     2018.24230        -4.76361         7.29042
     2018.24504        -2.92657         7.32379
     2018.24778        -2.62254         7.29576
     2018.25052        -7.14550         7.43460
     2018.25326        -8.21247         7.29309
     2018.25599        -9.06343         7.34248
     2018.25873       -10.07240         7.49734
     2018.26147       -15.71736         7.48399
     2018.26421        -4.98433         7.37319
     2018.26695        -8.37829         7.42258
     2018.26968        -9.10426         7.25437
     2018.27242        -9.26422         7.37452
     2018.27516         2.23581         7.57077
     2018.27790         7.80585         7.78036
     2018.28063        -5.90011         7.41591
     2018.28337        -4.89808         7.27573
     2018.28611        -2.00804         7.40656
     2018.28885         2.38099         7.42258
     2018.29159        -0.38897         7.52271
     2018.29432        -2.65894         7.40256
     2018.29706        -3.94790         7.20631
     2018.29980        -3.66587         7.24503
     2018.30254        -5.80083         7.26505
     2018.30528        -7.08780         7.25704
     2018.30801        -4.41676         7.24236
     2018.31075        -8.44573         7.20097
     2018.31349        -6.80669         7.21966
     2018.31623        -9.60666         7.25571
     2018.31896         1.99038         7.71628
     2018.32170        -7.25059         7.26906
     2018.32444         1.44145         7.29843
     2018.32718        -7.56052         7.27840
     2018.32992        -3.58148         7.47331
     2018.33265        -0.07845         7.27707
     2018.33539        -8.16541         7.51203
     2018.33813        -7.66238         7.52404
     2018.34087        -7.39434         7.33714
     2018.34361        -8.87131         7.33714
     2018.34634        -9.17627         7.28641
     2018.34908        -3.08324         7.24102
     2018.35152       -20.52542         8.45053
