# ================= DQRFIT RESULTS ================
# INPUT FILE: series/KWBU.rad
# OUTPUT: LDETRENDED
# FILTER FUNCTION: f(t)
# f(t)=+line(t)+annual(t)
# line(t)=+P 1+P 2*t
# annual(t)=+P 3*sin(2*pi*t+P 4)
# heav(t)=(t<0?0:1)
# TOTAL OBSERVATIONS MTOT= 3175
# INITIAL TIME INTERVAL= 2022.7488 - 2011.6303 = 11.1185
# TOTAL OBSERVATIONS AFTER PREFILTER M= 3167
# TIME-SPAN= 2022.7488 - 2011.6303 = 11.1185
# OBSERVATIONS: USED M=  3167 REJECTED MTOT-M=     8 %USED=   99.7480
# N=  4 PARAMETERS
# MAXSIG= 175.00000
# MAXRES=  34.56762
# SCALE FACTOR FOR LENGTHS: SCL=  10.00000
# SCALE FACTOR FOR SIGMAS: SCLSIG=   1.00000
# CHI^2=   4116.170 DOF=  3163 CHI^2/DOF=   1.30135
# RMS=      7.670 SDEV=      7.670 MEAN=    0.11279
#  P #       PARAMETER +-    SIGMA %error PARAMETER NAME
# P 1 =      2906.99849 +-   76.722   2.64 YZERO                              
# P 2 =        -1.44218 +-    0.038   2.64 SLOPE                              
# P 3 =         4.98389 +-    0.188   3.77 ANNUAL AMPLITUDE                   
# P 4 =        -3.10796 +-    0.053   1.71 ANNUAL PHASE                       
#       T            LDETRENDED       SIG_OBS
     2011.63034        -3.67366         7.10470
     2011.63312         1.64535         6.91191
     2011.63586         6.68730         6.87655
     2011.63860        14.47025         7.47088
     2011.64134         1.20220         7.23475
     2011.64407        -1.19285         7.02713
     2011.64681         4.73010         7.10356
     2011.64955        11.23105         7.26441
     2011.65229         4.23099         7.29863
     2011.65503         3.08694         6.96324
     2011.65776         5.13089         6.89480
     2011.65919        37.26294       123.10362
     2011.66324        10.64979         7.14805
     2011.66598        -0.61426         7.04082
     2011.66872         2.01968         7.23589
     2011.67145         3.73863         6.89480
     2011.67419         2.39558         6.97807
     2011.67693        14.64153         7.09557
     2011.67967         7.41348         7.20509
     2011.68240         3.93043         6.97009
     2011.68514         0.17438         6.93815
     2011.68788         4.97732         7.08987
     2011.69062         3.00227         7.20623
     2011.69336        -1.35078         7.11953
     2011.69609         4.45217         7.03739
     2011.69883         8.16112         7.07618
     2011.70157         8.57007         7.02484
     2011.70431        10.81001         6.96210
     2011.70705         3.33496         7.03625
     2011.70978         3.29291         7.02713
     2011.71252         1.31186         7.02599
     2011.71526        -1.76819         7.06591
     2011.71800         5.39976         7.00887
     2011.72073         4.19771         6.97921
     2011.72347        -1.92335         6.83548
     2011.72621         7.40060         6.91305
     2011.72895         8.03555         6.92218
     2011.73169        16.30750         7.01458
     2011.73442         2.08145         7.01686
     2011.73716         3.19540         7.06819
     2011.73990         6.85634         6.84118
     2011.74264        10.33229         6.85487
     2011.74538         9.31224         7.10584
     2011.74811        12.36919         7.00431
     2011.75085         5.38914         7.02370
     2011.75359         8.42009         6.97693
     2011.75633        24.21704         7.06591
     2011.75906        27.28898         7.14691
     2011.76180         4.24193         6.88453
     2011.76454         9.06388         6.96895
     2011.76728         6.43883         6.93358
     2011.77002         7.45678         7.07504
     2011.77275        14.99673         7.10470
     2011.77549        12.05767         7.10470
     2011.77823        -5.75338         6.97465
     2011.78097         3.25057         6.91761
     2011.78371         7.37152         7.01686
     2011.78644        21.51647         7.17200
     2011.78918        17.03942         7.14006
     2011.79192         0.76937         7.27467
     2011.87132         2.11087         6.76361
     2011.87405         1.62682         6.80810
     2011.87679        18.37877         6.85943
     2011.87953         2.84972         6.58679
     2011.88227        -2.84033         6.63812
     2011.88501         3.18261         6.68261
     2011.88774        -1.31144         6.81608
     2011.89048        11.38651         6.84460
     2011.89322        14.56446         7.06021
     2011.89596         3.10941         6.94499
     2011.89869        -0.83664         6.86286
     2011.90143         3.15630         6.83320
     2011.90417         3.37825         6.99747
     2011.90691         8.28520         6.82179
     2011.90958         1.11505         7.20280
     2011.91238         1.16810         7.00887
     2011.91512        -6.23795         6.89936
     2011.91786         5.64100         6.95526
     2011.92060        -7.25906         6.73053
     2011.92334        -6.98211         6.91533
     2011.92607        -4.06216         6.82749
     2011.92881        -2.39021         7.03625
     2011.93155         1.63374         6.99633
     2011.93429         1.97169         6.94043
     2011.93702         2.19163         6.77502
     2011.93976         4.66558         6.78528
     2011.94250         5.10253         6.78186
     2011.94524         5.54248         6.49439
     2011.94798         3.30643         6.76475
     2011.95071         7.59338         6.82407
     2011.95345        -0.98067         6.89138
     2011.95619         0.08227         6.99861
     2011.95893        -0.93178         7.00431
     2011.96167         0.76217         7.04310
     2011.96440         0.11312         6.82407
     2011.96714         2.22507         6.72825
     2011.96988         5.00302         6.61303
     2011.97262        -3.75704         6.72140
     2011.97535        -1.77009         6.94727
     2011.97809        -0.93514         7.03511
     2011.98083         3.06181         6.72710
     2011.98357         2.22876         6.66893
     2011.98631         6.96971         6.88795
     2011.98904        25.81366         7.20737
     2011.99178        18.95660         7.07390
     2011.99452        15.52155         6.98264
     2011.99726        -7.69350         6.86057
     2012.00273         0.20140         6.85259
     2012.00547        -0.47665         6.92674
     2012.00821         3.87629         6.85943
     2012.01095         7.78724         6.89480
     2012.01368         3.03119         6.75448
     2012.01642         4.21714         6.62101
     2012.01916         5.59809         6.80354
     2012.02190         7.00504         6.81951
     2012.02464         8.35799         6.83662
     2012.02737         1.04693         6.73053
     2012.03011         0.19888         6.62900
     2012.03285         2.38583         6.79327
     2012.03559         5.98178         6.77730
     2012.03833         7.01173         6.58109
     2012.04106         7.32968         6.49895
     2012.04380         2.62163         6.47842
     2012.04627        11.21819         7.48914
     2012.04928        22.89152         6.92560
     2012.05201         5.03447         6.90735
     2012.05475        11.65242         6.97807
     2012.05749         5.42437         6.81837
     2012.06023        -1.43468         6.98948
     2012.06297         2.80626         6.86514
     2012.06570        12.00321         7.00659
     2012.06844         4.58616         6.85715
     2012.07118        -2.93689         6.74079
     2012.07392        -6.88094         6.86742
     2012.16153         6.20141         6.56968
     2012.16427        -9.98764         6.69174
     2012.16700        -6.81269         6.73167
     2012.16974        -3.58775         6.77616
     2012.17248        -6.49080         6.85259
     2012.17522         3.71215         7.04766
     2012.17796        -6.43690         6.73851
     2012.18069        -3.95695         6.71227
     2012.18343        -6.78300         6.97465
     2012.18617        -4.21805         6.97921
     2012.18891         0.79789         7.14577
     2012.19164         3.78084         6.95298
     2012.19438         5.18779         6.67919
     2012.19712         4.01574         6.82521
     2012.19986        -1.51531         6.82407
     2012.20260        13.74364         7.11497
     2012.20533         4.41258         7.04766
     2012.20807        -3.27747         6.73053
     2012.21081        -3.50952         6.47271
     2012.21355         1.17643         6.44419
     2012.21629        -5.17662         6.69174
     2012.21902         6.87433         6.81837
     2012.22176        -4.81072         7.02142
     2012.22450       -12.82078         6.64497
     2012.22724        -8.01483         6.81380
     2012.22997        -1.87788         6.91875
     2012.23271        -0.38693         6.76247
     2012.23545        -4.47998         6.77730
     2012.23819         2.80697         6.86628
     2012.24093        -4.64809         6.73623
     2012.24366         8.34386         6.88567
     2012.24640         2.39981         6.96210
     2012.24914         1.22176         6.82407
     2012.25188        -8.79029         6.74878
     2012.25462       -15.18034         6.92104
     2012.25735       -12.76639         6.69174
     2012.26009        -4.40645         6.71456
     2012.26283       -12.49050         6.68147
     2012.26557        -8.88755         6.84689
     2012.26830       -10.25860         7.07390
     2012.27104       -11.49865         7.09443
     2012.27378        -3.36170         6.94955
     2012.27652        -0.27875         7.06363
     2012.27926         0.25819         7.13550
     2012.28199        -7.50686         6.84118
     2012.28473       -17.61591         6.85943
     2012.28747        -8.42496         6.97465
     2012.29021         2.61899         6.99975
     2012.29295        -5.31806         6.97921
     2012.30116        -0.56122         6.88681
     2012.30387       -16.91331         6.97009
     2012.30663       -13.78432         6.85031
     2012.30937       -11.31737         7.02827
     2012.31211         4.54458         7.09899
     2012.31485        -6.64448         6.94841
     2012.31759         3.81047         6.82293
     2012.32032        -6.56758         6.81608
     2012.32306        -9.55163         6.81380
     2012.32580       -15.06868         6.85601
     2012.32854        -1.99873         6.82179
     2012.33128        -7.15879         6.86514
     2012.33401        -5.07984         6.82749
     2012.33675         0.32411         6.94157
     2012.33949       -12.06794         6.93130
     2012.34223       -10.54199         6.62329
     2012.34463       -21.64453         7.91807
     2012.34770       -11.61009         6.76361
     2012.35044        -2.48215         6.84346
     2012.35318        -8.34620         6.85145
     2012.35592        -7.01025         6.61645
     2012.35865        -5.51530         6.81038
     2012.36139        -6.95835         6.72026
     2012.36413        -9.51940         6.64611
     2012.36687        -9.75846         6.73053
     2012.36961        -7.03751         6.73851
     2012.37234        -5.36756         6.80354
     2012.37508        -3.01061         6.80468
     2012.37782        -6.66366         6.89138
     2012.38056       -11.03971         6.74536
     2012.38329       -13.65976         6.91647
     2012.38603       -12.39182         6.96438
     2012.38877        -6.80387         7.16402
     2012.39151        -3.27592         6.91305
     2012.39425        -6.73997         6.86400
     2012.39698       -25.17002         7.11268
     2012.39972       -12.62007         6.88339
     2012.40246        -4.85913         6.78414
     2012.40520        -7.89318         6.73281
     2012.40794        -8.65123         6.60048
     2012.41067       -10.12028         6.82179
     2012.41341       -13.78033         6.85829
     2012.41615        -6.86438         6.97123
     2012.41889        -4.13043         7.13208
     2012.42162        -7.56649         6.87997
     2012.42436         4.38146         7.01686
     2012.42710        -8.14959         6.76019
     2012.42984        -4.61664         6.80125
     2012.43258       -11.66569         6.95526
     2012.43531        -1.23574         6.78871
     2012.44079       -15.56885         6.76475
     2012.44353       -11.68890         6.80125
     2012.44900       -10.84900         6.93130
     2012.45174        -3.67005         6.89936
     2012.45448        -5.67010         6.87426
     2012.45722        -2.27316         6.93130
     2012.45995         4.20279         7.01458
     2012.46269        -2.90426         6.82977
     2012.46543        -7.08131         6.83434
     2012.46817        -0.31836         6.77274
     2012.47091        -9.21841         6.84232
     2012.47364        -4.25147         7.00773
     2012.47638        -0.39552         6.98834
     2012.47912        -5.38957         6.80924
     2012.48186        -3.91162         6.87312
     2012.48459       -11.04867         6.92446
     2012.48642       -30.33204        12.95569
     2012.49007        -1.16477         6.94271
     2012.49281        -4.67483         6.78300
     2012.49555        -5.08088         6.85715
     2012.49828        -6.59093         7.04538
     2012.50102        -2.79598         6.98035
     2012.50376        -7.73003         6.99861
     2012.50650        -6.74608         6.93016
     2012.50924        -5.25813         6.99861
     2012.51197        -4.92119         7.05108
     2012.51471        -2.60224         6.92674
     2012.51745         0.87671         7.06021
     2012.52019       -10.41434         7.16288
     2012.52292        -3.70939         6.85373
     2012.52566        -3.47244         6.96895
     2012.52840         6.26650         6.93587
     2012.53114        -2.05155         6.95298
     2012.53388        -2.73160         7.08531
     2012.53661       -10.34765         6.87198
     2012.53935         3.25230         6.90164
     2012.54209        -0.89975         7.08873
     2012.54483         7.29520         7.16402
     2012.54757        -8.55886         7.01344
     2012.55030        -5.53891         6.94499
     2012.55304        -1.22296         7.11953
     2012.55578         0.64599         6.80125
     2012.55852        -3.61506         6.98834
     2012.56125        -1.97311         7.10584
     2012.56399        -3.00417         7.10356
     2012.56673         2.63578         6.92446
     2012.56947         0.19973         6.98150
     2012.57221        -0.02032         7.01116
     2012.57494         0.66663         7.07732
     2012.57768        -0.61842         7.09899
     2012.58042         0.24153         7.10242
     2012.58316        -9.02453         6.99176
     2012.58590        -0.42958         7.01344
     2012.58863         0.28637         6.89023
     2012.59137        -4.42068         7.13550
     2012.59411         3.12027         7.03055
     2012.59685        -3.83378         7.24273
     2012.59958        -3.47284         7.01686
     2012.60232         7.28211         7.32373
     2012.60506        -2.09294         6.89822
     2012.60780         2.15401         6.84574
     2012.61054         5.86096         7.02713
     2012.61327         3.94891         6.92104
     2012.61601         4.26986         7.07162
     2012.61875         8.05080         6.95298
     2012.62149         1.97575         6.92788
     2012.62423         5.34570         7.06591
     2012.62696         6.55965         7.30890
     2012.62970        -6.53440         7.08759
     2012.63244         8.98255         7.04880
     2012.63518         4.67349         7.01686
     2012.63791         3.46944         7.05679
     2012.64065         9.48539         6.99290
     2012.64339         7.00534         7.04880
     2012.64613        13.51529         7.12295
     2012.64827        13.37838         9.26873
     2012.65160         4.97719         7.24387
     2012.65434         0.63313         7.17657
     2012.65708         9.77008         7.28266
     2012.65982         6.28503         7.15717
     2012.66256         9.01198         6.95070
     2012.66529        14.71393         6.96781
     2012.66803         7.29788         7.11725
     2012.67077         2.35782         6.90164
     2012.67351         6.14977         7.01686
     2012.67624         4.13972         6.99290
     2012.67898         9.28967         6.75106
     2012.68172        -0.10238         6.89936
     2012.68446         0.22457         7.02484
     2012.68720         5.79252         6.86514
     2012.68993         9.93046         6.91419
     2012.69267         2.76841         7.04310
     2012.69541         0.78436         6.96553
     2012.69815        -2.42869         7.21535
     2012.70089        -0.81774         6.94043
     2012.70362        -4.17979         6.94271
     2012.70636         5.65515         6.96667
     2012.70910        -1.10190         6.87883
     2012.71184         1.54505         6.75220
     2012.71457         5.34900         6.91077
     2012.71731         9.36095         6.93587
     2012.72005         7.23590         6.86286
     2012.72279        13.54785         6.78871
     2012.72553         7.42679         6.91077
     2012.72826         8.95774         7.12865
     2012.73100         1.29269         6.98492
     2012.73473        -4.05793        16.95865
     2012.73648         6.68159         7.65455
     2012.73921         5.98254         7.46860
     2012.74195         8.53349         7.69219
     2012.74469         6.83043         7.28836
     2012.74743         8.99838         7.48457
     2012.75017         8.62733         7.58496
     2012.75290         7.10628         7.51766
     2012.75564         2.53623         7.38076
     2012.75838         0.29418         7.31688
     2012.76112         4.54012         7.21421
     2012.76386        13.38407         7.48571
     2012.76659         7.54702         7.21649
     2012.76933         6.46897         7.45149
     2012.77207         0.21592         7.36708
     2012.77481         2.27387         7.28608
     2012.77754         6.82382         7.20737
     2012.78028        10.73676         7.26783
     2012.78302         9.61971         7.39331
     2012.78576        -0.56434         7.33970
     2012.78850        19.31761         7.57127
     2012.79123        24.77456         7.79943
     2012.79397         6.68351         7.36822
     2012.79671         5.01045         7.39902
     2012.79945        11.38640         7.75265
     2012.80219        18.86135         7.49370
     2012.80492         6.90330         7.00317
     2012.80766         1.20725         7.68421
     2012.81040         9.11520         7.09329
     2012.81314         0.38015         7.24159
     2012.81587        -3.17191         7.14348
     2012.81861        -2.65296         7.39559
     2012.82135         2.03399         7.55074
     2012.82409        11.86594         8.10743
     2012.82683        -3.81711         7.75722
     2012.82956         2.65484         7.64656
     2012.83230        10.04478         7.85875
     2012.83504        12.45973         7.84049
     2012.83778         4.25168         7.39445
     2012.84052         2.91863         7.67850
     2012.84325        -1.70142         7.41727
     2012.84599        -2.75447         7.66824
     2012.84873        -2.20652         7.69219
     2012.85147         6.23942         7.47773
     2012.85420        -1.11563         7.34540
     2012.85694       -24.89468         7.58382
     2012.85968        -6.67773         7.32144
     2012.86242         4.42222         7.20851
     2012.86516         6.16117         7.42069
     2012.86789        -1.01789         7.68877
     2012.87063         0.04806         7.55188
     2012.87337         0.91701         7.54047
     2012.87611         5.65796         7.71045
     2012.87885         2.54591         7.74353
     2012.88158       -13.36414         7.23132
     2012.88432         2.49681         7.82566
     2012.88706         9.85175         8.07321
     2012.88980        -0.36730         7.87358
     2012.89253         3.98265         7.42411
     2012.89527        -6.41040         7.66367
     2012.89801         8.59455         7.71615
     2012.90075        15.19650         7.38419
     2012.90349        -2.68656         7.23475
     2012.90622         1.86839         7.55644
     2012.90896         8.25734         8.19984
     2012.91170         5.22829         7.49826
     2012.91444         2.79024         7.86559
     2012.91718        14.19419         7.85646
     2012.91991        10.38114         8.27855
     2012.92265       -15.89392         7.92377
     2012.92539        10.69003         8.04241
     2012.92813        10.68298         7.53591
     2012.93086        -9.10607         7.30890
     2012.93360        -4.49012         7.12865
     2012.93634        -1.95217         7.04310
     2012.93908        -5.24423         7.11725
     2012.94182         2.13372         7.37278
     2012.94455         0.33167         7.17200
     2012.94729         1.15662         7.32259
     2012.95003        -1.61943         7.14006
     2012.95277         0.25952         6.94271
     2012.95551        -5.32353         6.90506
     2012.95824         0.67141         7.12637
     2012.96098         5.29936         7.46062
     2012.96372        -3.54969         7.00887
     2012.96646        -1.07574         7.02370
     2012.96919        -0.75479         7.05679
     2012.97193         4.08816         7.43666
     2012.97467         5.89411         7.23361
     2012.97741         2.45205         7.19368
     2012.98015        -2.89400         7.08188
     2012.98288        -2.23305         7.07162
     2012.98562         1.16990         7.21992
     2012.98836         1.07785         7.17086
     2012.99110         0.26180         6.89708
     2012.99384        -3.23826         6.95412
     2012.99657        -8.90731         7.09443
     2012.99931        -5.51936         7.00659
     2013.00205         0.74559         7.01458
     2013.00479         0.63054         7.35110
     2013.00752         2.87249         7.26098
     2013.01026        -8.51256         7.31802
     2013.01300        -2.33162         7.33970
     2013.01574        -1.71167         7.46860
     2013.02121         7.32423         7.27125
     2013.02395        -1.21682         7.40814
     2013.02669        -5.37487         7.03853
     2013.02943        -6.44393         7.02370
     2013.03216        -0.16398         6.82863
     2013.03490        -8.26703         6.87769
     2013.03764        -8.20408         7.03283
     2013.04038        -7.16813         7.66482
     2013.04312       -11.48318         7.71273
     2013.04585        -4.48323         7.52678
     2013.05133        -2.40134         7.51081
     2013.05407        -7.19739         7.57812
     2013.05681        -2.13644         7.24729
     2013.05954        -3.99849         7.48914
     2013.06228         3.92846         7.93632
     2013.06502         5.46140         7.48571
     2013.06776         8.30035         7.67166
     2013.07049       -10.58870         7.60778
     2013.07323        -1.17775         6.91191
     2013.07597        -9.67980         6.90849
     2013.07871        -6.10385         7.31916
     2013.08145       -11.28790         7.22904
     2013.08418        -2.27396         7.22448
     2013.08692        -5.67101         7.31346
     2013.08966        -9.83506         7.49826
     2013.09240        -7.50011         7.50967
     2013.09514        -2.03116         7.47203
     2013.09787         0.54779         7.80513
     2013.10061        -7.27327         7.90780
     2013.10609        -6.25737         6.95754
     2013.10882        -7.18742         7.06819
     2013.11156       -13.28247         7.22904
     2013.11430       -10.73952         7.32144
     2013.11704       -16.17957         7.23018
     2013.11978       -13.75063         7.50853
     2013.12251       -16.58968         7.36365
     2013.12525       -10.60473         7.45263
     2013.12799        -6.66978         7.47659
     2013.13073        -6.93483         7.08531
     2013.13347        -6.48488         7.30661
     2013.13620        -3.30694         6.95184
     2013.13894        -4.16699         6.94955
     2013.14168         0.21496         7.20965
     2013.14442         1.72291         7.29749
     2013.14715        -0.74314         7.35339
     2013.14989        -8.52019         6.87655
     2013.15263       -11.11924         7.39445
     2013.15537       -14.39530         6.97351
     2013.15811        -5.91135         7.39103
     2013.16358       -16.77045         7.45720
     2013.16632       -11.68250         7.26555
     2013.16906        -8.34255         7.30661
     2013.17180        -5.07761         7.16402
     2013.17453        -2.86466         7.45720
     2013.17727        -2.29171         7.59751
     2013.18001       -10.84276         7.28152
     2013.18275        -7.19281         7.06591
     2013.18548       -15.08086         7.30890
     2013.18822       -12.08691         7.28722
     2013.19096       -10.36197         7.44237
     2013.19370        -4.85302         7.48457
     2013.19644       -11.41907         7.49028
     2013.19917        -9.43912         7.43552
     2013.20191        -6.23317         7.32487
     2013.20465        -0.20622         7.37050
     2013.20739        -1.30927         7.11839
     2013.21013        -1.40833         6.99633
     2013.21286        -7.79738         7.51766
     2013.21560         9.20257         7.70931
     2013.21834         7.50552         7.07162
     2013.22108       -10.09753         6.90963
     2013.22381        -1.18258         6.92332
     2013.22655        -9.90064         7.04880
     2013.22929        -6.36269         7.21079
     2013.23203        -8.88774         7.36822
     2013.23477        -2.71579         7.25186
     2013.23750        -3.87584         7.47088
     2013.24024        -2.00689         7.59067
     2013.24298        -5.85894         7.57698
     2013.24572        -2.91400         7.71045
     2013.24846        -5.85005         7.55416
     2013.25119        -6.59010         7.28494
     2013.25393        -8.32115         7.23817
     2013.25667        -1.15520         7.49712
     2013.25941         4.77375         7.18912
     2013.26214         5.70869         7.55872
     2013.26488         6.81864         7.28722
     2013.26762         4.93959         7.01230
     2013.27036         1.64554         7.07390
     2013.27310        -3.30351         7.66938
     2013.27583        -7.56356         7.21763
     2013.27857        -2.76861         7.51652
     2013.28131         8.10733         7.08987
     2013.28405         0.54128         6.96324
     2013.28679       -14.31877         7.17771
     2013.28952        -9.84482         6.95298
     2013.29226        -2.82987         7.16288
     2013.42642        -1.08740         7.74809
     2013.42915         0.97855         7.56329
     2013.43189        -3.91450         7.64884
     2013.43463        -2.30955         7.48686
     2013.43737         3.26740         7.41271
     2013.44129         6.20105        21.39167
     2013.44284        -4.58171         7.53020
     2013.44558        -3.04776         7.54846
     2013.44832         1.62519         7.43324
     2013.45106        -2.35986         7.28152
     2013.45379        -3.93591         7.48343
     2013.45653         3.66704         7.52792
     2013.45927       -11.32602         7.39788
     2013.46201         1.71193         7.70360
     2013.46475         6.94988         7.62375
     2013.46748        -5.01317         7.47545
     2013.47022         1.20778         7.55188
     2013.47296         1.91673         7.40472
     2013.47570         4.46968         7.54846
     2013.47843        12.29962         7.90552
     2013.48117         7.85457         7.64656
     2013.48391         5.36852         7.65797
     2013.48665        -6.58553         7.71957
     2013.48939        -6.33658         7.66482
     2013.49212        -7.34163         7.71045
     2013.49486        -5.06669         7.93061
     2013.49760         0.18826         7.81540
     2013.50034         0.71921         7.70702
     2013.50308         3.80516         7.84620
     2013.50581         7.15811         7.86787
     2013.50855         3.48406         7.70132
     2013.51129         7.99501         7.68877
     2013.51403         4.48395         7.82338
     2013.51676        -1.86710         7.92719
     2013.51950        -2.45415         7.78460
     2013.52224        -4.89320         8.05838
     2013.52498        -8.58925         8.17360
     2013.52772         3.12170         7.63630
     2013.53045        -1.75736         7.54618
     2013.53319        -3.49241         7.91578
     2013.53593        -0.21046         7.91236
     2013.53867         3.59349         7.96141
     2013.54141         0.76244         7.95001
     2013.54414         2.28939         7.90438
     2013.54688         5.87734         8.12569
     2013.54962        -2.10172         7.94887
     2013.55236         4.32623         7.74467
     2013.55509        -0.73482         7.96712
     2013.55783         5.84713         7.76863
     2013.56057         9.00108         7.92491
     2013.56331         0.89403         8.07663
     2013.56605        -1.93503         8.29452
     2013.56878         1.85992         7.77889
     2013.57152         8.03687         7.93974
     2013.57426        14.12682         7.55416
     2013.57700         6.50577         7.82909
     2013.57974         0.99872         7.72642
     2013.58247        11.99067         7.88156
     2013.58521         4.36061         7.93746
     2013.58795        11.74856         7.68763
     2013.59069        11.35051         7.92149
     2013.59342         8.33946         7.64884
     2013.59616         0.50841         7.83023
     2013.59890         7.84636         7.77433
     2013.60164         9.46030         7.94316
     2013.60438         5.07325         7.80969
     2013.60711         6.44320         7.66938
     2013.60985        10.19715         7.70474
     2013.61259         7.79010         7.77319
     2013.61533         6.76705         8.24547
     2013.61807        12.90900         8.01845
     2013.62080        12.86094         8.07207
     2013.62354         5.25489         7.86787
     2013.62628         7.77684         7.88726
     2013.62902         0.27279         7.70246
     2013.63175         5.24574         7.69333
     2013.63449        14.56469         8.00248
     2013.63723         5.28164         8.03671
     2013.63997        13.29758         8.05382
     2013.64271        12.96053         7.87358
     2013.64544        19.26248         7.63972
     2013.64818        15.20543         8.20554
     2013.65092        21.77638         8.18843
     2013.65366         7.83933         7.67736
     2013.65639         6.43827         7.93746
     2013.65913        13.63922         8.18386
     2013.66187         3.69717         7.75380
     2013.66461         4.00512         7.95001
     2013.66735        19.57307         8.01617
     2013.67008        18.04902         7.81768
     2013.67282        14.48797         8.34357
     2013.67556         2.67491         8.06979
     2013.67830         6.36886         7.60778
     2013.68104        19.54881         7.48457
     2013.68377         6.00076         7.41499
     2013.68651        10.44571         7.56671
     2013.68925         4.39866         7.89753
     2013.69199        12.72560         7.65341
     2013.69472        11.68155         7.83023
     2013.69746         5.96450         7.83593
     2013.70020        14.88045         7.81083
     2013.70294        21.56440         7.78117
     2013.70568        10.92735         7.88270
     2013.70841         5.03130         7.57469
     2013.71115        10.52124         7.53477
     2013.71389        -0.82181         7.50511
     2013.71663        14.42814         7.49370
     2013.71937        10.84509         7.65569
     2013.72210        12.23004         7.50169
     2013.72484        16.14099         7.46632
     2013.72758        22.10293         7.74353
     2013.73032        19.59388         7.75950
     2013.73305        13.19283         7.26897
     2013.73579        -0.16522         7.39788
     2013.73853         5.60173         7.38875
     2013.74127        24.68968         7.92833
     2013.74401        12.92663         8.28311
     2013.74674        23.13757         7.62945
     2013.74948         5.23452         7.47088
     2013.75222         1.99647         7.22448
     2013.75496        -4.24958         7.17086
     2013.75770         1.55237         7.53020
     2013.76043         6.93832         7.44807
     2013.76317        11.44726         7.51766
     2013.76591         8.08821         7.47887
     2013.76865         4.35516         7.28950
     2013.77138         3.89211         7.57013
     2013.77412         5.26206         7.52336
     2013.77686         7.43401         7.37962
     2013.77960         1.12596         7.32601
     2013.78234        -4.45110         7.35453
     2013.78507        -1.72715         7.38647
     2013.78781        -4.02820         7.65797
     2013.79055         5.89875         7.72984
     2013.79329        -2.97230         7.37620
     2013.79603         3.58465         7.28038
     2013.79876         1.09259         7.55530
     2013.80150         3.37754         7.82909
     2013.80424         3.17449         7.72870
     2013.80698         5.35044         7.54389
     2013.80971         7.02139         7.56671
     2013.81245         4.77034         7.64542
     2013.81519         0.14229         7.85646
     2013.81793        -2.55577         7.67622
     2013.82067         2.58218         7.63972
     2013.82340       -11.70887         7.62717
     2013.82614        -8.87192         7.71615
     2013.82888        10.27403         7.65227
     2013.83162         5.39998         7.73440
     2013.83436         8.72092         7.74011
     2013.83709         8.16887         7.91350
     2013.83983        -8.17518         7.36251
     2013.84257        -1.78123         7.11040
     2013.84531         1.51672         7.76977
     2013.84804        13.33667         7.76634
     2013.85078         7.44962         7.96484
     2013.85352        -2.64444         7.63744
     2013.85626        -4.05649         7.47773
     2013.85900        -0.73254         7.71159
     2013.86173        -2.46059         7.65683
     2013.86447        -3.07364         7.91807
     2013.86721         7.78431         7.58154
     2013.86995         2.46425         7.66139
     2013.87269         7.57420         7.16972
     2013.87542        10.42515         7.66596
     2013.87816         2.78510         7.64428
     2013.88090         7.00205         7.87928
     2013.88364        14.17300         8.32874
     2013.88637        -7.57905         7.56329
     2013.88911        -1.92411         7.22562
     2013.89185        -1.18216         7.32259
     2013.89459        -5.31421         7.53933
     2013.89733        -0.33726         7.53020
     2013.90006        -4.03131         7.63630
     2013.90280        -6.00836         7.87358
     2013.90554         2.69059         7.67166
     2013.90828        12.28953         7.72642
     2013.91102        -0.19652         7.54389
     2013.91375        -1.19157         7.71843
     2013.91649        11.20738         7.88156
     2013.91923         3.22233         8.12911
     2013.92197         1.91028         7.41385
     2013.92470        -2.18878         7.37050
     2013.92744       -11.81683         7.16288
     2013.93018        -2.36388         6.97807
     2013.93292        -1.41593         7.04652
     2013.93566        -5.84898         7.25870
     2013.93839         3.86897         7.08759
     2013.94113         4.33892         7.23361
     2013.94387        -0.58914         7.40130
     2013.94661        11.60981         7.59979
     2013.94935        13.03976         7.98081
     2013.95208        11.28371         7.62945
     2013.95482        -2.62234         7.60207
     2013.95756         1.47561         7.57127
     2013.96030         1.56855         7.72528
     2013.96303         8.23150         7.66710
     2013.96577         0.25645         7.03853
     2013.96851        -0.75660         7.17885
     2013.97125        17.30635         7.74695
     2013.97399         5.60030         7.59067
     2013.97672         4.36925         7.87814
     2013.97946         2.49419         7.68763
     2013.98220         4.67714         7.56329
     2013.98494         2.45709         7.74125
     2013.98767        -4.36496         7.77319
     2013.99041         1.89999         7.66253
     2013.99315        -7.16006         7.61804
     2013.99589        -0.04412         7.51423
     2013.99863        -7.18017         7.67622
     2014.00410         2.36073         7.78117
     2014.00684         2.80668         7.97739
     2014.00958        -4.86337         7.29635
     2014.01232        -5.71442         7.55758
     2014.01505        -3.48448         7.80969
     2014.01779         2.96947         7.71843
     2014.02053         4.57742         7.61234
     2014.02327         5.79937         8.03100
     2014.02600        -1.02668         8.08918
     2014.02874        15.13727         8.10173
     2014.03148        15.98821         7.85875
     2014.03422        -1.33184         7.72642
     2014.03696         0.92511         7.57698
     2014.03969        -3.29594         7.63516
     2014.04243        -1.45299         7.87814
     2014.04517         5.28196         7.80855
     2014.04791        -1.17109         7.46290
     2014.05065         0.60285         7.80285
     2014.05338        -3.89020         7.55758
     2014.05612        -3.50325         7.72071
     2014.05886        -6.88830         7.49142
     2014.06160         0.07465         7.40928
     2014.06433         3.17260         7.78231
     2014.06707         3.62254         7.93632
     2014.06981         0.17849         7.65569
     2014.07255         3.65244         7.56101
     2014.07529         1.89639         7.52222
     2014.07802        21.06734         8.04469
     2014.08076         9.68629         7.43210
     2014.08350         2.08124         7.17771
     2014.08624        -4.17382         7.16858
     2014.08898         2.10013         7.66938
     2014.09171        -7.87992         7.57812
     2014.09445        -2.50897         7.03283
     2014.09719        -6.25102         7.15261
     2014.09993         1.32293         6.94271
     2014.10266        -2.58212         7.52450
     2014.10540       -15.60918         7.85875
     2014.10814        12.94377         7.80399
     2014.11088         4.65472         7.96141
     2014.11362        -1.43333         7.51766
     2014.11635         7.12662         8.05382
     2014.11909        19.07457         7.92605
     2014.12183         1.45951         8.07663
     2014.12457        10.53246         7.91807
     2014.12731        18.05641         7.64999
     2014.13004         8.16236         7.45491
     2014.13278         0.22731         7.89525
     2014.13552        -3.41574         7.66824
     2014.13826        -4.65779         7.30319
     2014.14099         4.80515         7.51537
     2014.14373         1.87510         7.40016
     2014.14647         3.99205         7.67850
     2014.14921         9.46100         7.61462
     2014.15195        -5.27505         7.54161
     2014.15468        -3.38610         7.67622
     2014.15742        13.00384         7.59523
     2014.16016         6.31779         7.87358
     2014.16290         0.65374         7.60207
     2014.16564         2.66769         7.64656
     2014.16837         1.67064         8.17360
     2014.17111         4.71259         7.97510
     2014.17385         7.46554         8.42343
     2014.17659         9.43048         8.21124
     2014.17932         2.73543         8.09831
     2014.18206        -1.24662         7.80171
     2014.18480        11.37733         7.63173
     2014.18754         6.24528         7.82452
     2014.19028         5.37123         7.50853
     2014.19301         1.13717         7.47659
     2014.19575         2.43312         7.53819
     2014.19849        -4.31493         7.76292
     2014.20123        -4.13598         7.70360
     2014.20397        -6.36803         7.87472
     2014.20670        -5.86608         7.66367
     2014.20944        -0.70613         7.42183
     2014.21218         1.15981         7.51423
     2014.21492        -0.58724         7.43438
     2014.21765        -5.15429         7.27467
     2014.22039        -8.01734         7.42411
     2014.22313        -2.25739         7.62603
     2014.22587        10.09156         7.86559
     2014.22861        15.92450         7.84506
     2014.23134        13.32145         7.63516
     2014.23408         6.25740         7.62261
     2014.23682         3.05635         8.09032
     2014.23956        -4.41670         7.77319
     2014.24230         0.80825         7.33742
     2014.24503         3.97820         7.55758
     2014.24777       -10.68386         7.74923
     2014.25325        -1.95096         7.64999
     2014.25598         3.74599         7.59295
     2014.25872        -0.39206         7.63972
     2014.26146        10.10889         8.01617
     2014.26420        -9.01817         7.47773
     2014.26694        -4.74722         7.73098
     2014.26967        -2.02227         7.66367
     2014.27241        -1.50032         7.82680
     2014.27515         2.06163         7.79030
     2014.27789         4.45358         8.00248
     2014.28062        -2.24247         7.67850
     2014.28336        -3.27853         7.75494
     2014.28610         2.01842         7.67052
     2014.28884        -1.09963         7.95343
     2014.29158        -2.81468         7.97054
     2014.29431        -2.01573         7.54047
     2014.29705        -2.71678         7.84962
     2014.29979        -7.29184         7.73212
     2014.30253         1.95311         7.99107
     2014.30527        -9.13294         7.73554
     2014.30800         3.20101         7.53135
     2014.31074        15.06896         7.79030
     2014.31348        -1.88209         7.91464
     2014.31622        -0.51914         7.43666
     2014.31895         0.34780         7.66367
     2014.32169       -14.50125         7.62261
     2014.32443        -9.21830         7.96256
     2014.32717       -10.04035         8.04469
     2014.32991         4.60660         7.82909
     2014.33264         0.49655         7.90894
     2014.33538       -10.61350         7.85304
     2014.33812         6.47344         7.79372
     2014.34086         0.12039         7.71843
     2014.34360        -9.03166         7.57127
     2014.34633         0.68929         7.41955
     2014.34907        -3.92176         7.64770
     2014.35181        -0.27081         7.94658
     2014.35455       -17.82887         7.73554
     2014.35728        -3.03092         7.74695
     2014.36002        -6.57297         7.66025
     2014.36276        -7.25302         7.64542
     2014.36550        -4.66407         7.86331
     2014.36824        -6.27412         7.93518
     2014.37097         2.55583         8.09032
     2014.37371         1.50877         8.12569
     2014.37645        -6.83428         7.63516
     2014.37919        -8.08433         7.72756
     2014.38193        -5.67138         7.92719
     2014.38466        -8.52643         7.91807
     2014.38740        -7.19748         7.72870
     2014.39014         0.37946         7.61120
     2014.39288        -3.88459         7.82566
     2014.39561        -2.46364         7.65227
     2014.39835         4.17331         8.04241
     2014.40109         1.16026         7.75265
     2014.40383        -1.86779         7.64770
     2014.40657        -4.21984         7.65569
     2014.40930        -6.83190         7.63858
     2014.41204       -11.80995         7.87928
     2014.41478        -9.64500         7.72756
     2014.41752         1.65995         7.93061
     2014.42026         1.83690         7.65227
     2014.42299         3.70885         7.72642
     2014.42573        -1.45221         7.78460
     2014.42847         1.73974         7.74011
     2014.43121        -0.83931         7.77091
     2014.43394         0.73464         7.76977
     2014.43668        -5.08641         7.60892
     2014.43942        -0.12046         7.74695
     2014.44216        -3.36051         7.88270
     2014.44490        -2.18057         8.12569
     2014.44763         9.82038         7.83593
     2014.45037        -3.31067         7.73440
     2014.45311         0.11128         7.80741
     2014.45585         1.28823         7.91464
     2014.45859        -9.51682         7.55986
     2014.46132        -1.35288         7.86103
     2014.46406        -6.38393         7.80171
     2014.46680        -8.68198         7.96712
     2014.46954        -1.12803         7.79600
     2014.47227        -1.89908         7.94544
     2014.47501         4.26787         7.99906
     2014.47775         2.93382         7.89981
     2014.48049        -0.33224         7.73782
     2014.48323         1.87671         7.82680
     2014.48596        -0.79834         8.12569
     2014.48870        -0.06139         8.04925
     2014.49144         2.97956         7.71273
     2014.49418        -5.35749         7.75722
     2014.49692        -2.71355         7.82909
     2014.49965        -0.83460         7.97510
     2014.50239        -7.90165         7.97510
     2014.50513         7.40830         8.39148
     2014.50787         1.68125         7.93632
     2014.51060        -6.33580         8.26828
     2014.51334         2.08415         7.86331
     2014.51608        13.65309         8.21467
     2014.51882        13.41304         8.13139
     2014.52156         4.90899         8.24661
     2014.52429        -2.59106         8.24204
     2014.52703         1.53689         8.20326
     2014.52977         4.01984         8.14052
     2014.53251        -4.33922         8.75995
     2014.53525        -3.50627         8.45080
     2014.53798         7.38068         8.43940
     2014.54072         5.31763         8.10629
     2014.54346         6.10658         8.00705
     2014.54620         7.33553         8.18158
     2014.54893         8.76648         8.09717
     2014.55167        -0.49758         8.17018
     2014.55441        14.23937         8.25687
     2014.55715        -1.24268         8.05838
     2014.55989        -6.73373         7.97510
     2014.56262         4.56222         7.87472
     2014.56536         1.85917         7.96940
     2014.56810        -4.10188         8.02986
     2014.57084        -6.57294         7.73897
     2014.57357         1.62601         7.81426
     2014.57631         4.39296         8.20782
     2014.57905        -0.43509         7.91807
     2014.58179         0.57686         8.57515
     2014.58453         2.93581         8.29452
     2014.58726        -5.31225         8.39947
     2014.59000         9.96870         8.28882
     2014.59274         0.78765         8.12569
     2014.59548         6.62460         7.97853
     2014.59822         4.05355         8.11200
     2014.60095         6.39250         8.24318
     2014.60369         3.19345         8.10059
     2014.60643         2.78239         7.77319
     2014.60917         5.33934         8.06979
     2014.61190        15.57329         8.25573
     2014.61464        11.34724         8.07777
     2014.61738        23.03919         7.99906
     2014.62012        10.38914         7.78231
     2014.62286        16.04308         8.18843
     2014.62559        -0.91097         7.70474
     2014.62833        19.79398         8.19869
     2014.63107        10.92393         8.64930
     2014.63381        10.41688         8.18044
     2014.63655         0.20083         8.26942
     2014.63928         2.19578         7.97853
     2014.64202        -4.35628         7.80741
     2014.64476        -0.82933         8.02188
     2014.64750         4.44262         8.04811
     2014.65023         2.10457         7.97739
     2014.65297         4.31852         8.12454
     2014.65571         3.12347         7.90552
     2014.65845         6.31741         7.75380
     2014.66119        10.11036         8.08462
     2014.66392         8.67331         7.93632
     2014.66666         7.62926         8.07435
     2014.66940         8.99121         8.18386
     2014.67214         0.53016         7.90095
     2014.67488         7.34311         7.76634
     2014.67761         8.35105         7.96256
     2014.68035         8.87400         7.55074
     2014.68309         5.05695         8.36867
     2014.68583         5.74090         7.75151
     2014.68856        -0.57815         7.75836
     2014.69130         7.71180         7.73554
     2014.69404         5.00274         7.64542
     2014.69678         3.03369         7.68421
     2014.69952         1.68764         7.62375
     2014.70225         6.66259         7.82795
     2014.70499         6.92554         7.87244
     2014.70773         6.98849         8.05724
     2014.71047         4.84544         7.88726
     2014.71321         8.32038         7.92605
     2014.71594         5.79433         7.67622
     2014.71868        13.52428         7.66710
     2014.72142         5.90123         7.72984
     2014.72416        10.61718         7.91578
     2014.72689         6.57713         7.89981
     2014.73237        22.19802         8.20896
     2014.73511         5.80397         7.80285
     2014.73785        -2.16908         7.97510
     2014.74058         3.15287         8.05496
     2014.74332         8.12282         7.92491
     2014.74606        16.08877         7.93974
     2014.74880         2.18771         7.53135
     2014.75154         5.19266         8.26942
     2014.75427        -1.38839         7.70474
     2014.75701        -2.55944         7.76863
     2014.75975         4.08951         7.66025
     2014.76249         5.44846         7.69562
     2014.76522         4.38440         7.66367
     2014.76796         3.23535         7.64542
     2014.77070         5.23330         7.71159
     2014.77344         5.00025         7.43324
     2014.77618         9.79120         7.76634
     2014.77891         0.19015         7.52564
     2014.78165         0.36310         7.80513
     2014.78439        -0.14296         7.61804
     2014.78713         8.03199         7.84962
     2014.78987        10.18194         7.75151
     2014.79260         2.94589         7.92149
     2014.79534         7.94584         7.76634
     2014.79808        -0.51121         8.13937
     2014.80082        -1.39026         7.94773
     2014.80355        10.81668         7.92263
     2014.80629        10.26663         7.88156
     2014.80903        12.67658         7.93974
     2014.81177        19.62853         8.02872
     2014.81451        -3.95952         8.43711
     2014.81724        14.80443         7.75265
     2014.81998        15.19137         7.65341
     2014.82272         9.65432         7.99222
     2014.82546        13.34827         7.91008
     2014.82820        -2.17778         7.77433
     2014.83093         0.37017         7.71501
     2014.83367        -0.39888         7.89639
     2014.83641         1.54307         7.55986
     2014.83915         2.94601         7.81768
     2014.84188         6.72396         7.99450
     2014.84462        14.19091         7.88156
     2014.84736         2.73786         7.98879
     2014.85010        10.92781         7.91692
     2014.85284         5.61176         7.62945
     2014.85557         4.39470         7.79144
     2014.85831         3.53465         7.55986
     2014.86105         1.87860         7.44465
     2014.86379         3.53855         6.95298
     2014.86653        -9.30450         7.24844
     2014.86926        12.87045         7.61462
     2014.87200        -3.50660         7.40130
     2014.87474         2.36034         7.64314
     2014.87748        -0.78071         7.38191
     2014.88021        -1.45776         7.70702
     2014.88295         5.56919         7.83251
     2014.88569         1.67714         8.13823
     2014.88843        11.07509         8.08576
     2014.89117        17.80403         8.50670
     2014.89390         5.83698         7.96141
     2014.89664        11.23493         7.92263
     2014.89938        -3.30312         8.13025
     2014.90212       -11.07817         7.91807
     2014.90485        -3.31122         8.16219
     2014.90759         9.81873         7.99222
     2014.91033         5.47267         7.83821
     2014.91307        -8.59438         7.40244
     2014.91581        -9.00043         7.71843
     2014.91854         7.73652         7.69448
     2014.92128         6.20147         7.56899
     2014.92402        18.14342         7.90894
     2014.92676         5.24836         7.93290
     2014.92950        -4.42169         8.06751
     2014.93223        -2.23374         7.71729
     2014.93497         7.32621         7.88841
     2014.93771         2.30216         7.87586
     2014.94045        -1.05089         8.07891
     2014.94318        -5.46694         8.10629
     2014.94592        -1.13600         7.46176
     2014.94866       -12.14205         7.35681
     2014.95140        -2.30510         7.32829
     2014.95414        -7.53615         7.27239
     2014.95687         1.22980         7.49598
     2014.95961         4.33675         7.34426
     2014.96235        -3.10731         7.55872
     2014.96509         0.12264         7.57926
     2014.96783        -8.43541         7.50625
     2014.97056         8.21254         7.58040
     2014.97330         9.67949         7.58268
     2014.97604       -13.19256         7.39674
     2014.97878        -5.05761         7.55530
     2014.98151       -10.34467         7.38076
     2014.98425       -19.36272         7.14691
     2014.98699        -9.53377         7.02370
     2014.98973       -10.44982         7.25642
     2014.99247       -24.87187         6.95754
     2014.99794       -10.17698         6.91761
     2015.00068        -6.58503         7.14805
     2015.00342       -15.60308         7.18341
     2015.00616       -16.82013         7.29407
     2015.00889       -19.47718         7.58952
     2015.01163       -10.13823         7.59181
     2015.01437        -8.09328         7.68535
     2015.01711       -12.33134         7.78346
     2015.01984        -3.30739         7.73668
     2015.02258        -3.15444         7.52906
     2015.02532        -3.67249         7.38419
     2015.02806        -7.50154         7.57469
     2015.03080        -5.90259         7.39559
     2015.03353        -6.63664         7.34768
     2015.03627        -9.99270         7.26783
     2015.03901        -4.30975         7.51766
     2015.04175         2.15020         7.93974
     2015.04449         4.16615         7.95343
     2015.04722         7.77910         7.86103
     2015.04996       -10.33795         7.32943
     2015.05270        -9.00301         7.32259
     2015.05544       -13.77006         7.27125
     2015.05817        -5.54211         7.78346
     2015.06091        -3.28116         7.52678
     2015.06365        -1.24921         7.77319
     2015.06639        -5.82726         7.51994
     2015.06913        -5.58931         7.82795
     2015.07186       -12.93337         7.65797
     2015.07460       -12.27842         7.84278
     2015.07734       -13.78547         7.66596
     2015.08008       -14.63352         7.75494
     2015.08282       -10.70857         7.40130
     2015.08555        -4.89762         7.75265
     2015.08829        19.38532         8.23292
     2015.09103         9.13427         7.88841
     2015.09377         5.52022         7.78460
     2015.09650        -3.47383         7.96484
     2015.09924         5.94112         8.17588
     2015.10198         3.91907         7.72071
     2015.10472        -8.61698         7.65797
     2015.10746         5.83496         7.90894
     2015.11019       -10.40409         7.56899
     2015.11293       -10.21114         7.88384
     2015.11567        -7.35319         7.81768
     2015.11841        -9.15424         7.63059
     2015.12115        -3.72729         7.47203
     2015.12388        -3.88635         7.41727
     2015.12662        -7.14540         7.20166
     2015.12936        -8.61845         7.40244
     2015.13210       -12.49350         7.49940
     2015.13483        -7.43755         7.42639
     2015.13757        -8.86360         7.24844
     2015.14031       -10.36465         7.36708
     2015.14305        -8.24371         7.25984
     2015.14579        -8.65476         7.22220
     2015.14852        -8.26981         7.63972
     2015.15126        -6.32386         7.45377
     2015.15400        -9.16291         7.58610
     2015.15674        -7.62496         7.50169
     2015.15948        -2.89902         7.16630
     2015.16221        -6.55507         6.92902
     2015.16495        -5.48612         7.54960
     2015.16769        -6.99817         7.39674
     2015.17043        -2.96522         7.31460
     2015.17316       -17.08527         7.63287
     2015.17590       -10.77032         7.62945
     2015.17864        -0.04438         7.66824
     2015.18138        -6.77143         7.54047
     2015.18412        -1.44448         7.66596
     2015.18685        -6.18953         7.48343
     2015.18959        -2.10758         7.63059
     2015.19233         3.33337         7.97282
     2015.19507        -9.01069         7.57127
     2015.19780        -2.98874         7.60207
     2015.20054        -1.87679         7.68421
     2015.20328        -1.55084         7.71843
     2015.20602         2.85211         7.42525
     2015.20876        -8.59194         7.40700
     2015.21149        -9.36199         7.59751
     2015.21423       -14.38005         7.68649
     2015.21697        -9.32710         7.50967
     2015.21971        -3.01815         7.44122
     2015.22245       -23.35920         7.41841
     2015.22518         0.06075         7.29977
     2015.22792         1.38070         7.33742
     2015.23066        -6.83536         7.19482
     2015.23340        -2.52541         7.58496
     2015.23613        -4.75746         8.00362
     2015.23887        -7.39951         7.67166
     2015.24161         1.60444         7.74923
     2015.24435        -9.13661         7.78688
     2015.24709        -4.93366         7.32943
     2015.24982       -11.51072         7.14120
     2015.25256       -10.96077         7.20395
     2015.25530        -0.68982         7.12751
     2015.25804       -11.20287         7.14120
     2015.26078       -10.22492         7.14691
     2015.26351        -5.52597         7.43552
     2015.26625       -13.84002         7.44693
     2015.26899        -9.18508         7.13892
     2015.27173        -1.13113         7.50054
     2015.27446         7.59582         7.53020
     2015.27720        -7.83523         7.05679
     2015.27994       -11.88428         7.70246
     2015.28268       -10.21533         7.31232
     2015.28542        -7.57639         7.36365
     2015.28815        -6.71344         7.59295
     2015.29089        -6.06949         7.41613
     2015.29363        -4.27054         7.27924
     2015.29637        -5.80459         7.31688
     2015.29911        -2.84464         7.55074
     2015.30184        -2.17769         7.46860
     2015.30458        -4.02375         7.23361
     2015.30732        -7.03280         7.17999
     2015.31006         1.14015         7.21193
     2015.31279        -8.30490         7.42754
     2015.31553       -10.97395         7.21193
     2015.31827        -9.01100         7.35110
     2015.32101        -1.67506         7.69105
     2015.32375        -5.49811         7.25642
     2015.32648       -12.67716         7.27581
     2015.32922        -5.14221         7.44921
     2015.33196        -8.32726         7.26212
     2015.33470        -8.18831         7.52906
     2015.33744        -9.93036         7.40586
     2015.34017       -12.45242         7.15946
     2015.34291        -7.61547         7.18341
     2015.34565       -16.43252         7.38076
     2015.34839       -12.73757         7.68877
     2015.35112        -6.80262         7.49826
     2015.35386        -3.57567         7.32829
     2015.35660         6.78127         7.37620
     2015.35934       -12.95578         7.70132
     2015.36208        -6.22183         7.43210
     2015.36481         9.82712         7.26783
     2015.36755        -1.26493         7.51195
     2015.37029        -5.92398         7.30205
     2015.37303       -11.63203         7.28608
     2015.37577        -4.50809         7.31232
     2015.37850         5.17486         8.07435
     2015.38124        -6.86519         7.65797
     2015.38398        -3.71024         7.70816
     2015.38672         6.52271         7.63516
     2015.38945         2.07866         7.59865
     2015.39219        -4.66540         7.67850
     2015.39493        -0.61845         7.69219
     2015.39767       -15.05950         7.38419
     2015.40041       -10.58255         7.47659
     2015.40314        -4.14260         7.63401
     2015.40588        -3.86765         7.76178
     2015.40862       -13.29170         7.72642
     2015.41136        -2.56076         7.76520
     2015.41410       -10.05081         7.57241
     2015.41683         8.10114         7.65227
     2015.41957        -3.82091         7.43894
     2015.42231        10.03304         7.51537
     2015.42505       -16.68201         7.79258
     2015.42778        -5.96607         7.80513
     2015.43052        -1.60412         7.79943
     2015.43326         2.30583         7.69105
     2015.43600        -9.50122         7.86787
     2015.43874         0.42973         8.07093
     2015.44147        -6.95532         7.98879
     2015.44421        -7.45937         7.81083
     2015.44695        -2.58543         7.66482
     2015.44969        -0.83848         7.72299
     2015.45243        -1.57753         8.36981
     2015.45516        -2.73258         7.86787
     2015.45790        -3.37963         8.15877
     2015.46064         2.72632         8.41202
     2015.46338        -2.92874         8.21923
     2015.46611         7.14921         7.85761
     2015.46885         1.13416         7.92605
     2015.47159        -7.37889         7.99336
     2015.47433        -7.86394         7.95913
     2015.47707        -1.46699         7.81882
     2015.47980         0.53696         7.93518
     2015.48254         7.23690         8.13709
     2015.48528        -5.49915         8.14052
     2015.48802        -4.63420         7.84278
     2015.49076        -0.00925         7.99336
     2015.49349        -2.90630         7.91921
     2015.49623        -5.88335         8.11998
     2015.49897         5.02660         8.14964
     2015.50171        -0.39246         7.83479
     2015.50444         1.60549         7.54618
     2015.50718        -7.18856         7.80399
     2015.50992        -1.91161         7.84506
     2015.51266        10.98634         7.79600
     2015.51540         1.19529         7.72299
     2015.51813         3.98023         7.52108
     2015.52087        -1.78282         7.70816
     2015.52361         5.81613         7.72642
     2015.52635        -0.34292         7.87244
     2015.52908         3.83703         7.51880
     2015.53182        11.07598         7.86331
     2015.53456         5.49793         7.44122
     2015.53730        -8.78413         7.67508
     2015.54004         0.02382         7.79372
     2015.54277        -0.20723         7.78460
     2015.54551         7.45972         7.71501
     2015.54825        -7.00933         7.74125
     2015.55099         3.28662         7.68535
     2015.55373         5.04856         7.67508
     2015.55646         2.12751         7.93061
     2015.55920         7.73446         7.85532
     2015.56194         1.86741         7.97739
     2015.56468         8.75736         7.80855
     2015.56741         1.58531         7.74353
     2015.57015        -3.03674         8.12340
     2015.57289         9.66320         8.11770
     2015.57563        10.72915         7.92947
     2015.57837         4.16610         7.76292
     2015.58110         6.74805         7.90095
     2015.58384         9.74600         7.74467
     2015.58658         6.99895         7.74467
     2015.58932         4.54489         7.79372
     2015.59206         4.04784         8.34813
     2015.59479         5.77979         7.95457
     2015.59753         1.85774         8.18843
     2015.60027         4.61469         8.05724
     2015.60301         2.17664         8.13139
     2015.60574        10.04859         8.07549
     2015.60848         3.18053         8.14622
     2015.61122         0.50448         7.77205
     2015.61396         1.88843         7.90780
     2015.61670        -2.99062         7.88498
     2015.61943         0.90033         7.95457
     2015.62217        11.10128         7.96370
     2015.62491         6.69622         7.86901
     2015.62765        -1.06783         7.73440
     2015.63039        -3.25488         7.84620
     2015.63312         0.99707         8.09260
     2015.63586        -2.37298         7.83251
     2015.63860        -2.57703         7.87358
     2015.64134         4.18292         8.05610
     2015.64407        -3.42214         7.83479
     2015.64681         1.79481         7.88726
     2015.64955         4.68776         8.18729
     2015.65229        -5.76329         7.85304
     2015.65503         4.03266         7.91807
     2015.65776         0.09261         8.29452
     2015.66050        -5.60545         8.31163
     2015.66324         1.93950         7.48571
     2015.66598        10.25145         7.85418
     2015.66872        -1.37260         8.24661
     2015.67145        14.55235         7.95457
     2015.67419        -1.96170         7.54960
     2015.67693         6.11325         7.82909
     2015.67967       -11.13681         7.38647
     2015.68240        -4.14886         7.81312
     2015.68514        -7.79891         7.89297
     2015.68788         4.47204         7.63059
     2015.69062         3.26399         7.98651
     2015.69336         1.09894         7.92035
     2015.69609        -2.97312         7.80969
     2015.69883         9.24783         7.81654
     2015.70157        11.93778         7.79600
     2015.70431         5.05873         7.52108
     2015.70705         5.43068         7.63516
     2015.70978        27.12863         7.85190
     2015.71252         0.40758         7.82566
     2015.71526         5.78652         7.96940
     2015.71800        17.55747         7.80399
     2015.72073        14.11542         7.59979
     2015.72347        -4.53463         7.63744
     2015.72621        -9.91268         7.76748
     2015.72895         2.13927         7.80399
     2015.73169         4.12322         7.85761
     2015.73442         6.05916         7.88384
     2015.73716        -0.82289         7.56557
     2015.73990         5.28806         7.74353
     2015.74264         2.67901         7.83137
     2015.74538         9.94596         8.09374
     2015.74811        -1.54109         7.96712
     2015.75085        -2.79215         7.54503
     2015.75359         4.24280         7.53591
     2015.75633        -1.13525         7.51766
     2015.75906         7.44770         7.57698
     2015.76180         1.71764         7.56101
     2015.76456        13.51563         7.50283
     2015.76728        11.44655         7.32487
     2015.77002        17.34549         7.50054
     2015.77275        12.97144         7.56899
     2015.77549        18.66139         7.69562
     2015.77823        21.45834         7.87358
     2015.78097        16.46229         7.46176
     2015.78371        17.06424         7.55188
     2015.78644        21.32418         7.26327
     2015.78918        15.34813         7.55872
     2015.79192        14.32508         7.48571
     2015.79466        26.31803         7.52336
     2015.79739        20.73398         7.45035
     2015.80013        19.54693         7.52108
     2015.80287         6.72488         7.08188
     2015.80561        11.10182         7.82110
     2015.80835        10.01577         7.56557
     2015.81108        16.50372         7.61576
     2015.81382        16.55567         7.52108
     2015.81656        16.78462         7.72756
     2015.81930         7.20157         7.32487
     2015.82203        17.14451         7.54275
     2015.82477        29.26046         7.62147
     2015.82751        12.99341         7.56671
     2015.83025        24.69936         7.89069
     2015.83299        23.04831         7.73668
     2015.83572        18.38926         7.44008
     2015.83846         7.75321         7.29407
     2015.84120         5.86815         7.23703
     2015.84394         7.39110         7.27239
     2015.84668         7.42305         7.28152
     2015.84941         9.75800         7.66596
     2015.85215        27.03595         7.64200
     2015.85489        16.99890         7.61006
     2015.85763        11.35184         7.39331
     2015.86036        11.93579         7.60207
     2015.86310         9.24774         7.51880
     2015.86584         6.97869         7.69676
     2015.86858         6.87264         7.87472
     2015.87132        13.37159         7.76863
     2015.87405        -2.29046         7.06819
     2015.87679        21.34048         8.09146
     2015.87953         9.16143         7.97967
     2015.88227        20.02838         7.83365
     2015.88501        16.68033         7.70474
     2015.88774        10.66728         7.42069
     2015.89048        16.48823         7.80513
     2015.89322        13.77917         7.83479
     2015.89596         7.27112         7.46062
     2015.89869       -20.90793         7.32943
     2015.90143       -17.52298         7.34882
     2015.90417         5.46297         7.16060
     2015.90691         8.84292         7.18341
     2015.90965         4.81587         7.36822
     2015.91238        12.76481         7.56671
     2015.91512        12.40676         7.52564
     2015.91786         2.65371         8.10059
     2015.92060        16.94766         8.09374
     2015.92334         9.84461         7.63173
     2015.92607        10.90456         7.54618
     2015.92881        10.37450         7.86331
     2015.93155        31.45045         8.20554
     2015.93429        24.33340         8.14166
     2015.93702        14.54635         7.97739
     2015.93976         9.89330         8.54092
     2015.94250        14.46225         8.02416
     2015.94524        13.58220         8.03671
     2015.94798        -7.39486         8.15649
     2015.95071       -27.39691         8.11428
     2015.95619         0.45399         7.46860
     2015.95893         4.19194         7.82680
     2015.96167        21.29689         8.04811
     2015.96440        -2.24816         7.53591
     2016.56770         0.80089        14.98056
     2016.56931        -4.65379         8.35612
     2016.57337        36.93507        21.70310
     2016.57494         6.47934         7.88270
     2016.57768         7.31129         7.42754
     2016.58042         3.54824         7.80627
     2016.58316         0.26019         7.66025
     2016.58590         0.48914         7.78802
     2016.58863         0.52909         7.50967
     2016.59137         2.34903         7.92491
     2016.59411         1.40498         7.78231
     2016.59685        14.21593         8.00819
     2016.59958        10.70788         8.01845
     2016.60232         2.70183         7.63630
     2016.60506         0.28678         7.61006
     2016.60780        -2.70627         7.63630
     2016.61054         3.17467         7.97967
     2016.61327        -0.36438         7.91578
     2016.61601        -4.38143         7.67736
     2016.61875         6.30052         7.81312
     2016.62149         0.63647         7.52906
     2016.62423         1.71142         8.13367
     2016.62696         7.25436         7.68877
     2016.62970         0.52531         7.92263
     2016.63244        -0.24774         8.06637
     2016.63518         4.04621         7.73440
     2016.63791        10.96916         7.84620
     2016.64065        12.36511         7.67394
     2016.64339         5.46306         7.93974
     2016.64613         4.44800         7.86673
     2016.64887        -1.05805         7.97054
     2016.65160         5.04290         7.75037
     2016.65434         0.91285         7.59067
     2016.65708        -0.94120         7.63630
     2016.65982         0.59575         7.34882
     2016.66256         2.28370         7.80285
     2016.66529         5.49964         7.54275
     2016.66803        11.31959         7.61120
     2016.67077         6.73554         7.49028
     2016.67351         7.96149         7.59523
     2016.67624        15.57044         8.70976
     2016.67898        11.23839         8.99495
     2016.68172         6.61433         7.94430
     2016.68446        11.07928         9.21170
     2016.68720         7.68423         8.50784
     2016.68993         7.88118         7.69219
     2016.69267         7.29313         7.84506
     2016.73921         3.31125         7.34084
     2016.74195         7.51220         7.39902
     2016.74469         9.05315         7.49370
     2016.74743        10.70010         7.37392
     2016.75017        15.65105         7.54275
     2016.75290        10.09199         8.78619
     2016.75564        16.52994        10.28288
     2016.75838        18.33289         9.91783
     2016.76092         9.79655        13.00703
     2016.76386        13.09579         7.59067
     2016.76659        12.92374         7.83365
     2016.76933         9.13769         7.63516
     2016.77207         2.97563         7.87472
     2016.77481        14.04258         7.32715
     2016.77754        20.31753         7.34084
     2016.78028         7.67048         7.18683
     2016.78302        11.17343         8.12569
     2016.78576        27.23538         7.44008
     2016.78850        23.80132         7.81996
     2016.79123         9.91527         7.92491
     2016.79397        15.50222         7.45035
     2016.79671        10.14717         7.40472
     2016.79945         2.02112         7.38076
     2016.80219         6.72207         7.87015
     2016.80492        14.33602         7.46290
     2016.80766         9.97396         7.21307
     2016.81040        -2.77709         7.33856
     2016.81314         0.49486         8.02416
     2016.81587        15.49181         7.75494
     2016.81861         6.91576         8.16903
     2016.82135         4.25671         7.91692
     2016.82409        11.53265         7.20623
     2016.82683        16.66960         7.57241
     2016.82956        15.88955         7.99678
     2016.83230        13.93650         7.30661
     2016.83504         3.51045         7.16972
     2016.83778         1.81340         7.62489
     2016.84052        -0.52565         7.81882
     2016.84325         9.35229         7.61462
     2016.84599        -2.33476         7.65113
     2016.84873        17.95819         7.67850
     2016.85147        -1.90486         8.18501
     2016.85420        -2.37891         7.72756
     2016.85694         7.37104         7.95571
     2016.85968         3.00298         8.04127
     2016.86242        -0.21807         7.84163
     2016.86516         9.77788         8.51126
     2016.86789         1.05183         7.26327
     2016.87063        14.28978         7.74353
     2016.87337        20.72273         7.96598
     2016.87611         4.38768         7.29977
     2016.87885        -0.71338         7.34768
     2016.88158        -3.60643         7.60664
     2016.88432         1.28252         7.81654
     2016.88706         4.49747         7.78688
     2016.88980        12.56742         7.66025
     2016.89253         4.20737         7.50169
     2016.89527        -4.64168         7.60550
     2016.89801        -7.39574         7.57584
     2016.90075         1.55921         7.75494
     2016.90349         1.93316         7.70132
     2016.90622         5.45011         7.25984
     2016.90896         5.64506         7.64086
     2016.91170        -0.70299         7.19938
     2016.91444         1.37395         7.28494
     2016.91718        -8.09810         7.20965
     2016.91991       -12.58615         7.24159
     2016.92265         0.83980         7.55986
     2016.92539         5.41075         7.77775
     2016.92813        -7.82630         7.65455
     2016.93086       -10.63735         7.32259
     2016.93360        -4.46941         7.24958
     2016.93634        -4.67346         7.39788
     2016.93908        -2.14751         8.46449
     2016.94182         0.34944         7.93175
     2016.94455         3.21239         7.39902
     2016.94729         0.38934         7.30433
     2016.95003        -2.40272         7.20280
     2016.95277       -20.40377         7.46404
     2016.95551        -3.52182         8.22721
     2016.95824        -2.86887         7.48343
     2016.96098         1.17308         7.58952
     2016.96372        -6.75297         7.25072
     2016.96646        -5.55902         7.38989
     2016.97193        -7.33813         7.34084
     2016.97467         0.02782         7.51423
     2016.97741         0.73677         7.32829
     2016.98453        -2.09096        17.16056
     2016.99330        -7.88631         9.74672
     2016.99657        -0.24359         7.38076
     2016.99847        -4.50985        11.27648
     2017.62628         5.30756         8.24889
     2017.72210         4.63975         7.45491
     2017.72484        -1.14030         7.54503
     2017.72758         2.46665         7.50739
     2017.73032        -4.25040         7.66482
     2017.73305         4.80955         7.54846
     2017.73579         6.66050         7.71615
     2017.73853         1.86044         7.69105
     2017.74127         0.83239         7.50739
     2017.74401         3.46634         7.55644
     2017.74674         4.55929         7.57469
     2017.74948         5.07624         7.53249
     2017.75222         4.55419         7.84848
     2017.75496         0.18413         7.74695
     2017.84804       -19.20862         7.54161
     2017.85078        -7.58067         7.31118
     2017.85352        -1.82572         7.83479
     2017.85626         6.03723         8.06408
     2017.85900         0.88818         8.14166
     2017.86173         3.12113         8.01617
     2017.86447        -0.45393         7.53705
     2017.86721         3.68402         7.94316
     2017.86995        -5.55003         7.61918
     2017.87269         5.45392         7.90095
     2017.87542         2.16987         7.84620
     2017.87816        -5.90718         7.49598
     2017.88090         1.64076         7.33057
     2017.88364        -4.86129         7.64999
     2017.88637        12.84966         7.89753
     2017.88911        10.99661         7.85532
     2017.89185         6.95056         8.02530
     2017.89459         7.77351         7.97168
     2017.89733         5.48946         7.87586
     2017.90006        -0.77660         7.95229
     2017.90280        -1.47365         8.07663
     2017.90554         1.94830         7.70132
     2017.90828        -6.01575         7.67965
     2017.91102        -7.99380         7.49028
     2017.91375       -10.94785         7.45377
     2017.91649        -5.77791         7.48571
     2017.91923         2.66304         7.38647
     2017.92197       -17.76601         7.29863
     2017.92470       -13.46906         7.16060
     2017.92744       -11.95111         7.42183
     2017.93018        -1.68816         7.42754
     2017.93292        -8.38521         7.52336
     2017.93566        -6.79627         7.49598
     2017.93839        -1.44932         7.56557
     2017.94113        -4.69237         7.64314
     2017.94387        -5.50642         7.50283
     2017.94661        -2.71347         7.46632
     2017.94935        -0.00252         7.61006
     2017.95208        -3.91758         7.69105
     2017.95482        -9.43463         7.57926
     2017.95756        -6.10568         7.28038
     2017.96030        -5.22673         7.48800
     2017.96303        -4.02678         7.72642
     2017.96577         5.55517         7.76520
     2017.96851        -6.98688         7.30776
     2017.97125       -17.88494         7.21421
     2017.97399        -1.16299         7.42868
     2017.97672       -13.09204         7.30547
     2017.97946        -5.10209         7.44122
     2017.98220       -12.45514         7.81654
     2017.98494        -6.81619         7.20737
     2017.98767        -4.18425         7.54846
     2017.99041        -8.56530         7.83593
     2017.99315        -6.55335         7.66938
     2017.99589         3.54860         7.57013
     2017.99863        -2.53145         7.26098
     2018.00136       -10.39550         7.48229
     2018.00410       -14.24055         7.51195
     2018.00684        -9.60761         7.44122
     2018.00958        -7.38366         7.89753
     2018.01232         3.26829         7.86445
     2018.01505        -1.80876         7.37962
     2018.01779        -6.60581         7.55302
     2018.02053        -2.24286         7.67622
     2018.02327        12.47508         7.99678
     2018.02600        -2.93297         7.49142
     2018.02874         3.90798         7.69448
     2018.03148        -9.93407         7.68307
     2018.03422       -16.62212         7.61462
     2018.03696       -16.10317         7.49370
     2018.03969        -8.73022         7.76634
     2018.04243        -9.39828         7.67850
     2018.04517        -9.57033         8.08348
     2018.04791       -10.15738         8.14622
     2018.05065       -15.05243         7.36593
     2018.05338       -23.51648         7.66482
     2018.05612       -18.41053         7.47773
     2018.05886       -18.80458         7.44465
     2018.06160       -11.86264         7.58040
     2018.06433        -7.12369         8.05039
     2018.06707        -3.62974         7.62261
     2018.06981        -9.44579         7.33742
     2018.07255       -15.29384         7.64086
     2018.07529       -12.34789         7.93175
     2018.07802       -16.62495         7.98423
     2018.08076       -11.48900         8.01389
     2018.08350       -10.45905         7.34198
     2018.08624       -11.69610         7.73098
     2018.08898       -12.89215         8.16561
     2018.09171        -9.94520         7.72528
     2018.09445        -2.99025         7.73326
     2018.09719        -5.17731         7.89867
     2018.09993       -15.34136         7.63972
     2018.10266       -18.29641         7.75037
     2018.10540       -12.32246         8.12911
     2018.10814        -9.01351         7.67508
     2018.11088        -7.72556         7.65455
     2018.11362        -7.63062         7.38761
     2018.11635       -19.93067         7.46860
     2018.11909       -10.35672         7.54161
     2018.12183        -6.74377         7.80057
     2018.12457        -3.83582         7.40814
     2018.12731        -6.15487         7.38076
     2018.13004         1.52908         8.00362
     2018.13278        -2.20598         7.24045
     2018.13552       -14.70903         7.08987
     2018.13826        -9.86608         7.16972
     2018.14099       -14.69413         7.38419
     2018.14373       -12.17818         7.30776
     2018.14647        -7.55223         7.59637
     2018.14921       -14.62529         7.49142
     2018.15195        -6.97034         7.38305
     2018.15468       -14.86339         7.65113
     2018.15742        -6.53544         7.37050
     2018.16016        -4.84549         7.75265
     2018.16290        -4.18954         7.74809
     2018.16564       -18.66359         7.54389
     2018.16837       -10.60565         7.38419
     2018.17111       -12.11170         7.46290
     2018.17385       -10.84175         7.63516
     2018.17659        -6.35380         7.92263
     2018.17932        -3.69385         7.72984
     2018.18206         0.71010         8.38350
     2018.18480         2.36204         8.15535
     2018.18754        -9.26101         7.47317
     2018.19028       -10.27506         7.28836
     2018.19301        -9.93111         7.54846
     2018.19575        -0.03016         8.42114
     2018.19849       -15.95021         8.09488
     2018.20123         2.33974         7.65113
     2018.20397        -8.70632         7.25300
     2018.20670       -12.73537         7.37506
     2018.20944        -0.68242         7.33399
     2018.21218        -8.86347         7.43552
     2018.21492       -22.88352         7.49712
     2018.21765        -1.20957         7.41271
     2018.22039        -4.59363         8.10173
     2018.22313       -10.18068         7.50511
     2018.22587       -11.35073         7.63287
     2018.22861       -13.82878         7.26098
     2018.23134        -6.81883         7.47317
     2018.23408        -2.51588         7.81768
     2018.23682       -10.00293         7.51880
     2018.23956       -12.07999         7.44122
     2018.24230        -6.30804         7.68877
     2018.24503        -6.77309         7.50625
     2018.24777        -7.39114         7.71729
     2018.25051         5.62081         7.63173
     2018.25598        -2.62630         7.90894
     2018.25872        -1.37935         7.74923
     2018.26146         6.83760         8.20212
     2018.26420         2.73555         8.31733
     2018.26694        -6.53650         8.07207
     2018.26967       -11.53455         7.59979
     2018.27241        -7.24060         8.04697
     2018.27515         7.75334         8.05952
     2018.27789        -4.25071         7.88498
     2018.28062         1.54924         7.94773
     2018.28336        -9.34981         8.11770
     2018.28610        -5.80586         8.26372
     2018.28884         1.85509         8.05724
     2018.29158        -5.80896         8.12683
     2018.29431        -9.96602         8.03214
     2018.29705        -9.28107         7.68535
     2018.29979       -11.76812         7.41841
     2018.30253        -4.75517         8.09488
     2018.30527        -9.40922         7.74809
     2018.30800        -7.02627         7.48229
     2018.31074        -6.37633         7.64086
     2018.31348        -3.14138         8.01845
     2018.31622        -5.50043         8.07435
     2018.31895        -1.81748         8.35840
     2018.32169        -3.69553         7.52564
     2018.32443        -5.83758         7.40928
     2018.32717        -5.86163         7.47545
     2018.32991        -6.06269         7.99336
     2018.33264        -7.09674         7.58382
     2018.33538        -7.38879         7.84620
     2018.33812        -6.70384         8.25573
     2018.34086        -0.47789         7.74923
     2018.34360        -2.92194         8.22151
     2018.34633        -3.64200         7.72071
     2018.42847         0.03846         7.11953
     2018.43121         4.72041         7.27581
     2018.43394        -0.96764         7.02484
     2018.43696         1.71270         8.10743
     2018.43942        -3.84775         7.10356
     2018.44216         6.01520         7.05108
     2018.44490        -1.00485         6.95184
     2018.44763         7.86010         7.28836
     2018.45037         6.07005         7.01230
     2018.45311        -3.13001         6.97465
     2018.45585         1.67394         7.30661
     2018.45859        11.81889         7.33627
     2018.46132         6.79284         7.06819
     2018.46406         7.20079         7.10356
     2018.46680        -6.57426         7.24159
     2018.46954        -0.42131         7.09215
     2018.47227        -0.68337         7.25300
     2018.47501         2.46158         7.12865
     2018.47775         4.46953         7.11497
     2018.48049         2.82948         7.15831
     2018.48323        -4.50857         7.17999
     2018.48596        -2.97762         7.18455
     2018.48870        -0.55168         7.05793
     2018.49144         0.83927         7.03967
     2018.49418        11.45622         7.16174
     2018.49692         0.14917         7.13436
     2018.49965         8.97412         7.14006
     2018.50239        -0.93593         7.13322
     2018.50513        -4.55498         7.00545
     2018.50787         2.71396         7.17885
     2018.51060        -1.17709         7.28152
     2018.51334        -9.43214         7.22904
     2018.51608         5.80181         7.28380
     2018.51882         0.05876         7.15489
     2018.52156        -4.66529         7.03739
     2018.52429         6.32566         7.17314
     2018.52703         2.65460         7.05336
     2018.52977         6.38555         7.22790
     2018.61738         7.21090         7.45491
     2018.62017         4.85792         7.29293
     2018.62286         7.01380         7.54389
     2018.62559         2.01375         7.33742
     2018.62833         6.61870         7.29521
     2018.63107         9.93365         7.14463
     2018.63655         2.41754         7.31460
     2018.63928         3.11749         7.46176
     2018.64202        13.83344         7.32943
     2018.64476         8.75839         7.40130
     2018.64750         0.64234         7.19482
     2018.65023         1.95528         7.37848
     2018.65297         4.89923         7.08645
     2018.65571        11.67518         7.18912
     2018.65845         6.51413         7.19482
     2018.66119         7.26608         7.28266
     2018.66392         5.36903         7.19368
     2018.66666         3.72998         7.06021
     2018.66940         6.99892         7.15603
     2018.67214         0.07187         7.14577
     2018.67488         1.34582         7.22790
     2018.67761        11.00977         7.11040
     2018.68035         6.32072         7.39331
     2018.68309        -4.19233         7.41271
     2018.68583         8.10761         7.26098
     2018.68856         6.93756         7.20623
     2018.69130         1.90051         7.14577
     2018.69404         6.83046         7.17314
     2018.69678         7.45841         7.18227
     2018.69952         6.11736         7.08645
     2018.70225         0.34031         7.30661
     2018.70499        -2.99475         7.10128
     2018.70773        -1.30880         7.02827
     2018.71047         1.59215         7.15717
     2018.71321         7.31510         7.23589
     2018.73787         5.11968         6.98492
     2018.74058         5.55158         7.11497
     2018.74332        11.89153         7.24159
     2018.74606         8.46348         7.17200
     2018.76091        14.38390        18.06063
     2018.76522         4.79612         7.26555
     2018.76796        12.22207         7.13208
     2018.77070        19.85802         7.36708
     2018.77344        10.72297         7.21307
     2018.77618         1.55791         7.19140
     2018.77891         4.64586         7.25186
     2018.78165         3.61981         7.08531
     2018.78439        10.94876         7.11268
     2018.78713         5.08771         7.09557
     2018.78987        -2.54134         7.44465
     2018.79258         2.84358         7.11154
     2018.79536         9.16557         7.11611
     2018.79808        -1.16050         7.11154
     2018.80082         4.18845         7.14463
     2018.80355         7.45440         7.16174
     2018.80629         6.23235         7.36479
     2018.80903        11.20630         7.50739
     2018.81177         8.56924         7.60664
     2018.81451         9.04419         7.25870
     2018.81724         6.17814         7.04424
     2018.81998        19.19309         7.58724
     2018.82272        16.61104         7.24159
     2018.82546         6.29699         7.46518
     2018.82820         2.39494         7.04196
     2018.83093         4.34388         7.22562
     2018.83367        13.60683         7.30661
     2018.83641        15.61378         7.55530
     2018.83915         5.89073         7.09899
     2018.84188        16.03268         7.39559
     2018.84462         0.18063         7.25642
     2018.84736        -9.20943         7.23817
     2018.85010         2.09052         7.02599
     2018.85284         0.94947         6.89366
     2018.85557        -6.55258         7.06363
     2018.85831        -1.33763         7.16744
     2018.86105        -0.31068         6.98035
     2018.86379        -5.19073         7.28380
     2018.86653         0.82421         7.26327
     2018.86926        -8.98284         7.16174
     2018.87200         0.31511         7.23018
     2018.87474        -3.85694         7.19254
     2018.87748         6.13801         7.18341
     2018.88021        -1.33704         7.10926
     2018.88295        -3.05310         7.25984
     2018.88569         1.22685         7.31460
     2018.88843         0.53480         7.27695
     2018.89117         4.52075         7.38533
     2018.89390         8.23170         7.50169
     2018.89664       -10.52835         7.49256
     2018.89938         0.41760         7.27581
     2018.90212        -0.14646         7.30433
     2018.90485        14.54149         7.35339
     2018.90759         1.12044         7.69448
     2018.91033         2.45239         7.40700
     2018.91307         3.00634         7.53591
     2018.91581        -0.43471         7.10926
     2018.91854        -0.12577         7.57469
     2018.92128        -0.94982         7.04082
     2018.92402         4.88613         6.91191
     2018.92676         4.71508         6.74308
     2018.92950         4.98403         7.02599
     2018.93223         3.72098         6.97123
     2018.93497         8.27093         7.36023
     2018.93771         4.91887         7.45605
     2018.94045         2.02682         7.00659
     2018.94318         4.54177         7.03511
     2018.94592         3.33272         7.44351
     2018.94866        -4.64833         7.22790
     2018.95140        12.62162         7.57584
     2018.95414        12.31756         6.99633
     2018.95687         6.12851         7.22334
     2018.95961         8.32646         7.19710
     2018.96235        10.11541         7.13664
     2018.96509         2.11036         7.48343
     2018.96783         1.35431         7.27467
     2018.97056       -10.74174         7.04538
     2018.97330       -17.86280         6.94271
     2018.97604        -9.84985         7.36936
     2018.97878        -1.89390         7.18912
     2018.98151       -11.17495         7.44579
     2018.98425         0.19800         7.36251
     2018.98699       -11.94105         7.22220
     2018.98973        -0.31410         8.10401
     2018.99247        -8.34716         7.35225
     2018.99520        -5.83921         7.18341
     2018.99794       -12.58426         6.84004
     2019.00068       -11.72431         6.98492
     2019.00342        -7.59636         7.38305
     2019.00616         0.68959         7.30091
     2019.00889        -4.33347         7.31232
     2019.01163        -5.85752         7.31004
     2019.01437        -1.08457         6.99861
     2019.01674        -5.30715         8.19299
     2019.01984        -4.67567        13.12681
     2019.02258        -1.85272        11.88565
     2019.02532         4.49723        14.47976
     2019.02806        -2.15883         7.29178
     2019.03080        -2.35188        13.82838
     2019.03353        -5.85593         7.51423
     2019.03627        -7.36398         7.02484
     2019.03901         0.87597         6.97579
     2019.04175        -5.26608         7.26441
     2019.04449        -8.42114        13.30933
     2019.04592       -32.94507        89.90615
     2019.05661        -0.85865        22.54841
     2019.05730        -4.53266        12.64426
     2019.06204       -28.72681        18.82152
     2019.06365        -9.57750        12.45604
     2019.06639        -4.64355         8.64131
     2019.06913        -4.25160         7.37050
     2019.07186        -3.38865         7.31118
     2019.07460        -4.57570         7.28608
     2019.07734        -3.03275         7.25072
     2019.08008        -0.90581         7.31346
     2019.08282         1.28814         7.35795
     2019.08555         4.17009         7.31004
     2019.08829         7.08404         7.29521
     2019.09103        10.05199         7.31232
     2019.09377       -11.80306         7.16288
     2019.09650       -11.54811         7.14577
     2019.09924        -8.23517         9.28927
     2019.10198        -4.35422         6.93472
     2019.10472        -4.40427         6.84917
     2019.12225        17.70002        18.60591
     2019.42231        -6.47625         7.47773
     2019.42505        -5.00630         7.29977
     2019.42778         5.81665         7.72984
     2019.43052         2.53260         7.07276
     2019.43326       -13.09545         7.15375
     2019.43600       -20.25950         7.39103
     2019.43874       -21.58656         7.45948
     2019.44147       -15.90261         7.53363
     2019.44421       -10.90166         7.32259
     2019.44695       -18.35071         7.38305
     2019.44969       -10.49076         7.32487
     2019.45243       -21.02081         7.45948
     2019.45516        -8.63886         7.30776
     2019.45790       -12.94792         7.45035
     2019.46064       -15.54097         7.35909
     2019.46338       -16.82302         7.61462
     2019.46611       -17.61507         8.06180
     2019.46885       -14.81112         7.64656
     2019.47159        -7.06517         7.45149
     2019.47433       -14.34023         7.31802
     2019.47707       -11.03528         7.38305
     2019.47980       -10.96633         7.45377
     2019.48254       -21.09138         7.36365
     2019.48528       -10.36843         7.19482
     2019.48802       -20.73748         7.34426
     2019.49076       -10.19953         7.57926
     2019.49349        -3.37759         7.46746
     2019.49623         3.07936         7.55302
     2019.49897        -3.72769         7.46860
     2019.50171        -9.49474         7.31802
     2019.50444       -23.55279         7.21307
     2019.50718       -14.58284         7.27353
     2019.50992       -20.66690         7.41613
     2019.51266        -3.29095         7.75950
     2019.51540       -10.05400         7.43666
     2019.51813       -14.52005         7.39103
     2019.52087       -14.96410         7.37164
     2019.52361       -10.18615         7.37506
     2019.52635       -11.04920         7.51423
     2019.52908        -8.39926         7.50853
     2019.53182       -11.32831         7.42868
     2019.53456       -15.94036         7.54161
     2019.53730         3.43059         7.62375
     2019.54004        -2.14146         8.09603
     2019.54277        -2.57651         7.63059
     2019.54551       -12.19157         7.67850
     2019.54825        -7.24062         7.35795
     2019.55099        -7.75967         7.63744
     2019.55373        -3.33572         7.44807
     2019.55646         0.62423         7.79943
     2019.55920        -8.33982         7.97967
     2019.56194        -4.46187         7.48343
     2019.56468        -9.67093         7.80171
     2019.56741       -10.08798         7.47887
     2019.57015       -11.27103         7.83137
     2019.57289       -10.24308         7.58952
     2019.57563       -13.87413         7.72984
     2019.57837        -5.98118         7.85304
     2019.58110        -6.83924         7.51081
     2019.58384       -14.00629         7.79030
     2019.58658         3.20866         7.51423
     2019.58932        -2.21539         7.54275
     2019.59206        -2.70844         7.60550
     2019.59479        -1.73549         7.53591
     2019.59753         2.39346         7.85076
     2019.60027       -15.03660         8.15306
     2019.60301        -8.96965         7.62375
     2019.60574         1.80030         7.73440
     2019.60848        -2.03575         7.71615
     2019.61122       -17.59180         7.58382
     2019.61396       -12.86985         7.60207
     2019.61670        -7.66491         7.51309
     2019.61943         8.14704         7.57584
     2019.62217        10.77299         7.87814
     2019.62491        -0.46106         7.54161
     2019.62765        -6.18511         7.45605
     2019.63039        -0.75416         7.73440
     2019.63312        -7.41221         7.55188
     2019.63586        -2.64827         7.72756
     2019.63860         5.75268         8.00476
     2019.64134        -9.14937         7.44579
     2019.64407       -11.18842         7.41271
     2019.64681        -9.37047         7.45720
     2019.64955        -5.07252         7.88955
     2019.65229         2.49142         7.42069
     2019.65503       -13.14963         7.46746
     2019.65776        -5.59168         7.98537
     2019.66050         4.85327         7.74581
     2019.66324        -8.08178         7.62147
     2019.66598         0.88617         7.48115
     2019.66872        -0.06388         7.75608
     2019.67145        -2.20694         7.58838
     2019.67419        -5.57999         7.45720
     2019.67693        10.54296         7.98765
     2019.67967         5.90991         8.32874
     2019.68240         2.01186         7.56101
     2019.68514        -7.28319         7.48914
     2019.68788         8.96376         7.64086
     2019.69062         8.22970         7.35453
     2019.69336        -1.36135         7.33970
     2019.69609        -5.71040         7.35909
     2019.69883        -4.54445         7.55986
     2019.70157        -7.46150         7.21992
     2019.70431        -6.53255         7.36479
     2019.70705         0.31539         7.49826
     2019.70978        -2.25566         7.57127
     2019.71252        10.70329         7.70702
     2019.71526         7.58924         7.67850
     2019.71800        -7.31181         7.49826
     2019.72073        -2.03486         7.77775
     2019.72347        -5.32991         7.49256
     2019.72621        -0.08997         7.29407
     2019.72895         0.55098         7.26441
     2019.73169        -6.17007         7.61348
     2019.73442        -1.55912         8.03328
     2019.73716        18.82083         7.90666
     2019.73990        -7.62622         7.58610
     2019.74264       -15.69928         7.40130
     2019.74538        -0.66933         7.14348
     2019.75018        -1.46340         9.72162
     2019.75633         0.38247         6.96895
     2019.75906         0.14842         6.85943
     2019.76454        -0.54169         6.98834
     2019.76728         4.54726         7.10242
     2019.77002         0.67921         6.67691
     2019.77275        -1.39984         6.73851
     2019.77549         1.88311         6.96438
     2019.77823        -2.56595         6.85373
     2019.78097        -1.99500         6.95868
     2019.78371         4.72095         6.88225
     2019.78644         0.44490         7.00089
     2019.78918         1.69785         7.11382
     2019.79192         8.32480         7.24045
     2019.79466         9.09775         7.16516
     2019.79739         7.26469         7.21878
     2019.80013         4.34464         6.95298
     2019.80287         4.61559         7.20509
     2019.80561         5.09954         7.31574
     2019.80835        -7.79551         6.96895
     2019.81108        -0.40156         6.98150
     2019.81382        -3.10062         6.98035
     2019.81656         0.21133         7.02484
     2019.81930        -3.48872         6.73623
     2019.82203        -3.08677         6.72710
     2019.82477        -1.40082         6.64839
     2019.82751        -3.21387         6.72482
     2019.83025        -4.38192         7.28266
     2019.83299         1.72702         7.10128
     2019.83572         1.79297         7.02370
     2019.83846         2.28092         7.00659
     2019.84120         5.75687         7.08416
     2019.84394        -1.24318         7.20280
     2019.84668        -2.27823         6.92446
     2019.84941        -1.95429         6.91533
     2019.85215         0.06066         7.02142
     2019.85489        -3.70639         7.13664
     2019.85763         4.99656         7.05907
     2019.86036         1.62851         6.98035
     2019.86310        -1.86254         7.23132
     2019.86584         6.98241         7.25870
     2019.86858         0.60935         7.00773
     2019.87132         9.65430         7.37164
     2019.87405        10.81625         7.15831
     2019.87679         4.58220         7.17086
     2019.87953         6.02415         7.09329
     2019.88227        20.30610         7.02142
     2019.88501        -2.36396         7.12409
     2019.88774         0.51699         6.87997
     2019.89048         9.60594         6.98834
     2019.89322         9.41189         7.06933
     2019.89596        -2.57216         7.13094
     2019.89869        -2.63321         6.69288
     2019.90143        -1.35726         6.53317
     2019.90417        -2.76432         6.60162
     2019.90691        -5.24137         6.47728
     2019.90965        -8.14642         6.50694
     2019.91238         5.99353         6.51036
     2019.91512         9.24848         6.85259
     2019.91786        14.90443         6.95982
     2019.92060         7.19738         6.92218
     2019.92607         6.17427         6.88795
     2019.92881        -6.46478         7.07504
     2019.93155         8.99517         7.12865
     2019.93429         7.49812         7.14919
     2019.93702        -1.09693         7.02827
     2019.93976        -4.74199         6.95412
     2019.94250        -8.62804         7.01116
     2019.94524         2.89091         7.46518
     2019.94798       -10.57914         7.21535
     2019.95071        -6.20919         7.42183
     2019.95345         4.40476         6.88453
     2019.95619        -0.07329         6.94043
     2019.95893        -3.42635         7.02484
     2019.96167        -3.49340         6.93358
     2019.96440         3.56755         7.17314
     2019.96714         7.19450         7.19824
     2019.96988        -3.77955         7.15717
     2019.97262        -3.75960         6.99290
     2019.97535         0.05734         6.89023
     2019.97809        -2.30471         6.79897
     2019.98083        -3.21076         6.60961
     2019.98357        -9.69881         6.54914
     2019.98631        -8.43286         6.83890
     2019.98904        -4.85291         6.94271
     2019.99178         0.43804         7.04766
     2019.99452        -4.62502         6.92104
     2019.99726        -1.71107         7.05108
     2020.00000        14.82288         7.28950
     2020.00273        -3.89317         6.93130
     2020.00547         2.95478         7.34084
     2020.00821        -5.35827         7.18797
     2020.01095        -6.23133         6.85031
     2020.01368        -8.91638         6.90506
     2020.01642       -12.93343         7.12751
     2020.01916       -12.05848         6.89480
     2020.02190       -19.67153         6.95298
     2020.02464       -18.77058         6.91875
     2020.02737       -20.29263         6.94613
     2020.03011       -23.23369         6.78072
     2020.03456       -20.87728        14.88929
     2020.05045       -12.30636        18.70972
     2020.06686         7.36432        18.27281
     2020.06844         7.57759         6.98378
     2020.08056        18.81607        19.68166
     2020.08213        -3.01967         7.32373
     2020.08487        -3.44172         7.07504
     2020.09165       -25.39793       112.73747
     2020.09975        14.95074        19.88928
     2020.10130        -1.65003         7.04880
     2020.10403       -13.45708         6.67805
     2020.10677       -11.71113         6.71227
     2020.10951       -15.94618         6.94043
     2020.11225       -13.46523         6.80125
     2020.11498        -6.45228         6.80011
     2020.11772       -11.52134         6.97807
     2020.12046        -5.98839         7.06819
     2020.12320       -12.32144         6.88795
     2020.12594       -23.11449         7.26441
     2020.12867       -13.13554         6.77274
     2020.13141       -15.82559         6.66550
     2020.13415       -13.76364         6.58793
     2020.13689        -7.72270         7.14120
     2020.13963        -5.16275         7.07276
     2020.14236        -5.26080         6.86514
     2020.14510        -8.47385         6.99518
     2020.14784       -14.46590         6.61645
     2020.15058       -11.50095         6.82293
     2020.15331       -14.45200         6.93701
     2020.15605        -8.57206         6.95868
     2020.15879        -3.90911         6.85601
     2020.16153        -5.66516         6.83662
     2020.16427        -9.10021         6.66436
     2020.16700        -6.91526         6.77616
     2020.16974        -1.62931         6.86172
     2020.17248        -2.67337         6.80810
     2020.17522        -4.02142         6.77958
     2020.17796        -5.57947         6.66094
     2020.18069        -9.31952         6.68376
     2020.18343        -0.32257         6.76247
     2020.18617       -13.37062         6.75676
     2020.18891        -4.94067         6.83320
     2020.19164        -8.17173         6.89366
     2020.19438       -10.40578         6.94271
     2020.19712        -3.37183         6.88795
     2020.19986       -12.02988         6.81152
     2020.20260       -11.48993         6.69516
     2020.20533       -11.23798         6.82407
     2020.20807        -8.13504         6.90164
     2020.21081        -9.13309         6.75905
     2020.21355        -0.48814         7.43894
     2020.21629        -4.21919         7.44122
     2020.21902        -7.60924         7.02484
     2020.22176        -7.22129         6.90963
     2020.22450        -5.90234         6.96553
     2020.22724       -10.31640         6.76817
     2020.22997        -4.16745         6.72026
     2020.23271        -2.84750         6.70657
     2020.23545        -5.89955         6.67121
     2020.23819        -9.73660         6.99861
     2020.24093         0.01035         7.06249
     2020.24366         4.10729         6.99518
     2020.24640       -10.25176         6.93472
     2020.24914        -7.66981         6.88453
     2020.25188       -12.54486         6.75905
     2020.25462        -8.37991         6.80696
     2020.25735        -3.27396         6.85601
     2020.26009         5.65799         6.97351
     2020.26283         1.79093         7.01001
     2020.26557        -8.24812         7.01230
     2020.26830       -13.62417         7.00089
     2020.27104        -7.25022         7.26783
     2020.27378        -2.38127         7.21535
     2020.27652         0.23568         7.15946
     2020.27926        -9.47838         6.95868
     2020.28199       -11.60643         7.01800
     2020.28473       -12.99648         7.12181
     2020.28747       -10.01753         7.07732
     2020.29021        -7.06758         7.09899
     2020.29295        -3.51763         7.16060
     2020.29568         2.15832         7.00317
     2020.29842        -6.81874         7.00431
     2020.30116        -5.02379         7.11611
     2020.30390         0.61416         6.97921
     2020.30663         7.93411         7.31460
     2020.30937         6.95506         7.57013
     2020.31211        -4.18599         7.28836
     2020.31485        -1.79105         7.29521
     2020.31759        -0.49710         7.08645
     2020.32032         8.55185         6.86286
     2020.32306         8.70780         7.20052
     2020.32580        -4.56025         6.97807
     2020.32854        -6.77630         7.05108
     2020.33128        -8.93235         7.04310
     2020.33401         4.01859         6.97009
     2020.33675         0.25754         6.84004
     2020.33949        -2.62551         7.00317
     2020.34223       -11.41856         7.05679
     2020.34496        -6.71361         7.12637
     2020.34770       -11.33666         6.99861
     2020.35044        -6.90572         7.03169
     2020.35318        -9.41177         7.05907
     2020.35592        -2.73082         7.30091
     2020.35865        -8.62587         7.12409
     2020.36139        -5.80292         7.10812
     2020.36413        -0.41997         6.97009
     2020.36687         3.11598         7.24387
     2020.36961        -1.90808         7.23703
     2020.37234         0.94787         6.93815
     2020.37508         2.64182         7.06591
     2020.37782         8.86077         7.13094
     2020.38056         6.44572         7.19710
     2020.38329         3.77867         6.97009
     2020.38603        -4.27238         6.95754
     2020.38877        -2.03144         6.97465
     2020.39151        -8.80649         6.88909
     2020.39425        -5.76854         6.99290
     2020.39698        -6.16559         6.97237
     2020.39972        -8.82864         6.81951
     2020.40246        -7.98369         7.00887
     2020.40520        -9.34575         7.07390
     2020.40794        -2.95980         7.21649
     2020.41067         1.69115         7.37392
     2020.41341         5.75210         6.99633
     2020.41615        -7.86995         6.90849
     2020.41889        -8.84000         7.04196
     2020.42162        -9.66305         6.97123
     2020.42436        -8.47711         7.34426
     2020.42710         5.65984         7.43552
     2020.42984         4.61379         7.14006
     2020.43258        -2.80226         6.88795
     2020.43531        -9.83631         7.04880
     2020.43805        -6.43136         7.13550
     2020.44079        -7.40042         7.33285
     2020.44353        16.93353         7.27581
     2020.44626        -7.81752         7.06591
     2020.44900       -10.95657         7.05222
     2020.45174         3.95638         7.01001
     2020.45448         5.57733         7.18683
     2020.45722         5.24128         7.08987
     2020.45995        -1.77578         7.07846
     2020.46269       -10.33883         6.99633
     2020.46543        -5.98288         7.02599
     2020.46817        -6.18093         7.20280
     2020.47091        -1.60798         7.13322
     2020.47364        -8.71003         7.00203
     2020.47638        -5.21309         7.19938
     2020.47912        -3.51414         7.04766
     2020.48186        -0.70419         6.94841
     2020.48459        -4.92424         7.21992
     2020.48733         1.95871         7.62147
     2020.49281        -1.06339         7.17771
     2020.49555        -3.93545         7.15375
     2020.49828        -1.50450         7.09215
     2020.53388         2.54283         7.19026
     2020.53661        -3.80822         7.19596
     2020.53935        -0.62827         7.24159
     2020.54209         2.68568         7.34768
     2020.54483        -0.99537         7.21193
     2020.54757        -0.13043         7.33285
     2020.55030        -4.10448         7.34996
     2020.55304         1.90647         7.32487
     2020.55578         5.46042         7.23475
     2020.55852        15.70637         7.46176
     2020.56125         3.40832         7.20395
     2020.56399        -7.42473         7.22676
     2020.56673        -5.96479         7.29293
     2020.56947         4.25316         7.21763
     2020.57221         5.16211         7.46404
     2020.57494         4.71206         7.33970
     2020.57768         7.69401         7.33171
     2020.58042        -4.21904         7.43438
     2020.58316         1.21390         7.36137
     2020.58590         5.00685         7.23817
     2020.58863        -3.93520         7.24045
     2020.59137        -6.96925         7.28494
     2020.59411         4.40170         7.43096
     2020.59685         1.86965         7.94202
     2020.59958        -0.48340         7.30433
     2020.60232         3.72054         7.27467
     2020.60506        -3.39751         7.30433
     2020.60780        -4.53856         7.26212
     2020.61054         2.47439         7.31460
     2020.61327         4.18934         7.27695
     2020.61601         3.61329         7.20052
     2020.61875        -3.85176         7.41157
     2020.62149        -5.12282         7.48115
     2020.62423         5.22613         7.48457
     2020.62696        -2.72892         7.32144
     2020.62970         8.28803         7.37962
     2020.63244        -0.34002         7.45948
     2020.63518         7.44593         7.35795
     2020.63791        -0.46913         7.38305
     2020.64065         1.67782         7.30091
     2020.64339        -0.64423         7.35225
     2020.64613        -1.05928         7.49142
     2020.64887        -8.89333         7.53363
     2020.65160         0.81962         7.34198
     2020.65434        -0.53343         7.36137
     2020.65708         1.62951         7.30890
     2020.65982         2.58746         7.40130
     2020.66256        -1.15059         7.21649
     2020.66529         4.93736         7.23931
     2020.66803         1.22231         7.43210
     2020.67077         8.92926         7.31802
     2020.67351         3.61320         7.33513
     2020.67624        -0.06085         7.13436
     2020.67898        -6.62390         7.46290
     2020.68172        -0.87495         7.26098
     2020.68446         7.50200         7.37506
     2020.68720         7.00495         7.32943
     2020.68993         2.62390         7.16174
     2020.69267         2.64484         7.43666
     2020.69541         1.90079         7.48457
     2020.69815         4.59874         7.43780
     2020.70089        10.23969         7.30433
     2020.70362        -3.41336         7.37734
     2020.70636        -3.20641         7.56557
     2020.70910        -4.85147         7.80969
     2020.71184         0.05748         7.48571
     2020.71457        11.51543         7.57469
     2020.71731        13.30238         7.50397
     2020.72005         3.01533         7.46860
     2020.72553         2.67923         7.32144
     2020.72826        -4.08083         7.31802
     2020.73100         9.90012         7.56329
     2020.73374         3.57307         7.36822
     2020.73648        20.94902         7.49142
     2020.73921         8.28597         7.35681
     2020.74195         2.24892         7.21193
     2020.74469         3.29686         7.21421
     2020.74743         0.57881         7.25072
     2020.75017         4.31676         7.25300
     2020.75290         3.90271         7.27011
     2020.75564         2.58166         7.19710
     2020.75838        10.14261         7.17314
     2020.76112         6.13756         7.21878
     2020.76386         4.29650         7.16630
     2020.76659        12.11545         7.19482
     2020.76933        19.96740         7.37734
     2020.77207         8.62935         7.11953
     2020.77481        21.23230         7.35453
     2020.77754         7.68125         7.32601
     2020.78028        21.50819         7.38647
     2020.78302        18.94514         7.44465
     2020.78576        12.00609         7.13892
     2020.78850         3.44104         7.25414
     2020.79123         4.19699         7.26669
     2020.79397         0.61594         7.23132
     2020.79671         3.28989         7.21307
     2020.79945        12.12983         7.18341
     2020.80219         8.23478         7.39902
     2020.80492         6.41373         7.28608
     2020.80766         8.02068         7.08531
     2020.81040         6.82663         7.27125
     2020.81314        17.83058         7.25186
     2020.81587         2.78953         6.70315
     2020.81861         8.45347         6.95982
     2020.82135         4.91142         7.24159
     2020.82409         6.32037         7.24729
     2020.82683         4.74132         7.40814
     2020.82956         6.89827         7.51537
     2020.83230        16.89222         7.50054
     2020.83504         9.70616         7.29293
     2020.83778        12.55611         7.17200
     2020.84052        10.31006         7.17885
     2020.84325         2.62701         7.31916
     2020.84599        16.71496         7.24045
     2020.84873        17.93691         7.21307
     2020.85147         3.59986         7.19938
     2020.85420        10.84880         6.94727
     2020.85694        17.36375         6.94271
     2020.85968        14.38870         7.04196
     2020.86242         6.27465         7.05108
     2020.86516         8.09960         7.16402
     2020.86789        19.34555         7.40130
     2020.87063         8.31649         7.09785
     2020.87337       -10.46156         7.70702
     2020.87611        33.42839         7.56443
     2020.87885        14.48734         7.41385
     2020.88158        12.03229         7.53933
     2020.88432        -7.68876         7.01116
     2020.88706         7.34019         7.21649
     2020.88980        11.87213         7.27353
     2020.89253         6.68408         7.19596
     2020.89527         5.69103         7.15946
     2020.89801         6.57898         7.38076
     2020.90075         2.55393         7.03055
     2020.90349        10.42988         7.11382
     2020.90622         6.19082         7.35110
     2020.90896        -5.74023         7.71501
     2020.91170         5.79872         7.56215
     2020.91444         7.75267         7.41955
     2020.91718         6.53262         6.85715
     2020.91991         1.78257         7.07732
     2020.92265        -3.01948         7.38305
     2020.92539        -0.93154         7.28836
     2020.92813        -6.20159         7.43780
     2020.93086        -5.91264         7.34312
     2020.93360         3.72931         7.18227
     2020.93634        -3.11674         7.28950
     2020.93908         1.25921         7.21649
     2020.94182        -5.41285         7.02370
     2020.94455        -1.79190         6.77730
     2020.94729        -3.38695         6.85715
     2020.95003        -3.54700         7.41385
     2020.95277       -12.08605         7.14348
     2020.95551         0.83690         7.17543
     2020.95824        -1.11415         7.33399
     2020.96098        -3.69221         7.42868
     2020.96372       -14.91026         7.36251
     2020.96646         3.12569         7.46062
     2020.96919        17.09764         7.59523
     2020.97193         6.90259         7.39902
     2020.97467         2.46554         7.29293
     2020.97741       -10.48552         6.85829
     2020.98015       -10.19357         7.75265
     2020.98288         0.24738         7.65227
     2020.98562         1.81433         7.11611
     2020.98836         3.04928         6.88339
     2020.99110         2.47623         6.83320
     2020.99384         1.03318         6.94499
     2020.99657        -1.93288         7.17200
     2020.99931        -2.25893         6.97921
     2021.00205        -6.66398         7.21079
     2021.00479        10.33797         7.19596
     2021.00752        17.24192         7.53477
     2021.01026        20.16587         7.34996
     2021.01300         3.37381         6.90050
     2021.01574        14.18676         7.47317
     2021.01848         0.16571         7.22334
     2021.02121        -0.09934         7.47887
     2021.02395         1.51261         6.83206
     2021.02669        -4.40144         7.19026
     2021.02943        -1.81849         7.29064
     2021.03216        12.87645         7.42411
     2021.03490        19.21840         7.55188
     2021.03764        -4.38365         7.32487
     2021.04038         4.74530         7.42868
     2021.04312        -4.25475         7.21079
     2021.04585        -1.54880         7.29977
     2021.04859         1.87515         7.19026
     2021.05133         4.74409         6.81038
     2021.05407        -5.21896         7.38989
     2021.05681         3.07199         7.36023
     2021.05954         0.58694         7.11154
     2021.06228         3.40189         6.70771
     2021.06502         3.09084         6.70315
     2021.06776         3.99078         6.75106
     2021.07049         4.03973         6.51378
     2021.07323         6.10068         6.86856
     2021.07597        -5.88837         7.20623
     2021.07871         3.88158         6.97351
     2021.08145         3.22153         7.03283
     2021.08418        -1.65952         7.38761
     2021.08692        -5.15758         7.32030
     2021.08966        -6.51563         7.23475
     2021.09240       -11.68768         6.73737
     2021.09514        -5.22573         7.12980
     2021.09787         5.33722         7.37734
     2021.10061         2.90317         7.10470
     2021.10335        -2.44889         7.07048
     2021.10609        -4.97094         6.85373
     2021.10882        -2.30799         7.27695
     2021.11156         1.00096         7.08188
     2021.11430        -4.82609         7.32373
     2021.11704        -0.81214         7.01572
     2021.11978        -0.83919         7.34882
     2021.12251        -5.18325         7.14348
     2021.12525         4.63470         7.50397
     2021.12799        -7.34435         7.12295
     2021.13073        -2.20840         7.06819
     2021.13347        -2.73645         7.17885
     2021.13620       -15.37750         7.52336
     2021.13894        -4.50556         7.00431
     2021.14168         0.82339         7.11040
     2021.14442        -7.06466         7.19938
     2021.14715        -1.84271         7.02827
     2021.14989        -2.88676         6.70771
     2021.15263         6.33119         7.43894
     2021.15537        -5.33586         7.06819
     2021.15811       -10.57692         7.16402
     2021.16084        -2.45097         7.05336
     2021.16358        -6.47502         7.34198
     2021.16632        -3.18707         7.44693
     2021.16906         7.20588         7.20395
     2021.17180        -7.00617         7.15033
     2021.17453        -8.22823         7.51880
     2021.17727         1.53472         7.21878
     2021.18001        -5.60133         6.94841
     2021.18275         1.86262         7.46176
     2021.18548       -10.47243         6.82863
     2021.18822        -7.78548         6.71912
     2021.19096        -5.92053         6.99404
     2021.19370        -7.88659         7.18912
     2021.19644        -4.92964         7.16060
     2021.19917         0.60231         7.23018
     2021.20191        -4.89874         6.98378
     2021.20465         4.59721         6.82293
     2021.20739        -4.22384         6.93587
     2021.21013        -5.84190         7.42868
     2021.21286        -0.53995         7.28494
     2021.21560        -4.95100         7.01001
     2021.21834        -4.71005         6.84118
     2021.22108        -2.22310         7.03967
     2021.22381        -3.66715         6.88909
     2021.22655        -3.34020         7.03169
     2021.22929        -3.11926         6.94955
     2021.23203         8.50269         6.89594
     2021.23477        -2.16036         7.12409
     2021.23750        -5.16241         7.35453
     2021.24024         0.44654         6.85487
     2021.24298        -5.85051         6.74536
     2021.24572        -7.90557         7.06249
     2021.24846        -1.59462         7.23931
     2021.25119         1.21033         7.32030
     2021.25393        -5.24672         7.14919
     2021.25667        -1.51277         7.11725
     2021.25941         7.75918         6.90392
     2021.26214         4.13713         6.95526
     2021.26488        -2.68793         7.22790
     2021.26762         5.09502         7.26441
     2021.27036         0.63097         7.06705
     2021.27310         4.53592         7.14463
     2021.27583        -2.07813         6.80354
     2021.27857        -2.61318         7.19026
     2021.28131        -7.05123         7.08531
     2021.28405        -1.00729         7.06591
     2021.28679         5.04766         7.20623
     2021.28952         5.13061         7.28722
     2021.29226        -0.37544         7.30547
     2021.29500         1.39651         7.37392
     2021.29774         0.96246         7.42868
     2021.30047        -2.16260         7.22676
     2021.30321         8.49035         7.20623
     2021.30595         8.09930         7.48001
     2021.30869        13.90025         7.39217
     2021.31143        17.70620         7.40814
     2021.31416         4.51815         7.14919
     2021.31690        -5.00890         7.42754
     2021.31964         9.00904         7.29407
     2021.32238         7.48499         7.49712
     2021.32512        -3.47406         7.15489
     2021.32785        -3.23111         7.15946
     2021.33059        10.13084         7.24045
     2021.33333         9.22879         7.33627
     2021.33607         0.50873         7.30661
     2021.33880         8.92368         7.31004
     2021.34154        -3.83437         7.25414
     2021.34428         1.31058         7.66824
     2021.34702       -12.39747         7.38533
     2021.34976         2.09448         7.11839
     2021.35249        -4.14957         7.26783
     2021.35523        -2.39363         7.16516
     2021.35797        -0.62868         7.22334
     2021.36071        -5.33373         7.26669
     2021.36344        -2.10578         7.32259
     2021.36618        -3.44883         7.39674
     2021.36892       -10.29788         7.28722
     2021.37166         3.32906         7.39331
     2021.37440         2.13801         7.38305
     2021.37713        10.56396         7.46518
     2021.37987        -1.41009         7.48686
     2021.38261        -1.17614         7.47887
     2021.38535        -3.42619         7.43210
     2021.38809       -14.28424         7.58952
     2021.39082        10.75170         7.46974
     2021.39356         5.27865         7.49940
     2021.39630         3.28760         7.41499
     2021.39904        -0.72245         7.50625
     2021.40177        -3.79450         7.35909
     2021.40451        -2.77955         7.51081
     2021.40725         5.29239         7.51423
     2021.40999        -1.30366         7.41955
     2021.41273        -0.92571         7.36936
     2021.41546        -8.59476         7.55986
     2021.41820        -8.78681         7.47659
     2021.42094        14.91214         7.68877
     2021.42368         4.75809         7.68649
     2021.42642         0.27803         7.47659
     2021.42915         4.15098         7.65911
     2021.43189         0.20093         7.49598
     2021.43463         9.57688         7.37962
     2021.43737         9.24583         7.51652
     2021.44010        15.64678         7.58838
     2021.44284         3.47372         7.55302
     2021.44558         9.48467         7.82680
     2021.44832        -5.81838         7.80171
     2021.45106         5.66357         7.85532
     2021.45379        28.92152         7.69676
     2021.45653         6.46847         7.56101
     2021.45927         6.76142         7.47317
     2021.46201         5.98836         7.36479
     2021.46475        -3.70069         7.68535
     2021.46748        -1.08674         7.60435
     2021.47022        12.67921         7.71501
     2021.47296         8.86416         7.88384
     2021.47570        15.93611         7.62717
     2021.48117        -7.20300         7.59637
     2021.48391         3.17895         7.76064
     2021.48665         3.45190         7.76977
     2021.48939         7.87585         7.93061
     2021.49212         4.19680         7.71273
     2021.49486         5.05675         7.81197
     2021.49760        10.63269         8.33216
     2021.50034         6.92464         7.88726
     2021.50308         5.82659         8.05952
     2021.50581         1.26454         7.96141
     2021.50855         1.36249         7.92263
     2021.51129         9.84044         7.79144
     2021.51403         1.89539         7.94088
     2021.51676         9.36533         7.67280
     2021.51950         7.06528         8.08918
     2021.52224         0.22723         7.84962
     2021.52498         3.70718         7.68763
     2021.52772         6.63413         7.91464
     2021.53045        10.75708         7.84848
     2021.53319        14.95502         7.94088
     2021.53593         0.90997         8.23406
     2021.53867         8.94892         8.37323
     2021.54141        -1.54213         7.89867
     2021.54414        -1.90318         8.05039
     2021.54688        -1.00023         7.75037
     2021.54962         5.44772         7.89183
     2021.55236        -1.67434         7.92833
     2021.55509        -2.35939         7.96141
     2021.55783        -1.50744         7.85190
     2021.56057         4.58751         7.78688
     2021.56331         3.94346         7.88042
     2021.56605         2.59041         7.86331
     2021.56878         7.59935         7.93518
     2021.57152        14.23130         7.91807
     2021.57426        -7.78975         8.00705
     2021.57700        14.32920         8.18044
     2021.57974        -4.00085         7.77661
     2021.58247         1.75210         8.07321
     2021.58521        12.29705         8.53180
     2021.58795        -3.11901         8.06294
     2021.59069        -4.69606         7.89297
     2021.59342        -1.90611         7.83479
     2021.59616        -0.26016         8.15420
     2021.59890         2.47779         7.95229
     2021.60164         5.13474         7.97853
     2021.60438         1.32068         7.66938
     2021.60711         0.96263         7.78688
     2021.60985       -14.02242         7.71501
     2021.61259        -0.12047         7.85875
     2021.61533         4.32248         7.92149
     2021.61807         5.48943         7.65569
     2021.62080         2.17038         7.68991
     2021.62354         2.12132         7.88156
     2021.62628         3.88527         7.83023
     2021.62902        -1.61078         7.54503
     2021.63175         2.26717         7.75494
     2021.63449         4.97212         7.55758
     2021.63723         6.33607         7.82224
     2021.63997        -6.97099         7.55872
     2021.64271        -2.81304         7.78460
     2021.64544         3.07191         7.63630
     2021.64818        -0.04514         7.84163
     2021.65092         6.81581         7.47317
     2021.65366        -2.14924         7.51537
     2021.65639        -2.28829         7.43096
     2021.65913        -5.14035         7.80285
     2021.66187        -4.34140         7.63173
     2021.66461         7.39755         7.56899
     2021.66735         0.57450         7.68193
     2021.67008        -1.40955         7.63630
     2021.67282         3.08140         7.98195
     2021.67556        -3.60266         8.11428
     2021.67830        -6.34371         8.04811
     2021.68104         2.09624         7.68877
     2021.68377         3.28819         7.76292
     2021.68651         5.06214         7.72642
     2021.68925         3.79209         7.71843
     2021.69199        20.75304         7.97282
     2021.69472         7.94398         7.82909
     2021.69746         5.37793         7.77205
     2021.70020         9.50388         7.59751
     2021.70294         1.54183         7.72299
     2021.70568         1.09778         7.45035
     2021.70841        -2.22327         7.57584
     2021.71115         1.33767         7.56899
     2021.71389        13.18162         8.06637
     2021.71663        11.35657         7.68877
     2021.71937         2.25652         7.56557
     2021.72210       -11.17853         7.54389
     2021.72484       -10.64358         7.70360
     2021.72758        10.79937         7.54960
     2021.73032        -4.20869         7.88841
     2021.73305         1.52426         7.57241
     2021.73579         9.45521         7.60550
     2021.73853        12.47716         7.45377
     2021.74127        18.42711         7.91350
     2021.74401         5.44406         7.71387
     2021.74674         2.18801         7.50625
     2021.74948         3.66895         7.78460
     2021.75222         1.05790         7.58724
     2021.75496         1.84085         7.62375
     2021.75770         0.30380         7.59181
     2021.76043        11.99475         7.60321
     2021.76317         8.14070         7.65569
     2021.76591         3.08564         7.46404
     2021.76865        -5.28441         7.46290
     2021.77138         4.57854         7.44921
     2021.77412        10.57749         7.47088
     2021.77686        11.44644         7.27581
     2021.77960         8.47139         7.34882
     2021.78234        -8.05766         7.55416
     2021.78507         1.14828         7.23246
     2021.78781         2.06523         7.59409
     2021.79055         5.84118         7.62147
     2021.79329         6.75313         7.63744
     2021.79603        12.88508         7.54618
     2021.79876        -7.18897         7.57698
     2021.80150        16.67397         8.08918
     2021.80424        12.29592         7.73782
     2021.80698        25.67287         7.64999
     2021.80971        11.75682         7.55188
     2021.81245        20.85377         8.04355
     2021.81519        14.49072         7.70018
     2021.81793        17.70667         7.68079
     2021.82067         8.66261         7.95115
     2021.82340        32.19256         7.95229
     2021.82614        11.35151         7.92947
     2021.82888        18.65646         7.86331
     2021.83162         9.20541         7.60093
     2021.83436        14.36436         7.61804
     2021.83709        27.39430         7.83593
     2021.83983        -6.22975         8.02530
     2021.84257        19.74720         8.01161
     2021.84531        13.77015         7.69790
     2021.84804         3.82310         7.85646
     2021.85078        -3.21995         7.31118
     2021.85352         5.15100         7.21535
     2021.85626         4.17794         7.68877
     2021.85900         8.81189         7.26897
     2021.86173        24.62984         7.76977
     2021.86447         5.16979         8.05268
     2021.86721        18.52674         7.86901
     2021.86995         5.80169         7.94316
     2021.87269         4.28763         7.99564
     2021.87542         3.45058         7.54047
     2021.87816         1.06753         6.93929
     2021.88090        -5.26652         7.59751
     2021.88364        13.52343         7.65113
     2021.88637        -5.53862         7.19482
     2021.88911        -7.86067         7.42754
     2021.89185        -8.68773         7.57127
     2021.89459        -0.14478         7.46746
     2021.89733       -13.49883         6.95640
     2021.90006       -14.46688         7.43780
     2021.90280         3.87607         7.67394
     2021.90554        10.99702         7.45263
     2021.90828        14.36796         7.72071
     2021.91102        -1.13409         7.62717
     2021.91375        -5.31714         7.59865
     2021.91649        -5.03319         7.53249
     2021.91923         4.42176         7.84620
     2021.92197        -5.41429         7.90666
     2021.92470        -5.12434         7.61918
     2021.92744        11.68660         7.66367
     2021.93018         1.19555         7.68877
     2021.93292        24.58450         8.01389
     2021.93566        18.73845         8.07549
     2021.93839         0.44640         7.46974
     2021.94113         2.52735         7.41613
     2021.94387         4.85329         7.43666
     2021.94661       -13.86476         7.44008
     2021.94935       -13.52281         7.29977
     2021.95208       -14.75186         7.05565
     2021.95482       -12.31491         7.13778
     2021.95756        -8.94296         7.36593
     2021.96030        -6.44701         7.45149
     2021.96303         2.89193         7.59295
     2021.96577        19.54988         7.90209
     2021.96851         3.30183         7.86673
     2021.97125         0.32178         8.01503
     2021.97399         3.87973         8.09603
     2021.97672         7.50868         7.70588
     2021.97946        11.19963         7.10470
     2021.98220         4.59357         7.15717
     2021.98494        -7.85748         7.24273
     2022.00264        18.29906        28.86027
     2022.00410         2.55716        11.20576
     2022.01630        -4.35725        29.17969
     2022.02177         9.31365        24.65084
     2022.02327        -6.55420         9.08963
     2022.02600       -15.73625         7.78003
     2022.03273        19.49145        26.53311
     2022.03810        -0.95681        18.32985
     2022.03969       -15.68851         8.44738
     2022.04243        -5.33656         7.72984
     2022.04517        -1.98561         7.60892
     2022.04791        -4.34966         7.52792
     2022.05729       -28.92414        22.64081
     2022.05886        -8.34987         7.58382
     2022.06160       -17.53792         7.63630
     2022.06433         0.39803         7.61348
     2022.06707        -3.31002         7.55074
     2022.06981         0.28992         7.55530
     2022.07255        -3.49713         7.42069
     2022.07529        -6.38618         7.46062
     2022.07802        -3.43123         7.25528
     2022.08076         2.21072         7.31460
     2022.08350         6.28567         7.14919
     2022.08624         0.10262         6.89252
     2022.08898         2.32256         6.97921
     2022.09171        -1.49749         7.38647
     2022.09445        -9.28954         7.45149
     2022.09719        -1.30859         7.15603
     2022.09993        -4.34764         7.40586
     2022.10266        -2.82069         7.66938
     2022.10540        -5.59975         7.50054
     2022.10814        -1.21080         7.45035
     2022.11088        -0.86285         7.39788
     2022.11362         3.43810         7.28722
     2022.11635         8.16205         7.41613
     2022.11909        -4.15500         7.54618
     2022.12183         4.54795         7.60778
     2022.12457         9.35289         7.12181
     2022.12731         6.11884         7.09329
     2022.13004        -2.65221         7.11611
     2022.13278        -6.76626         7.48914
     2022.13552         0.89569         7.29749
     2022.13826        -2.16736         7.41271
     2022.14099         0.02858         6.80125
     2022.14373       -12.50747         6.73167
     2022.14647         3.38748         6.65638
     2022.14921         3.51543         7.05793
     2022.15195         5.31738         7.14006
     2022.15468         6.07933         7.21535
     2022.15742        -5.26072         7.49370
     2022.16016         6.36722         7.57355
     2022.16290         6.64617         7.82338
     2022.16564        17.74012         7.67850
     2022.16837        -6.93393         7.47317
     2022.17111        -3.31198         6.91875
     2022.17385        -2.30303         7.19482
     2022.17659        -1.02509         7.09101
     2022.17932        -4.81714         6.94271
     2022.18206        -9.09019         7.21079
     2022.18480         0.80876         6.93472
     2022.18754         0.27771         7.01344
     2022.19028        -1.49534         7.58838
     2022.19301         1.83861         7.51309
     2022.19575         8.55355         7.15489
     2022.19849        -9.26850         7.41271
     2022.20123         8.14545         7.75836
     2022.20397        10.89740         7.15946
     2022.20670         1.78735         7.68193
     2022.20944        -2.35370         7.77091
     2022.21218         2.87925         7.57584
     2022.21492        -5.63281         7.05108
     2022.21765         1.13114         7.22676
     2022.22039         8.70709         7.42411
     2022.22313         0.84304         7.68649
     2022.22587        -1.12301         7.61006
     2022.22861        -3.96106         7.48800
     2022.23134         1.30188         7.41727
     2022.23408         7.71883         7.34084
     2022.23682         4.91278         7.54960
     2022.23956         3.79173         7.46860
     2022.24230        -3.93432         7.52906
     2022.24503         8.47163         7.22220
     2022.24777         3.30958         7.36251
     2022.25051         1.27552         7.35339
     2022.25325        -3.48153         7.58610
     2022.25598        -1.19158         7.37734
     2022.25872         5.54137         7.15147
     2022.26146        -1.47568         7.25414
     2022.26420         3.01527         7.55416
     2022.26694       -10.18679         7.90438
     2022.26967         0.44216         7.10470
     2022.27241         8.05811         7.09557
     2022.27515         5.68306         7.16402
     2022.27789         5.26201         6.97465
     2022.28062         1.02196         6.89822
     2022.28336         3.95491         7.05679
     2022.28610         5.06685         7.23703
     2022.28884       -13.97720         7.23018
     2022.29158        -8.44925         7.07048
     2022.29431        -3.12930         7.42525
     2022.29705        -2.53735         7.23931
     2022.29979         6.81760         7.17999
     2022.30253        -1.93946         7.59409
     2022.30527         2.12549         7.45377
     2022.30800         1.12344         7.52564
     2022.31074        -1.67361         7.47203
     2022.31348       -14.04266         7.48800
     2022.31622        -6.68071         7.39902
     2022.31895       -15.90876         7.36137
     2022.32169         3.57518         7.58610
     2022.32443         0.16113         7.43096
     2022.32717         8.56008         7.71615
     2022.32991        -5.63397         7.44579
     2022.33264        -1.70502         7.68763
     2022.33538        -4.10107         7.55188
     2022.33812        -3.99913         7.87244
     2022.34086        19.63282         7.61120
     2022.34360        14.59877         7.69904
     2022.34633         1.03072         7.88156
     2022.34907        -4.10533         7.08759
     2022.35181        -2.00438         7.04424
     2022.35455         1.83557         7.36822
     2022.35728        -1.52549         7.47659
     2022.36002         3.27846         7.58040
     2022.36276         1.19541         7.48800
     2022.36550         8.91036         8.04013
     2022.36824        -8.30369         7.59181
     2022.37097         1.13326         7.46176
     2022.37371        -7.05080         7.48457
     2022.37645        -1.09785         7.59295
     2022.37919         8.55510         7.80513
     2022.38193        -2.52195         7.48571
     2022.38466         0.93400         7.38761
     2022.38740       -14.98405         7.66482
     2022.39014         3.73290         7.70816
     2022.39288        -0.31716         7.32259
     2022.39561        -3.18321         7.66139
     2022.39835        -3.46326         7.42411
     2022.40109        15.65969         7.74011
     2022.40383        17.99564         7.87814
     2022.40657         9.48359         7.35795
     2022.40930        -4.61047         7.56899
     2022.41204        11.42948         7.62033
     2022.41478         1.89943         7.39217
     2022.41752        -5.53562         7.84278
     2022.42026         8.05533         7.75836
     2022.42299        20.12228         7.82566
     2022.42573        23.81923         8.07891
     2022.42847        10.52717         7.77091
     2022.43121         9.48812         7.69448
     2022.43394         5.86107         7.74581
     2022.43668        -6.90798         7.50397
     2022.43942        -0.29103         7.64656
     2022.44216        24.89992         7.78688
     2022.44490        28.31787         7.94773
     2022.44763        10.78681         7.33970
     2022.45037        -3.82824         7.26555
     2022.45311        -8.61129         7.58610
     2022.45585         0.80166         7.39217
     2022.45859        -7.53139         7.66482
     2022.46132         5.09256         7.64884
     2022.46406        -4.22650         7.48914
     2022.46680         0.03245         7.41727
     2022.46954        -1.69760         7.54846
     2022.47227       -11.03265         8.22950
     2022.47501         4.59330         7.63630
     2022.47775        -4.36875         7.72414
     2022.48049        -4.46480         7.67052
     2022.48323        11.16414         7.52336
     2022.48596        15.25909         7.65911
     2022.48870         1.58604         7.95685
     2022.49144        -0.05901         7.57355
     2022.49418        -6.89706         7.86559
     2022.49692         2.61689         7.55302
     2022.49965         0.47383         7.82224
     2022.50239         5.99178         7.75380
     2022.50513         8.37173         8.26714
     2022.50787        10.17668         7.97853
     2022.51060        -8.00037         7.91008
     2022.51334        -1.22742         7.76064
     2022.51608        -2.43247         7.74239
     2022.51882        -8.00653         7.82680
     2022.52156        -0.57558         7.80057
     2022.52429        -5.04363         7.59751
     2022.52703         2.69532         7.68079
     2022.52977         7.84727         7.95001
     2022.53251        -4.44378         8.03328
     2022.53525       -12.48384         7.83251
     2022.53798        -8.33789         7.95229
     2022.54072         2.41206         7.77319
     2022.54346        -3.07899         7.88498
     2022.54620        -2.04904         7.58268
     2022.54893        -5.49709         7.87472
     2022.55167        -7.52014         7.94202
     2022.55441         1.99880         7.78003
     2022.55715        11.67475         7.71615
     2022.55989         2.26470         7.83137
     2022.56262       -15.90235         7.74011
     2022.56536       -12.05840         8.16675
     2022.56810       -12.02945         7.87814
     2022.57084        -8.82451         7.87244
     2022.57357         7.66844         8.15192
     2022.57631       -18.36761         8.03442
     2022.57905         0.55134         7.90552
     2022.58179         7.28129         7.94544
     2022.58453        -6.49576         8.02073
     2022.58726       -16.45481         8.15078
     2022.59000        -3.75787         8.09374
     2022.59274       -10.48392         7.69333
     2022.59548        -1.08397         8.10401
     2022.59822       -10.54002         7.95001
     2022.60095        -5.00507         7.86901
     2022.60369         7.87088         8.05382
     2022.60643        -5.50418         8.34015
     2022.60917         5.03777         7.96484
     2022.61190         7.35672         8.01503
     2022.61464        -2.76633         7.93404
     2022.61738         0.21962         7.69904
     2022.62012        -6.96543         7.87129
     2022.62286         2.29552         7.63173
     2022.62559         3.41146         7.85076
     2022.62833        -5.97759         7.82566
     2022.63107         6.48336         7.97510
     2022.63381        -3.43369         7.84278
     2022.63655         2.36926         7.82110
     2022.63928         2.44321         8.04355
     2022.64202        -0.75985         8.36525
     2022.64476         3.88010         8.30250
     2022.64750        -1.21995         7.95001
     2022.65023        -0.72400         8.03671
     2022.65297        22.76095         8.10287
     2022.65571         9.90790         7.83935
     2022.65845        -0.22515         7.93175
     2022.66119        -1.72421         7.59067
     2022.66392         9.59974         7.91807
     2022.66666         8.05369         7.85761
     2022.66940        16.05164         7.54275
     2022.67214         6.97359         7.88841
     2022.67488        -3.19746         7.85304
     2022.67761         0.55549         7.99906
     2022.68035        -0.67057         7.74239
     2022.68309        11.12038         7.95457
     2022.68583         3.81733         8.49643
     2022.68856         9.38028         7.96940
     2022.69130         7.73823         7.82338
     2022.69404        11.55318         7.87472
     2022.69678         4.85712         8.04925
     2022.69952         7.88707         8.13367
     2022.70225        11.13902         8.22037
     2022.70499         9.26397         8.06751
     2022.70773         9.30292         7.94202
     2022.71047         0.68787         7.53363
     2022.71321        29.17382         7.91350
     2022.71594         9.50776         7.94658
     2022.71868         3.47771         7.65683
     2022.72142        23.86966         7.72299
     2022.72416        25.50061         8.01617
     2022.72689         4.79456         7.92035
     2022.72963         4.27151         7.52792
     2022.73237         4.53545         7.66710
     2022.73511        15.04940         7.73440
     2022.73785        10.73235         7.97282
     2022.74058        15.00930         7.95799
     2022.74332        15.52325         7.92377
     2022.74606        13.56820         7.70474
     2022.74880         8.90015         7.78688
