# ================= DQRFIT RESULTS ================
# INPUT FILE: series/KYLE.rad
# OUTPUT: LDETRENDED
# FILTER FUNCTION: f(t)
# f(t)=+line(t)
# line(t)=+P 1+P 2*t
# heav(t)=(t<0?0:1)
# TOTAL OBSERVATIONS MTOT=  583
# INITIAL TIME INTERVAL= 2018.5433 - 2004.7693 = 13.7739
# TOTAL OBSERVATIONS AFTER PREFILTER M=  583
# TIME-SPAN=    0.0000 -    0.0000 =  0.0000
# OBSERVATIONS: USED M=   583 REJECTED MTOT-M=     0 %USED=  100.0000
# N=  2 PARAMETERS
# MAXSIG= 175.00000
# MAXRES=  17.13855
# SCALE FACTOR FOR LENGTHS: SCL=  10.00000
# SCALE FACTOR FOR SIGMAS: SCLSIG=   1.00000
# CHI^2=    653.461 DOF=   581 CHI^2/DOF=   1.12472
# RMS=      6.028 SDEV=      6.033 MEAN=    0.01196
#  P #       PARAMETER +-    SIGMA %error PARAMETER NAME
# P 1 =      -703.25348 +-  112.699  16.03 YZERO                              
# P 2 =         0.34930 +-    0.056  16.05 SLOPE                              
#       T            LDETRENDED       SIG_OBS
     2004.76934         5.90282         6.15636
     2004.77208         6.01486         6.21045
     2004.77482        11.17590         6.18605
     2004.77755        14.87895         6.18393
     2004.78029         6.21499         6.12879
     2004.78303         1.04603         6.09909
     2004.78577         3.05508         6.03334
     2004.78851         7.36112         6.08424
     2004.79124         9.44516         5.99622
     2004.79398        10.72621         5.99092
     2004.79672        11.32825         6.13515
     2004.79946         6.49030         6.01955
     2004.80220         5.16934         6.05561
     2004.80493        -7.71662         6.05137
     2004.80767        11.34943         6.05455
     2004.81041        -1.34353         5.99940
     2004.81315        -6.44349         5.94638
     2005.25120        -6.54750         6.04925
     2005.25394         4.63854         6.46603
     2005.25668         2.68759         6.42679
     2005.25942         0.46963         6.18605
     2005.26215        -3.10033         6.20196
     2005.26489         3.90772         6.22317
     2005.26763         5.77276         6.24120
     2005.27037         2.13481         6.24544
     2005.27311        -1.01915         6.20939
     2005.27584        -3.26111         6.18393
     2005.27858        -2.74406         6.14469
     2005.28132        -1.62302         6.28150
     2005.28406        -7.63998         6.24651
     2005.28679        -5.79693         6.25393
     2005.28953         0.99511         6.08106
     2005.29227        -3.94384         6.14045
     2005.29501        -1.96480         6.08849
     2005.29775        -1.01776         6.08849
     2005.30048         1.31129         6.06515
     2005.30322         0.04233         6.08955
     2005.30596        -0.63863         6.02804
     2005.30870         3.90742         6.15636
     2005.31144         0.97546         6.07894
     2005.31417         0.24750         6.11394
     2005.31691        -4.42545         6.07046
     2005.31965        -3.56941         6.07364
     2005.32239        -3.16436         6.23166
     2005.32512        -5.77732         6.13621
     2005.32786        -7.38328         6.13091
     2005.33060        -1.22023         6.10545
     2005.33334        -0.55119         6.13197
     2005.33608        -3.81715         6.15530
     2005.33881        -3.32610         6.09909
     2005.34155        -4.35706         6.10652
     2005.34429        -5.00102         6.05243
     2005.34703        -8.65697         6.05243
     2005.34977        -6.05993         6.04713
     2005.35250        -2.92988         6.13621
     2005.35524        -0.46284         6.30483
     2005.35798        -5.90880         6.28787
     2005.36072       -16.69175         6.25499
     2005.36345        -8.94471         6.35574
     2005.36619        -4.01667         6.27090
     2005.36893        -3.32162         6.35680
     2005.37167        -1.24758         6.42149
     2005.37441        -5.66353         6.34407
     2005.37714         5.79551         6.30483
     2005.37988        17.13855         6.27832
     2005.38262         0.62560         6.28681
     2005.38536        -3.82536         6.30696
     2005.38810        -3.08832         6.20939
     2005.39083        -6.08327         6.23378
     2005.39357        -9.20823         6.19666
     2005.39631        -8.61319         6.21257
     2005.39905        -9.40314         6.18287
     2005.40178        -5.72310         6.27514
     2005.40452         0.52495         6.41937
     2005.40726        -6.09201         6.28787
     2005.41000         1.62103         6.27302
     2005.41274        -4.16792         6.18712
     2005.41547         2.56912         6.19454
     2005.41821        -4.97484         6.07788
     2005.42095        -9.14879         6.08212
     2005.42369        -5.45975         6.05031
     2005.42643        -3.90371         6.17333
     2005.42916        -3.84866         6.05243
     2005.43190        -1.61662         6.08955
     2005.43464        -6.25557         6.10970
     2005.43738        -6.01853         6.28893
     2005.44011       -10.30649         6.24120
     2005.44285        -4.22344         6.33983
     2005.44559        -6.95640         6.24863
     2005.44833       -12.35336         6.28150
     2005.45107        -8.29531         6.15848
     2005.45360        -6.64220         6.59436
     2005.57427        -7.11335         6.46285
     2005.57701        -8.15730         6.34938
     2005.57974        -4.06326         6.44164
     2005.58248         0.62778         6.31968
     2005.58522        -4.37917         6.23590
     2005.58796         0.81587         6.07470
     2005.59070        -4.49609         6.05349
     2005.59343        -6.09604         6.12348
     2005.59617         1.21600         6.15424
     2005.59891         1.32305         6.09485
     2005.60165        -1.30991         6.15106
     2005.60439        -4.73487         6.08530
     2005.60692        -4.87675         6.62087
     2005.93567        -4.87758         6.03122
     2005.93840        -4.29154         6.02273
     2005.95483        -8.73128         6.16697
     2005.95757        -3.78523         6.02592
     2005.96031        -1.22419         5.95168
     2005.96304         0.72485         6.00046
     2005.96578         0.34890         6.50527
     2005.97947        -7.43288         6.09803
     2005.98221        -4.96684         6.10333
     2005.98495        -5.08380         6.08849
     2005.98735       -16.32964         6.91570
     2005.99590         1.13138         6.17333
     2006.66941        -9.57888         6.40452
     2006.67215        -5.82484         6.45861
     2006.67488        -4.87179         6.66223
     2006.67762        -4.76175         6.63890
     2006.68036        -9.71171         6.48088
     2006.68310        -2.37566         6.72692
     2006.68584        -1.34862         6.65587
     2006.68857        -1.31057         6.32711
     2006.69131        -5.33353         6.26135
     2006.69405        -1.97349         6.30589
     2006.69679        -6.13444         6.32286
     2006.69953         0.05260         6.25181
     2006.70226        -1.33436         6.43210
     2006.70500         3.46569         6.44058
     2006.70774         5.72273         6.17121
     2006.71048         1.04877         6.17015
     2006.71321         1.53982         6.13303
     2006.71595         3.48986         6.15848
     2006.71869        -0.94109         6.12560
     2006.72143         8.61295         6.40664
     2006.72417         8.09999         6.51588
     2006.72690         6.46104         6.38013
     2006.72964        -0.97992         6.28362
     2006.73238        -0.59288         6.14788
     2006.73512        -1.99583         6.09803
     2006.73786        -4.05179         6.14469
     2006.74059         2.88725         6.20302
     2006.74333         5.55130         6.16272
     2006.74607         4.60034         6.16378
     2006.74881         1.19739         6.20302
     2006.75154         1.86943         6.34619
     2006.75428        -2.64453         6.43422
     2006.75702        -2.84448         6.36210
     2006.75976        -2.52744         6.24226
     2006.76250        -1.06240         6.27196
     2006.76523        -3.70435         6.45543
     2006.76797        -4.97831         6.42679
     2006.77071        -3.23926         6.29635
     2006.77345        -2.11122         6.29317
     2006.77619        -3.17018         6.35044
     2006.77870         2.40394         6.93797
     2007.25805         1.47251         6.05455
     2007.26079         5.59255         6.09909
     2007.26352        10.80660         5.95062
     2007.26626        12.53464         5.92623
     2007.26900        10.92168         6.10333
     2007.27174        11.95073         6.08000
     2007.27447        11.36077         6.01425
     2007.27721       -13.36219         6.03122
     2007.27995         6.64686         5.93789
     2007.28269         8.57390         5.99410
     2007.28543         3.06094         6.04288
     2007.28816         9.38099         5.96228
     2007.29090        10.27803         5.99516
     2007.29364         5.28408         6.05349
     2007.29638         5.01112         6.15636
     2007.29911         4.76016         6.10015
     2007.30185        12.34821         5.99304
     2007.30459         7.08525         6.15954
     2007.30733         4.14429         6.02804
     2007.31007        -0.54266         6.07682
     2007.31280         6.73038         6.09591
     2007.31554         4.33642         5.97607
     2007.31828         3.23447         6.04819
     2007.32102         4.77651         6.01531
     2007.32376         6.79356         5.96440
     2007.32649         7.85960         5.96865
     2007.32923         5.38364         5.98137
     2007.33197         4.91669         6.19242
     2007.33471         4.71273         6.15318
     2007.33744        -0.21623         6.13197
     2007.34018         1.85582         6.07152
     2007.34292         3.22886         6.00683
     2007.34566         3.62791         6.01001
     2007.34840         1.50695         6.01743
     2007.35113         3.38999         5.98137
     2007.35387         5.16004         6.42467
     2007.35661        -0.70292         6.43104
     2007.35935         4.26212         6.01637
     2007.36209         2.74017         6.02592
     2007.36482         2.08021         6.06728
     2007.36756        -1.42475         5.98668
     2007.37030         1.50630         6.05985
     2007.37304         6.76934         6.13621
     2007.37577        -2.13261         6.15424
     2007.37851         1.24143         6.00152
     2007.38125         5.39347         6.04182
     2007.38399         2.97652         6.05243
     2007.38638        -2.33532         6.94115
     2007.90966         2.77790         6.08955
     2007.91239         5.47994         6.09697
     2007.91513        10.04299         6.15424
     2007.91787         4.29303         6.07576
     2007.92061        -8.44493         6.23378
     2007.92334         4.03112         6.37907
     2007.92608         2.13316         6.13727
     2007.92882         6.46021         6.14045
     2007.93156        -5.34375         6.15318
     2007.93430         4.13429         6.11606
     2007.93703         2.21434         6.16909
     2007.93977         0.98538         6.19030
     2007.94251         2.55942         6.16272
     2007.94525         3.29447         6.33135
     2007.94799         0.11551         6.21363
     2007.95072         5.61456         6.31226
     2007.95346         3.68360         6.20408
     2007.95620         3.56964         6.24544
     2007.95894         9.52469         6.27408
     2007.96167         7.62373         6.22317
     2007.96441         1.59077         6.18499
     2007.96715         7.94082         6.28044
     2007.96989         0.26586         6.15954
     2007.97263        -1.24810         6.26347
     2007.97536        -1.61505         6.26135
     2007.97810        -3.57501         6.21151
     2007.98084         6.59404         6.15954
     2007.98358        12.09508         6.17015
     2007.98632        10.96412         6.30802
     2007.98905         3.88517         6.26984
     2007.99179        -5.42979         6.22529
     2007.99453         0.74125         6.23802
     2007.99727         2.08930         6.06409
     2008.00000        -8.23466         6.10758
     2008.00274        -6.68362         6.09273
     2008.00548        -2.14757         6.05773
     2008.00822         4.47847         6.01849
     2008.01096         8.12452         5.95380
     2008.03012         0.32682         6.09485
     2008.03286        -3.63613         6.04607
     2008.03560        -0.11809         6.06303
     2008.03833         0.99295         6.07788
     2008.04107        -0.59100         6.09909
     2008.04381         1.07104         6.08106
     2008.04655         1.61108         6.08637
     2008.04929        -0.18987         6.05137
     2008.05202         2.57917         6.04819
     2008.05476         4.45721         6.01213
     2008.05750         0.91526         5.97607
     2008.06024         3.64430         5.97077
     2008.06298         0.98035         6.01531
     2008.06571        -1.58361         6.00470
     2008.06845        -0.27157         6.03334
     2008.07119         3.79048         5.97183
     2008.07393         9.37452         6.02804
     2008.07666        10.76456         6.27832
     2008.07940         2.53361         6.33453
     2008.08214         6.06765         6.02273
     2008.08488         5.37969         6.04607
     2008.08762         1.19274         5.97819
     2008.09035        11.92378         6.03228
     2008.09583         3.75187         6.11924
     2008.09857         1.00291         6.14575
     2008.10131         6.16696         6.23166
     2008.10404         3.81400         5.98774
     2008.10678         2.40104         6.00364
     2008.10952        -2.23291         6.01955
     2008.11226        -0.84287         5.95592
     2008.11499        -0.80282         5.97925
     2008.11773        13.43522         6.05243
     2008.12047         4.61726         5.95380
     2008.12321         0.73731         6.15636
     2008.12595         2.51135         5.98562
     2008.12868         1.53139         6.01743
     2008.13142         2.85544         6.00789
     2008.13416         5.89548         6.03546
     2008.13690         2.99252         6.01001
     2008.13964         8.10157         5.99304
     2008.14237         8.75461         6.08106
     2008.14511        -2.36734         6.01637
     2008.14785         5.37970         6.10333
     2008.15059         4.74774         6.02592
     2008.15332        -0.45421         6.03652
     2008.15606        -1.73717         5.95910
     2008.15880         2.61987         5.98668
     2008.16154         1.16192         5.99728
     2008.16428         7.99696         6.09379
     2008.16701        -2.56100         6.04607
     2008.16975        -4.76995         5.98562
     2008.17249         4.73709         6.02379
     2008.17523         2.82314         6.15424
     2009.48392        -8.21499         6.04288
     2009.48666        -9.29595         6.07894
     2009.48940       -13.77090         6.06303
     2009.49213        -4.63086         6.08637
     2009.49487        -6.29182         6.04182
     2009.49761        -9.88177         6.06303
     2009.50035        -5.24073         6.03864
     2009.50308        -4.86569         6.11606
     2009.50582        -4.00464         6.09697
     2009.50856        -9.27560         5.97289
     2009.51130        -8.02855         5.98243
     2009.51404        -2.62051         5.98562
     2009.51677        -6.69447         5.94319
     2009.51951        -5.96242         5.93683
     2009.52225        -8.80838         5.92304
     2009.52499        -6.58834         5.93895
     2009.52773        -6.69929         5.96547
     2009.53046        -6.67525         6.06834
     2009.53320       -11.04821         5.95168
     2009.53594       -13.03916         5.92304
     2009.53868       -11.08212         6.00046
     2009.54141       -13.18507         5.93471
     2009.54415       -10.82803         5.92304
     2009.54689        -7.70099         5.95592
     2009.54963        -7.64294         5.93577
     2009.55237        -8.25890         6.00895
     2009.55510        -5.35186         5.97925
     2009.55784        -4.93481         6.00152
     2009.56058       -12.53077         6.17545
     2009.56332        -4.43273         6.29211
     2009.56879       -14.03564         6.03440
     2009.57153        -8.90859         6.10545
     2009.57701        -3.62351         6.45437
     2009.57974        -5.02246         6.03652
     2009.58522        -4.11638         6.08318
     2009.59070        -5.64329         6.12454
     2010.36277         1.15003         5.91668
     2010.36551        -6.75093         6.10652
     2010.36825        -4.64689         6.06091
     2010.37098        -0.79484         5.91138
     2010.37372         3.13020         5.87744
     2010.37646        -0.60876         5.92198
     2010.37920         0.15329         6.19030
     2010.38193        -1.83067         6.31438
     2010.38467         2.00237         6.10227
     2010.38741         7.58542         6.07788
     2010.39015         0.43246         6.02167
     2010.39289        -3.08349         5.99516
     2010.39562        -6.33445         6.03334
     2010.39836        -0.97541         5.97289
     2010.40110        -5.15836         5.96759
     2010.40384       -11.51432         5.87108
     2010.40658        -5.38828         5.81593
     2010.40931        -1.96123         5.88062
     2010.41205        -8.96819         5.90183
     2010.41479        -0.15914         5.85835
     2010.41753         3.67290         5.81699
     2010.42026        -1.31206         5.83926
     2010.42300        -5.98101         5.93365
     2010.42574        -3.85297         5.89865
     2010.42848        -7.93893         5.98137
     2010.43122         3.80712         6.13303
     2010.43395        -3.90384         5.84457
     2010.43669         0.34920         5.97077
     2010.43943         6.06125         5.98668
     2010.44217        -0.90171         5.86153
     2010.44491        -6.84166         5.86896
     2010.44764        -1.15562         5.79578
     2010.45038        -0.52458         5.81381
     2010.45312         1.26347         5.95168
     2010.45586        -0.42249         6.06091
     2010.45859         0.81055         5.92304
     2010.46133        -0.06040         5.97077
     2010.46407         1.13064         5.85729
     2010.46681        -2.81432         5.89123
     2010.46955        -1.84727         5.88168
     2010.47228        -6.32223         5.84244
     2010.47502        -5.90918         5.81381
     2012.37509        -1.93188         5.83396
     2012.37783        -3.78284         5.94213
     2012.38057        -1.75679         5.93789
     2012.38330         1.34325         5.94850
     2012.38604        -3.91571         5.91774
     2012.38878        -0.87966         6.12136
     2012.39152         3.01538         5.98774
     2012.39426         1.63543         5.91456
     2012.39699        -1.21253         5.90608
     2012.39973        -2.06049         5.79048
     2012.40247        -2.78344         5.82760
     2012.40521        -3.96940         5.84881
     2012.40794        -3.58736         5.83078
     2012.41068        -6.17231         5.87850
     2012.41342        -2.71427         5.80320
     2012.41616        -4.20522         5.84669
     2012.41890        -2.23118         6.18075
     2012.42163        -4.57814         5.84350
     2012.42437        -4.81509         5.89229
     2012.42711        -2.00205         5.83396
     2012.42985        -0.45901         5.77669
     2012.43259        -6.19196         5.83502
     2012.43532       -11.31492         5.94107
     2012.43806         2.43412         5.82335
     2012.44080        -7.49283         5.86153
     2012.44354        -8.69479         5.80639
     2012.44627        -5.14374         5.84457
     2012.44901        -5.54670         5.86365
     2012.45175        -5.22966         5.88593
     2012.45449        -0.59661         5.86365
     2012.45723        -4.93157         5.90289
     2012.45996        -6.13353         5.88380
     2012.46270         4.32752         6.12030
     2012.46544         0.55756         5.89229
     2012.46818        -0.72540         5.87426
     2012.47092        -3.24835         5.91138
     2012.47365         0.48269         5.88168
     2012.47639         1.59474         5.82972
     2012.47913        -0.27322         5.85517
     2012.48187        -0.23618         5.83502
     2012.48426         0.34099         6.88600
     2014.02328         9.54041         6.04394
     2014.02601         9.80745         5.97501
     2014.02875        13.43449         5.84457
     2014.03149         8.01054         5.85305
     2014.03423         4.53458         5.85305
     2014.03697         3.11863         5.85411
     2014.03970         2.95567         5.82654
     2014.04244         3.23971         5.96016
     2014.04518         6.62276         5.96228
     2014.04792         4.92580         5.78093
     2014.05065         5.91184         5.80427
     2014.05339         2.13889         5.84881
     2014.05613         1.66393         5.82017
     2014.05887         3.04197         5.82654
     2014.06161        12.70702         5.83608
     2014.06434         6.58106         6.01213
     2014.06708         6.13811         6.03016
     2014.06982         5.40115         5.91986
     2014.07256         8.86419         5.84244
     2014.07530         6.91724         5.85199
     2014.07803        10.77728         5.88062
     2014.08077        12.41732         5.83608
     2014.08351         5.81437         5.86684
     2014.08625        -1.84859         5.95698
     2014.08898         3.91346         6.06303
     2014.09172         5.45550         6.07046
     2014.09446         5.38154         5.82548
     2014.09720         3.02959         5.92198
     2014.09994        11.68263         5.79896
     2015.54278        10.14564         6.16909
     2015.54552        12.24869         6.00895
     2015.54826         6.70073         6.05667
     2015.55100         3.81477         5.97289
     2015.55374         0.78182         6.08212
     2015.55647         6.98886         6.05985
     2015.55921         5.48190         6.15954
     2015.56195         6.01195         5.98668
     2015.56469         3.28899         5.97607
     2015.56742         8.37104         6.12985
     2015.57016         7.14308         6.23484
     2015.57290         5.24712         6.40240
     2015.57564         2.07017         6.07788
     2015.57838         3.45921         6.17757
     2015.58111         4.47825         6.00789
     2015.58385         3.94530         5.99622
     2015.58659        14.31834         6.14257
     2015.58933        -1.18262         6.11924
     2015.59206         4.76643         6.13833
     2015.59480        13.41847         6.00895
     2015.59754         8.04452         6.18393
     2015.60028        10.67456         6.21151
     2015.60302         4.80060         6.11606
     2015.60575         3.11165         6.03334
     2015.60849         5.27369         5.97289
     2015.61123         6.68973         6.01213
     2015.61397         5.80678         6.16060
     2015.61671         7.91082         5.93895
     2015.61944         9.87586         5.99092
     2015.62218         6.57491         5.89123
     2015.62492         9.28395         5.82654
     2015.62766         8.21800         5.93789
     2015.63039         7.46004         5.84457
     2015.63313         7.19408         5.89123
     2015.63587         9.18313         6.18075
     2015.63861         8.50517         5.91456
     2015.64135         6.16421         6.08743
     2015.64408        -0.99174         5.89229
     2015.64682         5.77230         6.10652
     2015.64956         6.88235         5.90289
     2015.65230         4.64039         5.94956
     2015.65504         7.70643         5.91986
     2015.65777         2.24848         5.98562
     2015.66051         2.38352         5.93577
     2015.66325         9.11256         5.98137
     2015.66599         8.37061         6.03546
     2015.66872         9.28365         6.03440
     2015.67146         7.09669         6.04607
     2015.67420         4.88474         6.02698
     2015.67694         7.61078         5.99198
     2015.67968         7.14983         5.89123
     2015.68241         8.44187         5.93789
     2015.68515         2.93791         5.95062
     2015.68789         4.94896         5.87850
     2015.69063         7.04600         5.96547
     2015.69337         5.66204         6.07788
     2015.69610         4.69609         6.06622
     2015.69884         9.89713         5.86153
     2015.70158        10.54517         5.90395
     2015.70432         9.18522         5.96016
     2015.70705         7.04226         5.93577
     2015.70979         9.89231         5.89865
     2015.71253         4.72935         5.87532
     2015.71527         5.40339         5.81805
     2015.71801         6.92444         5.85729
     2015.72074        10.24548         5.85517
     2015.72348         6.60652         5.91880
     2015.72622         3.73557         5.86472
     2015.72896         2.19061         5.89229
     2018.35729        -4.46747         5.78518
     2018.36003        -7.20243         5.76503
     2018.36277        -7.97338         5.86259
     2018.36551       -13.22934         5.85305
     2018.36825        -9.67829         5.74382
     2018.37098        -7.63425         5.83290
     2018.37372        -8.79021         5.75336
     2018.37646       -12.27016         6.00470
     2018.37920        -8.61212         5.84669
     2018.38193        -6.74008         6.02379
     2018.38467        -7.51703         5.80002
     2018.38741       -11.64199         5.82229
     2018.39015        -3.39894         5.79684
     2018.39289        -2.81990         5.80957
     2018.39562        -6.43786         5.85941
     2018.39836        -3.92181         5.73639
     2018.40110        -7.89177         5.80533
     2018.40384        -5.25373         5.80108
     2018.40658        -3.48568         5.87532
     2018.40931         2.80736         6.10545
     2018.41205         2.35840         5.81169
     2018.41479        -7.96755         5.75442
     2018.41753        -6.93651         5.72685
     2018.42026       -10.54246         5.78730
     2018.42300         0.26058         5.83290
     2018.42574        -4.31638         5.78730
     2018.42848        -3.18333         5.74700
     2018.43122        -0.12729         5.75760
     2018.43395        -6.63925         5.77775
     2018.43669        -8.04620         5.82760
     2018.43943        -2.43016         5.83926
     2018.44217        -4.13212         5.80533
     2018.44491        -5.75707         5.76078
     2018.44764        -5.31403         5.76821
     2018.45038        -3.23798         5.80745
     2018.45312        -6.68594         5.81911
     2018.45586         2.07710         5.90183
     2018.45859         2.16515         5.91032
     2018.46133        -7.89381         5.78942
     2018.46407        -8.40777         5.81169
     2018.46681        -5.87672         5.76821
     2018.46955        -3.42768         5.81275
     2018.47228        -3.84963         5.90395
     2018.47502        -0.00359         5.84987
     2018.47776        -0.62055         5.82229
     2018.48050        -7.16450         5.81805
     2018.48324        -6.49946         5.77987
     2018.48597        -6.07942         5.83502
     2018.48871        -5.42737         5.86896
     2018.49145        -9.93833         5.84350
     2018.49419        -0.73929         5.94001
     2018.49692        -3.86924         5.93895
     2018.49966        -2.38420         5.87850
     2018.50240        -5.19215         5.88274
     2018.50514        -8.46511         5.81593
     2018.50788        -6.69407         5.78836
     2018.51061        -3.64902         5.83608
     2018.51335        -5.15798         5.84032
     2018.51609        -7.41494         5.83926
     2018.51883        -5.84389         5.84987
     2018.52157        -5.33085         5.81805
     2018.52430        -2.71481         5.80320
     2018.52704        -0.01976         5.83608
     2018.52978        -3.73872         5.82017
     2018.53252        -1.43267         5.90077
     2018.53525        -4.03563         5.83502
     2018.53799        -7.32459         5.93471
     2018.54073        -0.05954         5.90502
     2018.54328        -4.35443         6.11288
