# ================= DQRFIT RESULTS ================
# INPUT FILE: series/LCRS.rad
# OUTPUT: LDETRENDED
# FILTER FUNCTION: f(t)
# f(t)=+line(t)+annual(t)
# line(t)=+P 1+P 2*t
# annual(t)=+P 3*sin(2*pi*t+P 4)
# heav(t)=(t<0?0:1)
# TOTAL OBSERVATIONS MTOT= 2153
# INITIAL TIME INTERVAL= 2022.7488 - 2015.4671 =  7.2817
# TOTAL OBSERVATIONS AFTER PREFILTER M= 2147
# TIME-SPAN= 2022.7488 - 2015.4671 =  7.2817
# OBSERVATIONS: USED M=  2147 REJECTED MTOT-M=     6 %USED=   99.7213
# N=  4 PARAMETERS
# MAXSIG= 175.00000
# MAXRES=  55.23976
# SCALE FACTOR FOR LENGTHS: SCL=  10.00000
# SCALE FACTOR FOR SIGMAS: SCLSIG=   1.00000
# CHI^2=   2163.406 DOF=  2143 CHI^2/DOF=   1.00952
# RMS=      5.877 SDEV=      5.876 MEAN=    0.18739
#  P #       PARAMETER +-    SIGMA %error PARAMETER NAME
# P 1 =        77.26721 +-  112.638 145.78 YZERO                              
# P 2 =        -0.03801 +-    0.056 146.76 SLOPE                              
# P 3 =         5.02678 +-    0.173   3.45 ANNUAL AMPLITUDE                   
# P 4 =        -2.99057 +-    0.048   1.61 ANNUAL PHASE                       
#       T            LDETRENDED       SIG_OBS
     2015.46714         8.74518        75.54011
     2015.46885       -14.18176        10.99498
     2015.47151         1.56634        10.80307
     2015.47433        -3.79755        10.40519
     2015.47708        -3.07345        11.43405
     2015.47982        -0.38034        10.60614
     2015.48256         4.97276        11.68524
     2015.48529         1.33887         9.03572
     2015.48803        -2.54103        10.20123
     2015.49076        -4.03593        10.45945
     2015.49349       -22.66482        11.99772
     2015.49622         0.85628        13.61637
     2015.49895       -13.00661        11.67117
     2015.50169         6.32649         9.04476
     2015.50440        -3.05741        12.17154
     2015.50718       -17.14730        12.78142
     2015.50992        20.29080        12.68095
     2015.51266         8.71091        13.50585
     2015.51540         0.64001        11.14469
     2015.51774        14.52510        12.81759
     2015.52367         8.61733        11.77366
     2015.52635         4.21443         5.50904
     2015.52908        10.23853         5.51909
     2015.53182         0.76864         5.47589
     2015.53456         5.23374         5.53115
     2015.53730         0.80784         5.57837
     2015.54004         8.83995         5.59545
     2015.54277         3.99805         5.62961
     2015.54554         5.72116        10.49863
     2015.54825        13.65526        10.63628
     2015.55101         9.73636        10.66040
     2015.55374        16.37147        11.35367
     2015.55648        14.06757        10.97388
     2015.55921        11.17868         9.48283
     2015.56193        14.13478        13.10696
     2015.56468         8.57988         5.54923
     2015.56741        10.47099         5.59143
     2015.57015        12.28409         5.64770
     2015.57289         5.43120         5.76224
     2015.57563         9.67930         5.48091
     2015.57837         7.41640         5.49196
     2015.58110         9.98351         5.58340
     2015.58384        13.89461         5.54722
     2015.58658        15.69772         5.71803
     2015.58932        16.19182         5.60449
     2015.59206        11.10992         5.62459
     2015.59479        13.38203         5.52914
     2015.59753        10.96113         5.52211
     2015.60027        13.97424         5.72004
     2015.60301        12.65534         5.69693
     2015.60574        10.55445         5.72205
     2015.60848        13.13155         5.78435
     2015.61122        20.36965         5.66980
     2015.61315        21.83073         8.61171
     2015.62577        12.74821         9.65364
     2015.62765        13.96228         5.46082
     2015.63039        14.14138         5.56732
     2015.63312        22.77349         5.55426
     2015.63586        23.84659         5.54923
     2015.63860        10.33669         5.40756
     2015.64134        12.98880         5.41460
     2015.64407        12.15690         5.43972
     2015.64681         9.80801         5.67583
     2015.64955        11.86111         5.42665
     2015.65229         9.71921         5.41460
     2015.65503        15.88232         5.41158
     2015.65776        16.40842         5.54019
     2015.66050        12.76653         5.49196
     2015.66324        15.73363         5.49397
     2015.66598        10.59673         5.59746
     2015.66872         9.40084         5.65373
     2015.67145        15.40394         5.45278
     2015.67419         9.47005         5.42565
     2015.67693         9.85515         5.38948
     2015.67967         3.85925         5.54321
     2015.68240         4.16336         5.42665
     2015.68514         7.86246         5.47086
     2015.68788        10.78357         5.54220
     2015.69062        13.95967         5.70497
     2015.69336         8.03178         5.64870
     2015.69609        14.01288         5.43570
     2015.69883        15.35098         5.50302
     2015.70157        17.60909         5.58139
     2015.70431        16.01119         5.42565
     2015.70705        12.36730         5.44072
     2015.70978        19.03140         5.41058
     2015.71252         4.79850         5.43369
     2015.71526        10.70861         5.41058
     2015.71800        12.72471         5.45881
     2015.72073        13.65382         5.49699
     2015.72347        16.13892         5.83157
     2015.72621         8.31502         5.41359
     2015.72895         7.53413         5.40656
     2015.73169        12.20423         5.43268
     2015.73442         5.05134         5.49799
     2015.73713        10.96344         5.58942
     2015.73992        12.24654         5.59545
     2015.74264        10.14365         5.54722
     2015.74538        17.80975         5.70899
     2015.74811        11.69686         5.69995
     2015.75085         2.62796         5.44072
     2015.75359         7.35306         5.46483
     2015.75633        11.83617         5.44273
     2015.75906        11.77127         5.51708
     2015.76180         6.36038         5.42163
     2015.76454         8.16948         5.44474
     2015.76728         4.22358         5.47488
     2015.77002         5.64969         5.57837
     2015.77275         8.00579         5.54120
     2015.77549         7.73190         5.56832
     2015.77823        12.80300         5.49699
     2015.78097        10.72610         5.46785
     2015.78371         8.85221         5.48493
     2015.78644         6.27131         5.46483
     2015.78918         6.43842         5.46383
     2015.79192         9.88552         5.41661
     2015.79466        12.99463         5.45579
     2015.79739         4.08173         5.46383
     2015.80013         7.35183         5.68789
     2015.80287         5.89994         5.44976
     2015.80561         7.69404         5.40154
     2015.80835         4.14615         5.47388
     2015.81108         1.11125         5.48292
     2015.81382         4.93535         5.47086
     2015.81656         6.32046         5.49096
     2015.81930         6.69156         5.45278
     2015.82182         4.51066         6.08778
     2015.87679         8.11475         5.59143
     2015.87953        29.96885        17.68862
     2015.88227         8.64896         5.60449
     2015.88501        -2.63794         5.75320
     2015.88774         0.59516         5.47790
     2015.89048         5.23427         5.53215
     2015.89322        10.58337         5.58440
     2015.89596         5.22848         5.47689
     2015.89869         9.51258         5.49297
     2015.90143         0.19368         5.54421
     2015.90417        -3.81721         5.54622
     2015.90691        -0.32811         5.54321
     2015.90965         3.23100         5.86171
     2015.91238         3.70810         5.55727
     2015.91454        -0.13882         7.71748
     2015.93776        17.29306         8.89405
     2015.93976        11.81414         5.97123
     2015.94250         6.35224         5.69392
     2015.94524         4.92335         5.59344
     2015.94798        11.45445         5.67181
     2015.95071        -1.21744         5.52411
     2015.95345         4.40866         5.46684
     2015.95619         4.06476         5.56832
     2015.95893         5.37587         5.69593
     2015.96167        12.09297         5.64468
     2015.96440         4.80708         5.53215
     2015.96714         6.37118         5.54823
     2015.96988        11.23729         5.45077
     2015.97262        16.99639         5.46283
     2015.97535         5.57849         5.45881
     2015.97809         6.47160         5.50302
     2015.98083         1.69870         5.52411
     2015.98357        -5.82619         5.47991
     2015.98631        -6.26909         5.57335
     2015.98904         2.19101         5.47488
     2015.99178         0.56612         5.48895
     2015.99452        -1.91378         5.50603
     2015.99726        -0.86267         5.53818
     2016.00000        -1.91957         5.52010
     2016.00273        -4.70047         5.53115
     2016.00547         0.81564         5.53517
     2016.00821         1.27974         5.51708
     2016.01095         5.94885         5.50000
     2016.01368        -3.23305         5.49196
     2016.01642         1.02605         5.67081
     2016.01916         1.41416         5.73511
     2016.02190         3.52326         5.65071
     2016.02464         1.53937         5.43469
     2016.02737        -4.51453         5.55627
     2016.03011         1.31057         5.45881
     2016.03285        -0.08832         5.44273
     2016.03559         2.63978         5.47890
     2016.03724        12.98285        12.43679
     2016.04476        -6.32987        10.34892
     2016.04654         6.61820         5.47589
     2016.04928         2.29830         5.41862
     2016.05201        -1.10059         5.46584
     2016.05475         0.35751         5.43771
     2016.05749         1.82861         5.48895
     2016.06023         2.04672         5.44072
     2016.06297         0.38182         5.39149
     2016.06570        -0.40107         5.37139
     2016.06844        -1.97697         5.41661
     2016.07118        -3.98386         5.77128
     2016.07392        -0.57476         5.47086
     2016.07666         1.37234         5.53316
     2016.07939         3.48745         5.35833
     2016.08213         1.35255         5.56430
     2016.08487         3.17466         5.36536
     2016.08761        -5.32424         5.37139
     2016.09034        -4.51814         5.70698
     2016.09196        -2.63608        14.38400
     2016.11498       -10.08920         5.47187
     2016.11772        -8.61810         5.40555
     2016.12046        -4.43499         5.51407
     2016.12320         2.90411         5.30809
     2016.12594        -3.46878         5.34326
     2016.12867         4.90432         5.35733
     2016.13141         7.94542         5.33723
     2016.13415         3.55553         5.37742
     2016.13689         0.45363         5.36135
     2016.13957        -3.85227         5.41058
     2016.14239       -11.39216         5.43369
     2016.14510        -8.15306         5.33723
     2016.14784        -7.24695         5.40053
     2016.15058        -5.62485         5.33020
     2016.15331        -5.59374         5.49900
     2016.15605         2.54636         5.36938
     2016.15879        -8.40553         5.42063
     2016.16153        -4.69843         5.45378
     2016.16427        -3.13133         5.34929
     2016.16700        -1.94722         5.35331
     2016.16974         0.22188         5.45780
     2016.17248        -3.25701         5.50101
     2016.17522         0.21609         5.44876
     2016.17796         6.11719         5.41560
     2016.18069         2.27330         5.47790
     2016.18343        -4.08860         5.52211
     2016.18617        -0.69949         5.36838
     2016.18891         2.31761         5.32015
     2016.19164        -4.70629         5.31915
     2016.19438         5.91282         5.26790
     2016.19712         5.60492         5.28599
     2016.19986         3.40703         5.65272
     2016.20260        -3.66387         5.42565
     2016.20533        -6.57777         5.63464
     2016.20807        -0.79366         5.45378
     2016.21081        -7.08956         5.39551
     2016.21355        -4.18545         5.39249
     2016.21629         0.66365         5.49799
     2016.21902        -4.83925         5.23676
     2016.22176        -4.19114         5.22570
     2016.22450        -8.14904         5.33924
     2016.22724        -5.84593         5.41862
     2016.22997         0.15417         5.19456
     2016.23271        -8.31173         5.20561
     2016.23545        -2.04262         5.27896
     2016.23819        -1.89252         5.28599
     2016.24093         2.73059         5.32718
     2016.24366        -3.50831         5.27293
     2016.24640        -1.06120         5.30709
     2016.24914        -3.86810         5.28699
     2016.25188        -4.70200         5.45881
     2016.25462        -2.92889         5.43570
     2016.25735         0.78521         5.36034
     2016.26009        -8.60068         5.28498
     2016.26283        -2.98558         5.35130
     2016.26557        -3.44248         5.28097
     2016.26830        -2.75237         5.28297
     2016.27104        -0.47627         5.34125
     2016.27378         0.51184         5.27393
     2016.27652        -5.99606         5.22972
     2016.27926         4.72104         5.29704
     2016.28199        -5.73585         5.56933
     2016.28473        -0.16275         5.31613
     2016.28747       -11.02264         5.39752
     2016.29021       -13.06454         5.22972
     2016.29295        -9.69044         5.25082
     2016.29568        -4.33433         5.27293
     2016.29842        -2.95123         5.42063
     2016.30116        -3.41612         5.39651
     2016.30390        -5.81502         5.38546
     2016.30663         5.33708         5.37340
     2016.30937         1.80119         5.26790
     2016.31211         0.20529         5.28800
     2016.31485         0.63240         5.33422
     2016.31759         1.84150         5.33522
     2016.32032        -2.18340         5.32919
     2016.32306        -8.11829         5.27494
     2016.32580        -3.11719         5.27896
     2016.32854        -2.11508         5.32116
     2016.33128        -9.74398         5.29704
     2016.33401        -4.20187         5.33422
     2016.33675        -3.33077         5.31513
     2016.33949        -2.00667         5.31915
     2016.34223         1.30644         5.39551
     2016.34496        -3.02846         5.44373
     2016.34770         4.58465         5.37340
     2016.35044         4.09275         5.54019
     2016.35318         1.77885         5.23776
     2016.35592       -10.59304         5.22972
     2016.35865        -9.78794         5.24379
     2016.36139        -0.43283         5.27494
     2016.36413         1.22127         5.36135
     2016.36687        -0.62163         5.28900
     2016.36961         2.50348         5.27293
     2016.37234         7.04958         5.24580
     2016.37508        -0.98631         5.32819
     2016.37782        -7.44321         5.27494
     2016.38056        -3.99011         5.52713
     2016.38329        -1.04200         5.21767
     2016.38603         2.99410         5.20360
     2016.38877         9.91721         5.21365
     2016.39151         4.62631         5.23073
     2016.39425        -1.74459         5.31111
     2016.39698         3.50552         5.20661
     2016.39972         6.21962         5.22671
     2016.40246         0.00473         5.32517
     2016.40468        -0.50519         6.59216
     2016.41091       -10.98995         5.74114
     2016.41341        -6.75986         5.28599
     2016.41615        -0.43275         5.26991
     2016.41889         0.88935         5.31814
     2016.42162         0.36545         5.36536
     2016.42436        -3.00744         5.32216
     2016.42705        -0.93934         5.30207
     2016.42984        -0.06623         5.26991
     2016.43258         3.75087         5.25484
     2016.43531         6.10998         5.36034
     2016.43721         4.07205         8.77649
     2016.44354        -4.20071         5.29503
     2016.44626        -3.66961         5.21566
     2016.44900         6.00250         5.28599
     2016.45174         5.47260         5.29403
     2016.45448         1.32470         5.23575
     2016.45722         3.40281         5.32316
     2016.45995        -1.78609         5.25585
     2016.46269         2.46002         5.24178
     2016.46543        -2.54188         5.20762
     2016.46817        -1.42378         5.21465
     2016.47091         2.04233         5.28297
     2016.47364        -3.63957         5.29704
     2016.47638         5.09254         5.34828
     2016.47912         4.84464         5.40154
     2016.48186         2.72274         5.48995
     2016.48459        -2.61315         5.26589
     2016.48733        -1.47505         5.27896
     2016.49007         2.76206         5.30407
     2016.49281         0.80916         5.31613
     2016.49555         2.71726         5.34426
     2016.49828         6.09637         5.27393
     2016.50102         6.96847         5.29604
     2016.50376         6.57058         5.47790
     2016.50650         8.69068         5.38245
     2016.50924         7.43978         5.28800
     2016.51197         1.09589         5.25685
     2016.51471         4.34499         5.30508
     2016.51745         4.67110         5.37642
     2016.52019         8.20820         5.37943
     2016.52292         2.68531         5.26690
     2016.52566         3.18641         5.26489
     2016.52840         4.59151         5.27896
     2016.53114         1.92662         5.31111
     2016.53388         0.84572         5.24781
     2016.53661         8.67883         5.31412
     2016.53935         6.51393         5.29403
     2016.54209         5.75003         5.32417
     2016.54483         8.99514         5.33120
     2016.54757         7.56024         5.29403
     2016.55030         0.43735         5.40857
     2016.55304         6.85445         5.29905
     2016.55578        14.42755         5.53215
     2016.55852         6.21066         5.30407
     2016.56125         5.81876         5.24379
     2016.56399         4.79687         5.24680
     2016.56673        10.38297         5.33522
     2016.56947         0.08907         5.64268
     2016.57221         6.73618         5.30207
     2016.57494         8.75328         5.38546
     2016.57768         8.76139         5.31010
     2016.58042        11.67549         5.27494
     2016.58316         5.57659         5.38747
     2016.58590         7.24170         5.32316
     2016.58863         9.07780         5.27192
     2016.59137         2.98891         5.23776
     2016.59411        10.12701         5.26489
     2016.59685         8.62011         5.32116
     2016.59958         9.97222         5.45077
     2016.60232         7.21132         5.29403
     2016.60506        11.50643         5.37240
     2016.60780         7.51853         5.30307
     2016.61054         2.61364         5.28699
     2016.61327         7.28874         5.29604
     2016.61601         2.24884         5.30006
     2016.61875         4.93995         5.24278
     2016.62149         8.05405         5.33020
     2016.62423         9.46916         5.40756
     2016.62696        10.91626         5.28297
     2016.62970         2.49636         5.28097
     2016.63244         1.94447         5.43067
     2016.63518         7.52557         5.27092
     2016.63698        13.05364         8.95534
     2016.64078        14.16478         5.64167
     2016.64339         7.12888         5.29302
     2016.64613         6.78399         5.28297
     2016.64887         9.19109         5.28398
     2016.65183        11.15020         5.87477
     2016.65434         7.51930         5.29604
     2016.65708         2.57140         5.39450
     2016.65982         5.36351         5.28297
     2016.66256         7.69461         5.36335
     2016.66474         4.17470         6.61326
     2016.68530         4.67548         9.69885
     2016.68720         8.29655         5.58340
     2016.68993         7.21965         5.35532
     2016.69267         7.00876         5.27795
     2016.69541        11.61686         5.30207
     2016.69815         9.14696         5.24881
     2016.70089         8.78607         5.24680
     2016.70362        12.91817         5.39551
     2016.70636         7.28528         5.57234
     2016.70910         9.62438         5.55828
     2016.71184        10.48349         5.29704
     2016.71457         9.76959         5.39249
     2016.71731        15.06469         5.31412
     2016.72005        12.94480         5.26087
     2016.72279        11.98090         5.31915
     2016.72553        10.38401         5.38144
     2016.72826        10.35211         5.34125
     2016.73100         4.66721         5.20862
     2016.73374         8.84332         5.24580
     2016.73648         8.59042         5.25183
     2016.73921         8.82953         5.30106
     2016.74195         8.05463         5.23374
     2016.74469         6.28673         5.25987
     2016.74743         5.49984         5.35532
     2016.75017         8.42094         5.23374
     2016.75290         7.72905         5.32015
     2016.75564        13.44315         5.23776
     2016.75838        11.66425         5.24580
     2016.76112         9.39436         5.21063
     2016.76386         8.31846         5.17547
     2016.76564         6.43753         9.34819
     2016.84996         5.04074        16.10715
     2016.88279         6.99998        16.15738
     2016.88432        -0.40796         5.33221
     2016.88706         5.28315         5.30709
     2016.88980        -5.61275         5.31915
     2016.89253        -0.67065         5.36536
     2016.89527        -0.94054         5.35833
     2016.89801        -1.77044         5.33321
     2016.90075        -0.34533         5.28900
     2016.90349         2.47377         5.50000
     2016.90622         6.66587         5.45278
     2016.90896         3.98098         5.32015
     2016.91170         1.56608         5.24680
     2016.91444        -5.23281         5.29503
     2016.91718        -2.35371         5.36335
     2016.91991        -8.32861         5.44976
     2016.92265        -1.80050         5.22771
     2016.92539         0.47760         5.29202
     2016.92813        -6.10629         5.28398
     2016.93086        -2.29419         5.24078
     2016.93360        -4.30109         5.25685
     2016.93634        -3.93098         5.26087
     2016.93908        -5.34288         5.37240
     2016.94182        -3.74077         5.18953
     2016.94455       -12.17167         7.19803
     2016.94729         1.71043         5.30809
     2016.95003        -1.78646         6.29878
     2016.95368         5.33068         8.50822
     2016.95551        -4.12625         5.21063
     2016.95824         1.14685         5.22068
     2016.96098        -4.63605         5.24379
     2016.96372        -8.10094         5.38646
     2016.96646        -1.87584         5.30809
     2016.96919         2.48027         5.36737
     2016.97193        -5.27963         5.24379
     2016.97341        -2.79457        25.67337
     2016.99469         2.65224         8.11235
     2016.99657         2.02631         5.29202
     2016.99931         1.54341         5.30006
     2017.00479        -2.46138         5.17748
     2017.00752        -6.42928         5.19255
     2017.01300        -0.51107         5.69995
     2017.01574        -4.12196         5.17346
     2017.01848        -2.30886         5.19958
     2017.02121       -19.51376         5.22972
     2017.02395        -4.58165         5.17346
     2017.02669        -9.83355         5.29101
     2017.02943        -6.85644         5.20862
     2017.03116        -9.04438        10.55490
     2017.07900       -10.85256         5.84162
     2017.08145        -9.19847         5.21666
     2017.08418       -16.65736         5.24781
     2017.08692        -7.95826         5.19456
     2017.08966       -10.84815         5.18953
     2017.09240        -5.67905         5.24278
     2017.09514       -10.80695         5.34929
     2017.09787        -4.28484         5.19858
     2017.10061        -1.38374         5.27293
     2017.10335        -5.68763         5.25183
     2017.10609        -9.78653         5.24781
     2017.10882       -13.75343         5.23877
     2017.11156        -2.00132         7.34573
     2017.11430       -13.44522         5.20259
     2017.11652       -13.57913         6.82527
     2017.20479       -10.89978         5.59847
     2017.20739       -12.51068        13.37624
     2017.20969        -5.53159         6.43241
     2017.25967        -8.03769         5.72004
     2017.26214        -4.29960         5.30207
     2017.26488        -3.90649         5.38144
     2017.26762        -2.31039         5.24881
     2017.27036        -7.35029         5.20963
     2017.27310       -10.82918         5.45177
     2017.27583        -8.87408         5.26188
     2017.27857       -12.27897         5.25384
     2017.28131       -11.91687         5.28197
     2017.28404       -12.78877         5.25685
     2017.32808        -7.04109         5.59244
     2017.33059       -13.34400         5.16944
     2017.33333       -15.61689         5.24078
     2017.33607       -11.15279         5.19958
     2017.33880       -11.74569         5.19255
     2017.34154       -10.50458         5.52411
     2017.34428       -10.27948         5.21264
     2017.34702        -8.35337         5.20661
     2017.34976       -11.65027         5.19757
     2017.35249       -14.31816         5.18752
     2017.35523       -15.71806         5.19255
     2017.35797       -12.60696         5.23575
     2017.36071        -9.77785         5.25283
     2017.36344       -10.33175         5.21968
     2017.36618       -10.41364         5.20963
     2017.36892        -6.61854         5.20661
     2017.37166        -5.24744         5.25585
     2017.37440        -3.59233         5.19456
     2017.37713        -7.91923         5.29503
     2017.37987       -18.02612         5.26690
     2017.38261       -11.71002         5.23977
     2017.38535       -17.87992         5.21666
     2017.38809       -12.83981         5.20762
     2017.39082       -12.29271         5.20561
     2017.39356        -1.12560         5.30006
     2017.39630        -3.80050         5.17647
     2017.39904       -12.20940         5.24278
     2017.40177        -8.07129         5.18853
     2017.40451        -8.54219         5.41158
     2017.40725        -8.75508         5.28398
     2017.40999        -7.36598         5.22068
     2017.41273        -2.81588         5.31010
     2017.41546        -6.46077         5.25987
     2017.41820        -1.39667         5.40154
     2017.42094        -8.43456         5.24881
     2017.42341        -1.06847         5.83860
     2017.48139        -7.21627         5.62861
     2017.48391        -4.56317         5.34326
     2017.48546         4.02489        18.83806
     2017.55802         0.76765         5.74014
     2017.56057         2.89474         5.35029
     2017.56331         2.10785         5.35029
     2017.56605        -1.74105         5.22269
     2017.56878        -3.00394         5.25987
     2017.57152         7.70616         5.39249
     2017.57426        -2.10574         5.45177
     2017.57700        -3.78863         5.35833
     2017.57974         0.89147         5.28197
     2017.58247        -0.42342         5.33020
     2017.58521        -3.91132         5.27393
     2017.58795        -3.10222         5.42464
     2017.59069         0.45089         5.52311
     2017.59342         2.60099         5.25786
     2017.59616         1.25010         5.34929
     2017.59890         3.07720         5.29101
     2017.60164         2.18130         5.30608
     2017.60438         0.24441         5.30608
     2017.60711         2.73351         5.34527
     2017.60985         3.05762         5.40555
     2017.61259         1.99572         5.35130
     2017.61533         2.61482         5.45881
     2017.61807         7.66593         5.41359
     2017.62080        -0.51197         5.29503
     2017.62354         2.21014         5.32116
     2017.62628         5.24024         5.38345
     2017.62902         5.81235         5.60550
     2017.63175         1.07645         5.34226
     2017.63449        -0.87645         5.31613
     2017.63723        -1.05834         5.23575
     2017.63997         6.47276         5.36034
     2017.64271         6.86687         5.37039
     2017.64544         7.87897         5.42967
     2017.64818         5.12607         5.51407
     2017.65092         2.24218         5.27795
     2017.65366         4.17328         5.21767
     2017.65639         2.82339         5.28498
     2017.65913         8.26449         5.33221
     2017.66163         2.12758         6.11692
     2017.87943        23.06286        20.82344
     2017.88090         2.86292         5.57435
     2017.88366         3.12002         5.70296
     2017.88637         3.78413         5.79741
     2017.88858        -9.59479         8.83075
     2017.89185        -5.21166         6.03051
     2017.89459         2.54644         5.76023
     2017.89734        -1.96246         5.63765
     2017.90006        -6.10435         5.49799
     2017.90280         7.52675         5.63363
     2017.90555         1.23386         5.41862
     2017.90828        -0.02004         5.33723
     2017.91102         0.51506         5.58741
     2017.91375       -13.51883         5.40957
     2017.91649         1.55527         5.33824
     2017.91923         1.10338         5.95113
     2017.92197         1.64748         5.31412
     2017.92470        -4.46942         5.35331
     2017.92744        -9.37631         5.57435
     2017.93018       -10.87721         5.38144
     2017.93292        -6.74410         5.30809
     2017.93566        -7.73200         5.32517
     2017.93839        -6.13690         5.32216
     2017.94113        -8.27479         5.32618
     2017.94387        -6.51769         5.29604
     2017.94661        -3.59358         5.38546
     2017.94935        -3.54848         5.59445
     2017.95208        -4.12938         5.48593
     2017.95482        -4.58127         6.10285
     2017.95756       -12.39417         5.48292
     2017.96030       -12.12606         5.32417
     2017.96303         1.39404         5.34627
     2017.96577         3.49414         5.60048
     2017.96851        -1.33175         5.71100
     2017.97125        -3.56265         5.69492
     2017.97399        -3.04154         6.15409
     2017.97672        -2.72244         6.14706
     2017.97946        -7.85534         5.54722
     2017.98220        -9.26723         5.61756
     2017.98494       -16.64013         5.76224
     2017.98766       -19.97802         5.90893
     2017.99042       -14.98392         6.20031
     2017.99589        -7.78271         5.71301
     2017.99863        -8.38161         5.67784
     2018.00136       -12.40650         5.82755
     2018.00410       -18.78740         5.87477
     2018.00687        -6.02229         5.98630
     2018.00958        -7.79519         5.71904
     2018.01232       -13.41909         5.66880
     2018.01505        -8.54098         5.76425
     2018.01779        -3.43788         6.08577
     2018.02053        -7.27977         5.77329
     2018.02330        -0.77567         6.09984
     2018.02600        -2.05657         5.90291
     2018.02874        -7.08646         5.29001
     2018.03148        -7.42736         5.26891
     2018.03422       -11.65425         5.27594
     2018.03696       -22.66415         5.26288
     2018.03969       -14.75505         5.26690
     2018.04243       -17.11094         5.39249
     2018.04517       -17.59084         5.28097
     2018.04791        -5.34273         5.36637
     2018.05065       -12.09263         5.26991
     2018.05338        -5.46453         5.26388
     2018.05612        -9.89242         5.38245
     2018.05886       -12.03632         5.24781
     2018.06160        -7.92321         5.31312
     2018.06433        -9.33911         5.41359
     2018.06703        -2.02501         5.72205
     2018.06981        -8.87590         6.76096
     2018.07255        -8.57780         5.86171
     2018.07529       -17.08169         5.83157
     2018.07802        -8.68159         5.91697
     2018.08076       -11.63348         6.10888
     2018.08350       -11.99038         5.86774
     2018.08621       -11.77428         5.80645
     2018.08898       -12.17217         6.07673
     2018.09175       -14.30507         6.05764
     2018.09444        -6.00697         5.66980
     2018.09719        -9.14286         6.28371
     2018.09993       -10.44076         5.46283
     2018.10266       -11.78065         5.81549
     2018.10540       -11.02055         5.89688
     2018.10814        -4.73744         5.55627
     2018.11088        -9.32034         5.29905
     2018.11362        -4.68824         5.36838
     2018.11633        -7.42213         5.36135
     2018.11909        -8.78403         6.01644
     2018.12183       -10.26392         5.82052
     2018.12457        -2.81682         5.64067
     2018.12731       -11.62472         5.68688
     2018.13006        -2.89061         5.38747
     2018.13278         1.69549         5.33422
     2018.13552        -3.13040         5.36637
     2018.13826        -6.72530         5.36938
     2018.14099        -9.30820         5.38144
     2018.14373        -9.73009         5.34527
     2018.14647        -5.79799         5.75420
     2018.14921        -4.67488         5.57938
     2018.15195        -3.44778         5.44474
     2018.15468        -6.06468         5.52110
     2018.15742        -7.34857         5.31613
     2018.16016        -7.94147         5.33924
     2018.16290        -9.48136         5.58038
     2018.16564       -13.29726         5.45579
     2018.16837        -8.89316         5.47086
     2018.17111       -10.47305         5.35431
     2018.17385        -9.47695         5.84061
     2018.17659       -10.43284         5.35833
     2018.17932       -11.14274         5.46885
     2018.18206        -5.79063         5.56230
     2018.18480        -6.25553         5.84262
     2018.18754        -9.15843         5.65775
     2018.19028       -11.13432         5.28900
     2018.19301       -16.80022         5.44173
     2018.19575        -3.70411         5.29905
     2018.19849        -4.24901         5.28599
     2018.20123         0.34609         5.36637
     2018.20393        -4.98980         5.35532
     2018.31714        -8.35450         9.23265
     2018.31895        -8.25143         5.32718
     2018.32169        -8.25933         5.24982
     2018.32443        -6.91122         6.25959
     2018.32717       -11.12712         5.19958
     2018.32991        -6.51902         5.33422
     2018.33264        -9.70291         5.23676
     2018.33538        -9.99181         5.62057
     2018.33812        -9.10870         5.72205
     2018.34086        -5.51760         5.28398
     2018.34360        -8.79750         5.34426
     2018.34633       -13.64839         5.21566
     2018.34907       -15.95429         5.47991
     2018.35181        -6.94218         5.52110
     2018.35455         1.19292         5.20059
     2018.35728        -4.03097         5.22570
     2018.36002        -8.69887         5.50804
     2018.36276        -5.86877         5.38144
     2018.36550        -6.24666         5.16542
     2018.36824        -3.03556         5.31412
     2018.37097        -6.00745         5.31915
     2018.37371        -7.34735         5.29001
     2018.37645        -8.65125         5.39852
     2018.37919       -11.22614         5.28599
     2018.38193        -8.62704         5.27594
     2018.38466        -3.21093         5.21867
     2018.38740        -5.60283         5.22470
     2018.39014         0.49627         5.21365
     2018.39288         0.30938         5.33422
     2018.39561        -5.41452         5.21264
     2018.39835         2.28759         5.22470
     2018.40109        -3.16831         5.15035
     2018.40383        -4.02121         5.22369
     2018.40657        -1.13610         5.30407
     2018.40930         4.85300         5.43670
     2018.41204         2.81411         5.23475
     2018.41478        -4.76579         5.22570
     2018.42197        -1.24152        15.47415
     2018.42573        -1.22737         5.23173
     2018.42847         1.10773         5.24379
     2018.43121        -0.24117         5.29403
     2018.43394         0.28194         5.34929
     2018.43668        -7.59696         5.34929
     2018.43942        -2.61085         5.21063
     2018.44214        -2.08675         5.24479
     2018.44490        -2.40665         5.22269
     2018.44763         2.11446         5.22872
     2018.45037        -2.72244         5.27695
     2018.45311        -2.99833         5.18853
     2018.45585        -1.36723         5.27996
     2018.45859        -4.19512         5.22369
     2018.46132        -1.51202         5.30307
     2018.46406        -1.40892         5.15537
     2018.46680        -3.31281         5.19657
     2018.46954         6.35329         5.33522
     2018.47227         8.81740         5.64167
     2018.47501         4.17550         5.88884
     2018.47775         2.16560         5.21566
     2018.48049         1.99371         5.52612
     2018.48323        -6.26319         5.21264
     2018.48596        -4.54108         5.15336
     2018.48870        -2.40298         5.20561
     2018.49144        -0.78888         5.25786
     2018.49418         0.30723         5.34426
     2018.49692        -6.06567         6.28973
     2018.49962         5.54643         5.31814
     2018.50239        -3.54546         5.33522
     2018.50513        -3.98336         5.18451
     2018.50787         0.78375         5.22369
     2018.51060         2.19885         5.29503
     2018.51336        -3.37204         5.36436
     2018.51608        -0.26394         5.21566
     2018.51882         3.28516         5.37240
     2018.52156        -2.43573         5.24982
     2018.52429        -0.92263         5.33522
     2018.52703        -0.68652         5.23977
     2018.52977        -1.54842         5.33422
     2018.53251         1.07969         5.32417
     2018.53525         0.58479         5.17245
     2018.53798         0.94789         5.23977
     2018.54074         6.25600         5.29503
     2018.54346         2.94210         5.35934
     2018.54620         2.77921         5.18652
     2018.54893        -0.96669         5.27494
     2018.55167         1.62841         5.22269
     2018.55441        -2.21348         5.20460
     2018.55715        -1.98838         5.45881
     2018.55989        -0.13927         5.34728
     2018.56262         2.62083         5.29403
     2018.56536         1.31393         5.33623
     2018.56810         1.88604         5.18250
     2018.57084         1.68114         5.23475
     2018.57357         0.65025         5.43871
     2018.57632        -3.96365         5.61856
     2018.57905         3.88245         5.59244
     2018.58179         5.21356         5.86975
     2018.58453         8.94266         5.44072
     2018.58726         3.52977         5.25484
     2018.59000         2.00487         5.23073
     2018.59274         0.56397         5.21666
     2018.59548         2.06808         5.26087
     2018.59822         3.43718         5.24881
     2018.60095         2.54029         5.35632
     2018.60276         5.19835         8.83577
     2018.60643         4.79649         5.25384
     2018.60844         2.87857         7.64615
     2018.62897         0.42435         7.47735
     2018.63028        -3.00860         8.79357
     2018.63381         2.54354         5.39149
     2018.63655         3.54264         5.22169
     2018.63928         4.72874         5.40957
     2018.64202         4.05585         5.50000
     2018.64476         4.80495         5.22068
     2018.64750         5.75106         5.15437
     2018.65023         5.99216         5.36135
     2018.65297         2.23126         5.25082
     2018.65571         1.95737         5.29403
     2018.65845         3.81747         5.21365
     2018.66119        10.83358         5.36536
     2018.66392         7.28568         5.41158
     2018.66666         3.01278         5.16240
     2018.66940         4.95089         5.17346
     2018.67214         2.56699         5.40957
     2018.67488         5.48510         5.18752
     2018.67761         1.45920         5.18250
     2018.68035         0.89930         5.27192
     2018.68309        -2.68559         5.28297
     2018.68583         3.53851         5.25183
     2018.68856         4.05262         5.27996
     2018.69130         5.31572         5.31312
     2018.69404         7.12682         5.30508
     2018.69678         3.06593         5.28599
     2018.69952         2.62103         5.29905
     2018.70225         1.58114         5.32517
     2018.70499         4.51324         5.26991
     2018.70773         0.33534         5.32216
     2018.71047        -2.82555         5.25685
     2018.71321         3.11055         5.20661
     2018.71594         1.46166         5.23776
     2018.71868        -1.89224         5.27192
     2018.72142        -0.57114         5.19154
     2018.72416         0.04997         5.37742
     2018.72689        -4.31593         5.19657
     2018.72963         2.56418         5.36938
     2018.73237        -4.78572         5.19456
     2018.73511        -2.36361         5.21968
     2018.73785         0.54049         5.20460
     2018.74058        -1.18541         5.31111
     2018.74333         6.52570         5.16542
     2018.74606         3.31880         5.25384
     2018.74880        -0.61809         5.44173
     2018.75154         0.62001         5.48593
     2018.75427         4.93111         5.29604
     2018.75701         5.00722         5.52311
     2018.75975         1.44932         5.20259
     2018.76249        -2.72857         5.17346
     2018.76522        -7.90547         5.27594
     2018.76796         2.09363         5.27896
     2018.77070         2.08874         5.30809
     2018.77344         1.98084         5.27494
     2018.77618         1.83095         5.23173
     2018.77891        -0.54395         5.34326
     2018.78165         2.75515         5.34828
     2018.78439        -0.10074         5.23274
     2018.78713        -3.27664         5.29604
     2018.78987        -8.69253         5.39852
     2018.79260        -6.10043         5.31814
     2018.79534         4.50267         5.21968
     2018.79808        -3.22122         5.25886
     2018.80082         0.95988         5.26489
     2018.80355         0.68399         5.25685
     2018.80629         0.22709         5.50402
     2018.80903        -0.96281         5.37843
     2018.81177        -0.46470         5.63765
     2018.81451        -0.93260         5.28800
     2018.81724        -1.75849         5.42163
     2018.81998        -0.29639         5.35029
     2018.82272         6.96872         5.31312
     2018.82546         1.23982         5.32919
     2018.82820        -9.10608         5.27393
     2018.83093         0.87803         5.44976
     2018.83367         0.84013         5.30910
     2018.83641         4.50024         5.43972
     2018.83915         0.83734         5.29001
     2018.84188        -1.78156         5.31412
     2018.84462         4.02955         5.36034
     2018.84736        -6.30235         5.28599
     2018.85010         0.18876         5.29001
     2018.85284        -6.06914         5.27695
     2018.85557        -6.26304         5.37541
     2018.85831        -6.55793         5.30106
     2018.86105        -8.70783         5.34728
     2018.86379        -6.87472         5.44273
     2018.86653        -4.19162         5.38546
     2018.86926       -11.14552         5.40555
     2018.87200        -4.15641         5.40154
     2018.87474         1.25869         5.33020
     2018.87748        -4.74420         5.39852
     2018.88021        -3.75810         5.57234
     2018.88295        -2.63600         5.47689
     2018.88569        -3.42289         5.44474
     2018.88843         1.89721         5.58038
     2018.89117         2.43432         5.44876
     2018.89390         1.73742         5.58139
     2018.89664        -2.88648         5.64468
     2018.89938        -4.45537         5.44775
     2018.90212        -7.49727         5.45378
     2018.90485         2.31684         5.44775
     2018.90759        -0.34606         5.49196
     2018.91033         2.15405         5.45579
     2018.91307         5.09415         5.53919
     2018.91581        -0.76175         5.36135
     2018.91854         5.31936         5.38445
     2018.92128         0.58946         5.38345
     2018.92402        -2.44043         5.42063
     2018.92676        -0.82933         5.40756
     2018.92950        -0.96723         5.40857
     2018.93223        -4.10112         5.49297
     2018.93497        -3.73202         5.37742
     2018.93771        -6.60591         5.39048
     2018.94045       -13.11481         5.52914
     2018.94318        -4.82771         5.34527
     2018.94592        -0.25360         5.30106
     2018.94866         0.80050         5.44173
     2018.95140         6.08061         5.49196
     2018.95335        14.15568         8.28919
     2018.96880        -2.25273         9.90382
     2018.97056         1.47933         5.40857
     2018.97225         3.61940        12.02887
     2018.98981       -16.52793         5.60851
     2018.99247        -2.14983         5.37340
     2018.99520        -3.30973         5.39149
     2018.99794       -13.91663         5.43670
     2019.00068       -12.17752         5.33422
     2019.00342        -8.64542         5.44876
     2019.00616        -7.12831         5.40957
     2019.00889        -3.34921         5.37943
     2019.01163        -5.25910         5.44675
     2019.01437         2.37700         5.36034
     2019.01711         5.54410         5.36637
     2019.01984       -10.05079         5.33623
     2019.02258        -6.64669         5.34929
     2019.02532        -8.91058         5.42364
     2019.02806       -15.26548         5.36838
     2019.03080       -11.23838         5.34929
     2019.03353       -11.77027         5.26690
     2019.03627       -15.86617         5.34728
     2019.03901       -10.07006         5.37742
     2019.04175        -8.03696         5.29805
     2019.04449        -3.94486         5.32116
     2019.04722        -9.66275         5.39149
     2019.04996       -12.69565         5.45378
     2019.05270       -17.61654         5.47689
     2019.05544        -5.72144         5.42163
     2019.05817       -11.02534         5.65272
     2019.06091        -9.02723         5.47187
     2019.06365        -6.67013         5.43369
     2019.06639       -11.33002         5.47689
     2019.06913        -8.25692         5.40656
     2019.07186        -5.45682         5.42866
     2019.07460        -8.08171         5.41761
     2019.07734        -5.33461         5.32718
     2019.08008        -3.06150         5.35130
     2019.08282        -5.67940         5.47086
     2019.08555        -3.29830         5.27092
     2019.08829        -2.87619         5.27494
     2019.09103         4.30191         5.32819
     2019.09377         1.73902         5.30809
     2019.09650         3.06712         5.25987
     2019.09924        -1.01177         5.30307
     2019.10198        -6.76067         5.31915
     2019.10472        -7.21857         5.26288
     2019.10746        -6.32446         5.24078
     2019.11019        -4.53536         5.29403
     2019.11293         2.35275         5.46986
     2019.11567         2.11785         5.55627
     2019.11841        -0.24205         5.39149
     2019.12115        10.78106         5.45680
     2019.12388         6.40916         5.47187
     2019.12662         0.17627         5.63263
     2019.12936        -1.32163         5.40053
     2019.13210        -3.76153         5.41158
     2019.13483        -3.60942         5.65775
     2019.13757        -6.09332         5.68186
     2019.14031        -7.80721         5.31915
     2019.14305        -5.58811         5.38144
     2019.14579        -5.45301         5.39350
     2019.14852        -4.51990         5.85066
     2019.15126        -0.79780         5.86573
     2019.15346        -0.87471         7.60696
     2019.56286        -5.96315        10.16505
     2019.56468        -4.12708         5.27494
     2019.56741        -1.97598         5.19858
     2019.57015        -4.93488         5.18853
     2019.57289         2.77523         5.27192
     2019.57563        -7.73767         5.22771
     2019.57837        -1.39256         5.25685
     2019.58110        -2.02746         5.18350
     2019.58384        -5.70436         5.35532
     2019.58658        -5.94925         5.37340
     2019.58932         1.61285         5.22872
     2019.59206         6.55096         5.28097
     2019.59479         3.35906         5.18652
     2019.59753        -0.89884         5.38948
     2019.60027         3.53027         5.37039
     2019.60301         3.08637         5.25987
     2019.60574         4.83048         5.44072
     2019.60848         1.03358         5.47086
     2019.61122        -0.62532         5.18752
     2019.61396        -0.82621         5.30307
     2019.61670         1.76489         5.18953
     2019.61943         1.81600         5.19556
     2019.62217         5.18410         5.31613
     2019.62491         3.49320         5.19757
     2019.62765         4.50331         5.19054
     2019.63039         5.46341         5.18652
     2019.63312        -0.87148         5.19355
     2019.63586         2.57862         5.18551
     2019.63860        -1.28628         6.65647
     2019.64132         1.62383         5.49799
     2019.66324         1.42766         5.28197
     2019.66598        -0.93723         5.23374
     2019.66872         0.99787         5.27192
     2019.67145         3.24097         5.19657
     2019.67419        -9.21292        22.03316
     2019.67695         0.47918         5.36235
     2019.67967         0.95729         5.29403
     2019.68240        -3.87961         5.27494
     2019.68514         3.93549         5.24078
     2019.68788         6.55860         5.28800
     2019.69062         3.96570         5.26589
     2019.69336        -1.06219         5.17949
     2019.69609         1.38891         5.19657
     2019.69883        -6.35099         5.36938
     2019.70157         4.21812         5.20259
     2019.70431         0.95222         5.24580
     2019.70705         0.10833         5.18049
     2019.70978         6.84843         5.23475
     2019.71252        -2.52347         5.21063
     2019.71526         2.71064         5.16944
     2019.71800         3.21474         5.38747
     2019.72073         2.67985         5.51407
     2019.72347         2.07895         5.16944
     2019.72621         1.78105         5.27996
     2019.72895         0.71016         5.29202
     2019.73169         3.63026         5.18250
     2019.73442         8.27037         5.37441
     2019.73716         4.62747         5.21666
     2019.73990         4.52158         5.37039
     2019.74264         3.78568         5.26790
     2019.74538         1.29478         5.19657
     2019.74811        -1.47511         5.27695
     2019.75085         0.56999         5.30809
     2019.75359         1.43510         5.43771
     2019.75633         0.55920         5.34125
     2019.75906        -1.07970         5.21465
     2019.76180        -1.47359         5.22972
     2019.76454         0.63951         5.29101
     2019.76728         1.72862         5.40656
     2019.77002        -2.39728         5.36536
     2019.77275        -3.49018         5.43469
     2019.77549        -0.52807         5.42264
     2019.77823         0.59003         5.35331
     2019.78097         0.54914         5.34828
     2019.78371         3.50624         5.38847
     2019.78644        -3.43366         5.71904
     2019.78918         6.48645         5.44675
     2019.79192         8.06255         5.34627
     2019.79466         7.40866         5.52110
     2019.79739         7.02476         5.26589
     2019.80013         7.75386         5.25082
     2019.80287        -0.47103         5.29905
     2019.80561         2.93607         5.52411
     2019.80835         0.11218         5.29805
     2019.81108        -1.79172         5.28398
     2019.81382         1.73338         5.28297
     2019.81656         0.40449         5.34728
     2019.81930        -3.06241         5.27896
     2019.82203        -4.43530         5.31412
     2019.82478        -6.93220         5.52512
     2019.82751        -6.47709         5.28699
     2019.83025        -4.76699         5.39852
     2019.83299        -3.51889         5.37843
     2019.83572        -2.83478         5.27795
     2019.83846         1.88832         5.31915
     2019.84120        -0.25957         5.29202
     2019.84394        -1.06147         5.48995
     2019.84668        -3.79637         5.32316
     2019.84941         0.11074         5.33020
     2019.85215        -0.51416         5.29704
     2019.85489         2.68295         5.48392
     2019.85763        -0.13695         5.31412
     2019.86036        -3.24685         5.33723
     2019.86310        -0.47774         5.37240
     2019.86584         8.41736         5.40354
     2019.86858         5.66547         5.30407
     2019.87132         5.66557         5.53818
     2019.87405         7.57967         5.31211
     2019.87679        -0.81822         5.41661
     2019.87953        10.49488         5.27192
     2019.88227        12.63799         5.35532
     2019.88501         6.66009         5.27996
     2019.88774         3.18819         5.44574
     2019.89048         8.26730         5.27494
     2019.89322         7.07640         5.43369
     2019.89596         6.35451         5.27393
     2019.89869         4.41061         5.24580
     2019.90143         6.85871         5.27092
     2019.90417         7.11482         5.28599
     2019.90691         2.24892         5.26991
     2019.90965         1.08403         5.24379
     2019.91238         2.51713         5.24580
     2019.91512         4.90923         5.28498
     2019.91786         8.86334         5.25384
     2019.92060         2.67744         5.25384
     2019.92334         6.38155         5.32116
     2019.92607         4.69865         5.26188
     2019.92881         2.05776         5.32618
     2019.93155         6.17386         5.28599
     2019.93429        10.96896         5.24479
     2019.93702         3.99607         5.25183
     2019.93976        -1.02783         5.25987
     2019.94250        -0.32672         5.30106
     2019.94524         1.76438         5.38345
     2019.94798        -6.24952         5.28297
     2019.95071         2.12159         5.60048
     2019.95345         1.74669         5.30407
     2019.95619        -1.18620         5.26589
     2019.95893        -0.47010         5.29604
     2019.96167         0.22000         5.32819
     2019.96440         3.86911         5.45780
     2019.96714         3.01021         5.45579
     2019.96988        -0.65868         5.24379
     2019.97262         5.76642         5.34025
     2019.97535         0.76352         5.29604
     2019.97809        -1.35437         5.34226
     2019.98083        -0.28827         5.30910
     2019.98357        -4.07116         5.29001
     2019.98631        -0.78606         5.25685
     2019.98904        -1.58996         5.27494
     2019.99178        -1.67185         5.34527
     2019.99452        -0.78875         5.33221
     2019.99726         3.36036         5.33723
     2020.00000         9.87046         5.28900
     2020.00273         5.93156         5.27695
     2020.00547         5.39867         5.43871
     2020.00821        -0.41123         5.49498
     2020.01095         0.94788         5.46182
     2020.01368        -7.17902         5.52512
     2020.01642        -1.91191         5.53115
     2020.01916        -0.05081         5.35934
     2020.02190        -2.83671         5.44373
     2020.02464        -4.96360         5.46182
     2020.02737         1.80450         5.34828
     2020.03011        -2.36139         5.32919
     2020.03285        -6.90329         5.31412
     2020.03559        -1.83219         5.21365
     2020.03833        -3.93108         5.22771
     2020.04106        -3.86998         5.41761
     2020.04380        -2.58087         5.35532
     2020.04654        -4.31677         5.22570
     2020.04928        -5.46267         5.18049
     2020.05201        -5.68756         5.22570
     2020.05475         1.21654         5.30809
     2020.05749        -2.11835         5.30207
     2020.06023         3.19575         5.20360
     2020.06297        -2.17815         5.31010
     2020.06570         1.43396         5.22369
     2020.06844         3.28706         5.29905
     2020.07118         2.02517         5.31312
     2020.07392         0.21027         5.33422
     2020.07666         0.58937         5.26188
     2020.07939         0.07148         5.24580
     2020.08213        -1.87342         5.28599
     2020.08487         1.46069         5.34728
     2020.08761        -5.67021         5.27996
     2020.09034        -2.41411         5.29001
     2020.09308        -5.38200         5.28699
     2020.09582         0.78210         5.22872
     2020.09856         6.33321         5.29805
     2020.10130         1.40631         5.32718
     2020.10403        -5.33258         5.41259
     2020.10677        -8.65548         5.37240
     2020.10951       -10.46938         5.28398
     2020.11225        -5.27927         5.24580
     2020.11498        -4.02617         5.25585
     2020.11772        -2.82806         5.41359
     2020.12046        -2.47996         5.45278
     2020.12320        -8.64186         5.30709
     2020.12594        -3.78775         5.28197
     2020.12867        -8.62965         5.25685
     2020.13141       -10.47754         5.31814
     2020.13415       -11.09544         5.26087
     2020.13689        -8.34834         5.40455
     2020.13963        -7.57923         5.42364
     2020.14236        -4.57713         5.29403
     2020.14510        -3.30302         5.39852
     2020.14784        -7.67092         5.33522
     2020.15058       -11.40982         5.30207
     2020.15331       -15.25771         5.44173
     2020.15605       -12.38661         5.32517
     2020.15879        -6.35650         5.28297
     2020.16153        -5.70540         5.28097
     2020.16427        -3.78630         5.31513
     2020.16700        -1.72119         5.31111
     2020.16974        -2.84809         5.34125
     2020.17248        -5.10298         5.62861
     2020.17522        -6.97288         5.58340
     2020.17796        -2.21778         5.28800
     2020.18069        -2.07167         5.27092
     2020.18343        -3.78557         5.26589
     2020.18617        -7.28146         5.29101
     2020.18891        -6.31736         5.37943
     2020.19164        -3.98026         5.38747
     2020.19438        -7.95415         5.38847
     2020.19712        -5.96505         5.40354
     2020.19986        -9.04194         5.39048
     2020.20260       -10.97684         5.43771
     2020.20533        -9.46273         5.38144
     2020.20807        -6.99363         5.36838
     2020.21081        -9.68253         5.43670
     2020.21355        -7.59742         5.84764
     2020.21629        -5.80532         5.67382
     2020.21902        -8.96921         5.46684
     2020.22176        -6.55011         5.46986
     2020.22450        -0.34101         5.37039
     2020.22724        -4.56790         6.04759
     2020.22998        -1.98080         5.99333
     2020.23271        -2.79769         9.23466
     2020.23819        -6.19449         6.54092
     2020.24093       -12.85138         8.72927
     2020.24366        -3.04128         6.40026
     2020.24640        -0.63217         7.31659
     2020.25188       -14.13097        13.98511
     2020.25462        -8.35486         8.22790
     2020.25735        -4.90676         7.21009
     2020.26009         1.25035         5.37039
     2020.26283         0.85645         5.42967
     2020.26557        -3.84845         5.36737
     2020.26830        -6.15434         5.34728
     2020.27104        -8.19524         5.43670
     2020.27378        -4.10713         5.36838
     2020.27652        -6.75803         5.37742
     2020.27929        -4.57392         5.48895
     2020.28199        -7.35482         5.37943
     2020.28473       -10.02572         5.41862
     2020.28747       -11.30761         5.36436
     2020.29021        -7.73451         5.35632
     2020.29295        -7.26340         5.41158
     2020.29568        -3.09730         5.39651
     2020.29842        -2.33520         5.35331
     2020.30116        -1.08309         5.37943
     2020.30390        -1.01499         5.39350
     2020.30663        -3.86988         5.44574
     2020.30937        -6.93478         5.53818
     2020.31211        -6.35168         5.52914
     2020.31485        -8.47257         5.42464
     2020.31759        -6.61647         5.26087
     2020.32032        -5.79036         5.43469
     2020.32306        -5.25126         5.31211
     2020.32580        -8.18316         5.29001
     2020.32854        -4.44405         5.32919
     2020.33128        -5.26695         5.29202
     2020.33401        -3.80884         5.29202
     2020.33675         1.48426         5.33321
     2020.33949        -5.87064         5.28800
     2020.34223       -10.54653         5.37943
     2020.34496        -7.27943         5.30106
     2020.34770       -10.64732         5.25886
     2020.35044        -6.19522         5.33623
     2020.35318       -10.25512         5.37139
     2020.35592        -7.56601         5.39149
     2020.35865        -2.68491         5.27695
     2020.36139        -0.58680         5.33422
     2020.36413        -4.10270         5.36536
     2020.36687        -0.49660         5.33824
     2020.36961        -4.46849         5.34627
     2020.37234        -3.35639         5.33321
     2020.37508         2.11072         5.30407
     2020.37782         0.68982         5.31111
     2020.38056        -3.58607         5.29403
     2020.38329         0.06203         5.28398
     2020.38603        -3.45987         5.36637
     2020.38877        -3.09076         5.33924
     2020.39151        -3.74366         5.27393
     2020.39425        -6.57355         5.29704
     2020.39698        -4.47845         5.37039
     2020.39972        -5.91735         5.30006
     2020.40246        -7.37424         5.28900
     2020.40520        -7.02414         5.38245
     2020.40794        -4.31703         5.28297
     2020.41067         2.51707         5.43972
     2020.41341         0.18717         5.44474
     2020.41615        -2.51072         5.31312
     2020.41889        -7.10162         5.29604
     2020.42162        -4.71751         5.31412
     2020.42436        -7.92341         5.63464
     2020.42710        -2.29831         5.56631
     2020.42984        -3.06420         5.59746
     2020.43258        -1.26210         5.39852
     2020.43531        -3.65399         5.33723
     2020.43805        -6.44289         5.34326
     2020.44079        -4.32379         5.39551
     2020.44353        -1.25968         5.42364
     2020.44626        -6.68358         5.48392
     2020.44900        -0.36547         5.44675
     2020.45174        -0.58937         5.24178
     2020.45448        -2.92927         5.28197
     2020.45722        -3.59916         5.25183
     2020.45995         0.90494         5.23073
     2020.46269        -0.12995         5.39350
     2020.46543        -6.51985         5.20259
     2020.46817        -1.70875         5.31915
     2020.47091         0.08136         5.29302
     2020.47364        -4.75154         5.27192
     2020.47638        -0.12443         5.24479
     2020.47912        -1.66533         5.35331
     2020.48186        -2.75522         5.77731
     2020.48459        -1.84212         5.42665
     2020.48733         3.46198         5.52914
     2020.49007        -1.47791         5.44775
     2020.49281         5.36519         5.39048
     2020.49555        -1.01370         5.32618
     2020.49828        -0.10560         5.23575
     2020.50102        -5.00950         5.27494
     2020.50376        -4.41939         5.30809
     2020.50650       -11.75729         5.24881
     2020.50924        -9.06318         5.21767
     2020.51197        -3.84208         5.22369
     2020.51471         3.11802         5.52411
     2020.51745        -2.80687         5.24379
     2020.52019         2.36923         5.44072
     2020.52292         1.21734         5.44273
     2020.52566        -4.01456         5.39350
     2020.52840        -5.49146         5.54220
     2020.53114        -1.06235         5.34929
     2020.53388        -2.07725         5.35230
     2020.53661        -1.39314         5.35733
     2020.53935        -4.73004         5.32919
     2020.54209         0.02906         5.38445
     2020.54483        -0.51483         5.35632
     2020.54757        -1.99873         5.34226
     2020.55030        -3.23862         5.36034
     2020.55304        -0.50952         5.37240
     2020.55578         1.64558         5.49297
     2020.55852         4.89669         5.43771
     2020.56125         1.49979         5.72205
     2020.56399         1.31190         5.36938
     2020.56673        -3.39200         5.34728
     2020.56947         3.04611         5.40555
     2020.57221         8.94321         5.57134
     2020.57494         4.58331         5.51206
     2020.57768         2.76742         5.36436
     2020.58042         0.23452         5.48794
     2020.58316        -2.51837         5.42264
     2020.58590        -4.15727         5.47589
     2020.58863        -2.45617         5.41058
     2020.59137        -4.27806         5.36034
     2020.59411         6.74904         5.35331
     2020.59685         6.15415         5.79037
     2020.59958        -4.39075         5.50201
     2020.60232        -2.24465         5.35130
     2020.60506        -0.50654         5.45378
     2020.60780         2.37856         5.35029
     2020.61054         2.99467         5.47187
     2020.61327        -4.47823         5.40354
     2020.61601         0.11887         5.39450
     2020.61875        -4.12602         5.36536
     2020.62149        -5.64892         5.39149
     2020.62423         0.79319         5.43469
     2020.62696        -4.89071         5.40756
     2020.62970        -4.60661         5.49799
     2020.63244        12.71650         5.49598
     2020.63518        -2.11540         5.56933
     2020.63791        -0.40029         5.52813
     2020.64065         0.34281         5.39852
     2020.64339        -3.67709         5.41259
     2020.64613         3.12802         5.42766
     2020.64887         3.51112         5.50804
     2020.65160         0.57523         5.40254
     2020.65434         0.99833         5.37843
     2020.65708        -0.03156         5.35130
     2020.65982         3.50354         5.33623
     2020.66256        -0.45236         5.43570
     2020.66529         6.75975         5.46885
     2020.66803         4.21585         5.35331
     2020.67077         9.34196         5.44675
     2020.67351         2.70306         5.33221
     2020.67624         1.94916         5.39852
     2020.67898        -4.72073         5.47790
     2020.68172        -1.14463         5.38345
     2020.68446        -1.89052         5.74215
     2020.68720         7.41958        15.11345
     2020.68993        -1.14032         5.49900
     2020.69267         0.23179         5.57435
     2020.69541        -0.48011         5.68990
     2020.69815         0.36000         5.54321
     2020.70089         0.31610         5.35532
     2020.70362        -0.59080         5.37340
     2020.70636        -2.58169         5.64268
     2020.70910        -2.56559         5.68588
     2020.71184         1.06352         5.55526
     2020.71457         1.61962         5.52211
     2020.71731         3.79972         5.48694
     2020.72008         1.05583         5.59646
     2020.72279        -0.18507         5.39048
     2020.72553         6.23704         5.57335
     2020.72826         1.35014         5.67382
     2020.73100         7.06824         5.72506
     2020.73374         5.27535         5.39350
     2020.73648         3.95245         5.48794
     2020.73921        -0.61744         5.46684
     2020.74195         3.45366         5.39450
     2020.74469        -0.39524         5.39249
     2020.74743         0.29087         5.38044
     2020.75017        -0.59703         5.39852
     2020.75290        -2.29492         5.43670
     2020.75564        -0.68082         5.35733
     2020.75838         4.52729         5.48192
     2020.76112         6.57039         5.35532
     2020.76386         6.72749         5.38245
     2020.76659         8.92160         5.35029
     2020.76933         8.41070         5.46182
     2020.77207         9.65781         5.39852
     2020.77481        12.90891         5.36235
     2020.77754        12.34601         5.39149
     2020.78028        13.25712         5.52813
     2020.78302        10.10922         5.43268
     2020.78576         7.60933         5.42967
     2020.78850         0.61243         5.48995
     2020.79123         3.21253         5.49397
     2020.79397         2.37864         5.38646
     2020.79671         9.05974         5.41761
     2020.79945         8.48485         5.37642
     2020.80219         7.13095         5.54622
     2020.80492         9.95105         5.43972
     2020.80766         4.97516         5.50502
     2020.81040         1.62526         5.45881
     2020.81314         6.91737         5.31714
     2020.81587         1.12347         5.36637
     2020.81861         4.96857         5.38245
     2020.82135         5.18568         5.40555
     2020.82409         6.54778         5.34728
     2020.82683         7.70489         5.41158
     2020.82956         6.27799         5.49096
     2020.83230         6.66409         5.44876
     2020.83504         8.20520         5.43067
     2020.83778         8.90130         5.25987
     2020.84052        14.81241         5.29604
     2020.84325         0.43651         5.50201
     2020.84599         6.22562         5.45981
     2020.84873        13.99172         5.31714
     2020.85147        10.24982         5.33824
     2020.85420        15.61393         5.25183
     2020.85694        11.42903         5.32618
     2020.85968        11.16614         5.28398
     2020.86242        11.63124         5.40154
     2020.86516        10.45734         5.50101
     2020.86789        14.35545         5.50804
     2020.87063        16.92655         5.34828
     2020.87337        14.77366         5.28197
     2020.87611        13.06176         5.47388
     2020.87885        10.35686         5.54622
     2020.88158        13.93197         5.61354
     2020.88432        10.24507         5.44173
     2020.88706         2.86318         5.62760
     2020.88980         4.49628         5.41862
     2020.89253         5.62438         5.44373
     2020.89527        10.01749         5.54823
     2020.89801        10.21959         5.57134
     2020.90075        14.80970         5.41661
     2020.90349         9.72280         5.30407
     2020.90622         5.81990         5.37843
     2020.90896         8.55601         5.60650
     2020.91170         7.61111         5.74014
     2020.91444        10.54022         5.54622
     2020.91718         1.95032         5.31312
     2020.91991        -0.61558         5.33020
     2020.92265        -0.93647         5.38445
     2020.92539        -0.50037         5.44373
     2020.92813        -1.83126         5.44173
     2020.93086        -0.55816         5.34728
     2020.93360         2.63495         5.34326
     2020.93634         0.19005         5.36335
     2020.93908         3.31215         5.46785
     2020.94182         1.09526         5.40053
     2020.94455         0.49036         5.33020
     2020.94729        -1.76453         5.33422
     2020.95003        -5.16743         5.40555
     2020.95277        -3.88133         5.33522
     2020.95551         2.65578         5.41560
     2020.95819        -1.84512         5.63866
     2020.96115         6.78699         6.67355
     2020.96372        -0.92491         5.36938
     2020.96646         4.27619         5.41761
     2020.96919         4.71930         5.45479
     2020.97193         0.58340         5.37742
     2020.97467         8.23451         5.51206
     2020.97741        -2.71339         5.41259
     2020.98015        -5.07829         5.58139
     2020.98288        -3.38318         5.47488
     2020.98562         6.64292         5.35833
     2020.98836         6.09403         5.37039
     2020.99110         3.60213         5.30006
     2020.99384         3.01323         5.23877
     2020.99657         4.11234         5.27293
     2020.99931         8.02944         5.43067
     2021.00205         1.90655         5.24680
     2021.00479        13.42165         5.25987
     2021.00752        11.80475         5.26188
     2021.01026        10.58186         5.28197
     2021.01300         1.87796         5.34828
     2021.01573         3.73807         5.56230
     2021.01848         4.36517         5.78836
     2021.02121        -0.51973         5.35632
     2021.02395         1.74338         5.28800
     2021.02669        -0.19052         5.43771
     2021.02943        -3.40641         5.30910
     2021.03216         4.48869         5.28297
     2021.03490         8.78880         5.87377
     2021.03764        -3.99010         5.31613
     2021.04038        -1.21600         5.43067
     2021.04312        -0.83189         5.34426
     2021.04585        -0.74579         5.35733
     2021.04859        -1.80968         5.29001
     2021.05133        -3.66558         5.30508
     2021.05404         1.73352         5.62057
     2021.05681         1.96863         5.40053
     2021.05954        -4.09027         5.36737
     2021.06228        -2.73316         5.28699
     2021.06502        -0.73406         5.32919
     2021.06776         4.84304         5.26790
     2021.07049         2.61615         5.31412
     2021.07323         3.79025         5.44072
     2021.07597        -5.63864         5.31714
     2021.07871         0.50846         5.35331
     2021.08145         0.78156         5.29302
     2021.08418        -6.00633         5.29905
     2021.08692         2.82877         5.27996
     2021.08966         2.28888         5.35331
     2021.09240        -4.43602         5.32015
     2021.09514        -2.15492         5.43268
     2021.09787        -0.29981         5.50402
     2021.10061         1.66729         5.30307
     2021.10335         0.29740         5.33824
     2021.10609        -5.08550         5.34828
     2021.10882        -1.04140         5.27996
     2021.11156        -6.19529         5.30508
     2021.11430        -6.48219         5.29805
     2021.11704        -4.95808         5.28900
     2021.11978        -2.27898         5.31814
     2021.12251        -3.46687         5.37039
     2021.12525       -13.69077         5.27896
     2021.12799       -12.59967         5.33422
     2021.13073        -3.64156         5.28498
     2021.13347        -5.43446         5.37240
     2021.13620        -3.26535         5.35431
     2021.13894        -0.29825         5.22369
     2021.14168        -2.97715         5.37240
     2021.14442        -3.97804         5.26288
     2021.14715        -0.48394         5.30207
     2021.14989        -7.24283         5.28297
     2021.15263        -3.21473         5.42565
     2021.15537        -0.39363         5.38044
     2021.15811        -1.12452         5.54019
     2021.16084        -0.63142         5.37742
     2021.16358        -2.65831         5.44072
     2021.16632         1.62679         5.50603
     2021.16906         4.12589         5.38646
     2021.17180        -2.84900         5.32819
     2021.17453        -3.19090         5.39752
     2021.17727        -1.32779         5.38646
     2021.18001        -2.60969         5.42967
     2021.18275        -7.28159         5.66478
     2021.18548        -7.27248         5.30709
     2021.18822        -4.94038         5.27795
     2021.19096        -2.15027         5.27192
     2021.19370        -5.48717         5.35934
     2021.19644        -5.96007         5.37742
     2021.19917        -5.32196         5.34326
     2021.20191        -2.15986         5.28599
     2021.20465        -1.10175         5.23977
     2021.20739        -3.21365         5.37240
     2021.21013         1.44246         5.52914
     2021.21286         0.57156         5.54220
     2021.21560        -2.01034         5.32417
     2021.21834        -4.06423         5.35532
     2021.22108        -3.09513         5.24479
     2021.22381        -8.86702         5.38948
     2021.22655        -1.72892         5.54019
     2021.22929         4.98318         5.37843
     2021.23203         0.63329         5.26589
     2021.23477        -7.29461         5.26489
     2021.23750        -6.60750         5.38747
     2021.24024        -3.50440         5.41460
     2021.24298        -3.50030         5.32517
     2021.24572        -9.68919         5.34527
     2021.24846        -5.47609         5.41158
     2021.25119        -0.81598         5.28800
     2021.25393        -1.83288         5.53115
     2021.25667        -4.21678         5.35532
     2021.25941        -4.54667         5.35230
     2021.26214        -2.29357         5.44976
     2021.26488         0.98954         5.37240
     2021.26762         5.24364         5.47187
     2021.27036        -1.58426         5.86573
     2021.27310        -0.40415         5.36938
     2021.27583        -4.80105         5.33422
     2021.27857        -4.30694         5.43972
     2021.28131        -3.61184         5.48292
     2021.28405        -3.97774         5.44072
     2021.28679        -0.63363         5.42665
     2021.28952        -1.55553         5.93606
     2021.29226        -4.13142         5.42063
     2021.29500         0.01068         5.37039
     2021.29774         0.21579         6.27768
     2021.30047        -0.45211         5.50603
     2021.30321         3.33599         5.41661
     2021.30595         7.92410         5.57435
     2021.30869        10.59720         5.57938
     2021.31143         5.26931         5.29604
     2021.31416         7.27641         5.39450
     2021.31690         6.09351         5.33723
     2021.32021         2.22464         7.52759
     2021.32295         3.43674         7.30152
     2021.32569         0.55185         7.03325
     2021.32842        -4.79405         7.23721
     2021.33116        15.78406         7.07846
     2021.33390         7.48216         6.99406
     2021.33664        -0.91174         7.03727
     2021.33937         2.09337         7.09454
     2021.34211        -1.75953         7.11865
     2021.34485         4.53458         7.24425
     2021.34759        -8.16232         7.21410
     2021.35033         2.12178         7.34271
     2021.35306        -0.66711         7.08751
     2021.35580         0.47299         7.08550
     2021.35854        -1.74590         7.12870
     2021.36128         2.68120         7.50046
     2021.36402        -1.83470         7.22114
     2021.36653        -9.85160         6.39925
     2021.36892        -2.27751         5.38646
     2021.37166        -2.02341         5.36536
     2021.37440        -1.29030         5.40857
     2021.37770         1.07482         7.17793
     2021.38044        -0.00907         7.37085
     2021.38318         2.80103         7.67428
     2021.38592         1.30014         7.41807
     2021.38866        -0.52176         7.37085
     2021.39214        52.71437        92.22800
     2021.39413         2.85245         7.15784
     2021.39687         2.17755         7.22918
     2021.39938         0.32465         6.29777
     2021.40177         1.38374         5.43168
     2021.40451        -0.08416         5.54622
     2021.40782         2.54597         7.21712
     2021.41056         3.28707         7.17592
     2021.41330         2.30618         7.31357
     2021.41603         3.78328         7.12066
     2021.41877        -4.97661         7.21913
     2021.42151        13.32749         7.27539
     2021.42425        10.19159         7.33467
     2021.42699         6.65770         7.29047
     2021.42972        11.18080         7.21511
     2021.43246         8.96691         7.27037
     2021.43520         1.72001         7.22415
     2021.43794         4.05311         7.36884
     2021.44068         0.80222         7.21310
     2021.44341         0.62932         7.14076
     2021.44615         4.51043         7.20305
     2021.44889         2.84353         7.20506
     2021.45163         7.95763         7.46931
     2021.45436         4.91374         7.76169
     2021.45710         6.45084         7.64012
     2021.45984         6.32095         7.08650
     2021.46266        -3.22695         7.73557
     2021.46528         0.53115         7.29147
     2021.46805         4.80426         7.06540
     2021.47079         5.42836         7.22013
     2021.47353        13.24147         7.34070
     2021.47627         3.84157         7.19702
     2021.47901         8.54667         7.19803
     2021.48174        -4.11422         7.14880
     2021.48448        -4.48012         7.13372
     2021.48722        -2.46901         8.29823
     2021.48996         3.83009         7.05837
     2021.49269         6.52419         7.04631
     2021.49520         3.88329         6.38519
     2021.49817         3.87640         7.33769
     2021.50091         5.76151         7.42108
     2021.50365         5.24461         8.12340
     2021.50638         1.84072         7.19702
     2021.50912        -3.85518         7.24023
     2021.51186        -0.59308         7.65017
     2021.51459        12.69303         7.42812
     2021.51733         7.82013         7.27137
     2021.52007         2.05024         7.54366
     2021.52281        -1.33966         7.17190
     2021.52555         0.09144         7.23520
     2021.52829         4.17655         7.18698
     2021.53102         5.35165         7.16085
     2021.53376        -0.21924         7.32061
     2021.53650        -2.40114         7.47634
     2021.53924         8.89996         7.64213
     2021.54198        -1.00993         7.21611
     2021.54471         1.86917         7.25630
     2021.54745        -0.61972         7.21812
     2021.55019         4.09938         7.34573
     2021.55293        -1.29352         7.58184
     2021.55566         6.41759         7.40400
     2021.55840         0.94169         7.26836
     2021.56114         1.82480         7.16186
     2021.56388         5.90890         7.15884
     2021.56605        -0.84002         5.49799
     2021.56878         3.63009         5.54823
     2021.57152         3.33119         5.62459
     2021.57426         0.55730         5.52010
     2021.57700         7.94040         5.79037
     2021.57974        -1.24050         5.43067
     2021.58247        -2.16939         5.60650
     2021.58521        -1.48029         5.50904
     2021.58795        -1.58518         5.50904
     2021.59069        -2.23808         5.52914
     2021.59342        -0.34698         5.56129
     2021.59616        -0.29987         5.58139
     2021.59890         2.87323         5.49397
     2021.60164        10.28734         5.71100
     2021.60438         2.28944         5.41862
     2021.60711         6.65454         5.46383
     2021.60985         8.59465         5.52914
     2021.61259         3.19275         5.45881
     2021.61533        -1.56314         5.44373
     2021.61807         3.91896         5.50101
     2021.62080         4.05206         5.48292
     2021.62354         6.92117         5.47388
     2021.62628         0.78527         5.49598
     2021.62902        12.92438         5.47689
     2021.63175         5.08748         5.59344
     2021.63449         1.90858         5.60952
     2021.63723        -1.01331         5.80544
     2021.63997         6.76079         5.63564
     2021.64271         4.59290         5.55627
     2021.64544         1.22400         5.46383
     2021.64818         2.36910         5.45177
     2021.65092         6.50321         5.47187
     2021.65366        -0.92369         5.46182
     2021.65639         3.66442         5.45177
     2021.65913         2.41352         5.46986
     2021.66187         2.31962         5.47589
     2021.66461         7.69173         5.44273
     2021.66735         6.49183         5.40957
     2021.67008         2.32494         5.49096
     2021.67282         8.79404         5.60550
     2021.67556         4.66915         5.77932
     2021.67830         4.58125         5.60349
     2021.68104         4.84035         5.48794
     2021.68377         5.61046         5.34426
     2021.68651         5.55556         5.44474
     2021.68925         6.03167         5.36637
     2021.69199         5.97877         5.50201
     2021.69472         7.02187         5.54120
     2021.69746         5.62398         5.48694
     2021.70020         5.16508         5.49096
     2021.70294         2.25419         5.48895
     2021.70568        12.67829         5.76525
     2021.70841         5.60239         5.66177
     2021.71115         5.46650         5.62760
     2021.71389        17.57460         5.63263
     2021.71663         3.53271         5.57134
     2021.71937         3.13681         5.53517
     2021.72210        -0.86309         5.51809
     2021.72484         3.53802         5.55727
     2021.72758         1.79212         5.53818
     2021.73032        -3.55377         5.77028
     2021.73305         9.61533         5.49799
     2021.73579        15.31943         5.68487
     2021.73855        19.89154         5.80042
     2021.74127         9.71264         5.54321
     2021.74401         3.19975         5.49598
     2021.74674         6.36885         5.54823
     2021.74948        14.86795         6.05764
     2021.75222         5.64206         5.54923
     2021.75496        12.60316         5.65574
     2021.75706         5.58124         7.52658
     2021.76043        10.71637         5.57234
     2021.76317         7.92248         5.60650
     2021.76591         7.69058         5.55828
     2021.76865         8.23568         5.57033
     2021.77138         5.72979         5.56230
     2021.77412        10.21289         5.60650
     2021.77686         7.75300         5.52612
     2021.77960         7.19410         5.56430
     2021.78234         7.91020         5.53818
     2021.78507        13.29831         5.52512
     2021.78781         6.50541         5.54722
     2021.79055         6.93452         5.51809
     2021.79329         7.82162         5.60249
     2021.79603        11.09972         5.51608
     2021.79876         9.04283         5.48493
     2021.80150         9.30893         5.72808
     2021.80424         5.47104         5.63363
     2021.80698         5.75214         5.54521
     2021.80971         8.40124         5.59445
     2021.81245        18.31935         5.74215
     2021.81519        18.28645         5.51608
     2021.81793        13.07156         5.48392
     2021.82067         6.43166         5.60751
     2021.82340         7.85176         5.71602
     2021.82614        12.30487         5.63564
     2021.82888        10.03397         5.61655
     2021.83162         8.32408         5.56933
     2021.83436         8.11618         5.62158
     2021.83709         7.32628         5.60048
     2021.83983        -1.95561         5.56631
     2021.84257        10.62349         5.72406
     2021.84531         5.79360         5.69492
     2021.84804         8.65970         5.59947
     2021.85078         8.16481         5.58741
     2021.85352         4.47091         5.53919
     2021.85626         9.67601         5.58239
     2021.85900         5.29712         5.52411
     2021.86447         6.57633         5.73511
     2021.86721         2.91843         5.77832
     2021.86995         8.19153         5.80846
     2021.87269         9.69764         5.71100
     2021.87542         8.47574         5.65473
     2021.87816         0.90585         5.50000
     2021.88090         2.42095         5.51407
     2021.88364         5.78605         5.46483
     2021.88637        -0.53584         5.59847
     2021.88911        -3.56074         5.53919
     2021.89185         0.68637         5.49699
     2021.89459         4.96147         5.55225
     2021.89733        -0.03743         5.47488
     2021.90006        -4.97432         5.52512
     2021.90280         0.02978         5.57636
     2021.90554         4.22889         5.54321
     2021.90828         6.96599         5.60349
     2021.91102        -0.99491         5.64569
     2021.91375         7.42420         5.52813
     2021.91649         3.74630         5.53718
     2021.91923         6.21941         5.68588
     2021.92197        -2.32749         5.82454
     2021.92470        -3.24539         5.65875
     2021.92744         3.05772         5.63363
     2021.93018        -2.37718         5.67483
     2021.93292         9.56293         5.79339
     2021.93566        14.09303         5.81750
     2021.93839        10.18813         5.73310
     2021.94113        11.30524         5.78736
     2021.94387        17.85234         5.61555
     2021.94661         8.78245         5.63263
     2021.94935         8.77655         5.60650
     2021.95208        12.07266         5.64268
     2021.95482         8.35076         5.58741
     2021.95756        10.49886         5.60449
     2021.96030         3.28297         5.63263
     2021.96303         2.99207         5.60952
     2021.96577        12.21218         5.61052
     2021.96851         8.06628         5.62459
     2021.97125         6.99438         5.62359
     2021.97399         7.18649         5.63564
     2021.97672        16.25159         5.64167
     2021.97946        16.62870         5.63062
     2021.98220        12.74880         5.63062
     2021.98494        15.62190         5.59646
     2021.98767        11.35601         5.59244
     2021.99041        11.15711         5.62158
     2021.99315         8.63822         5.62359
     2021.99589        14.87732         5.61052
     2021.99863         6.00242         5.59445
     2022.00136         4.62553         5.60148
     2022.00410         0.77763         5.63866
     2022.00684         0.40374         5.65373
     2022.00958         2.21284         5.61052
     2022.01232        -6.03506         5.59646
     2022.01504        -6.03395         5.60851
     2022.01779        10.87615         5.67382
     2022.01937         4.49521        15.37066
     2022.02345        -5.83563         6.42236
     2022.02600        -7.95054         5.66378
     2022.02874        -4.23443         5.59847
     2022.03148        -3.27733         5.63564
     2022.03422        -5.90722         5.63263
     2022.03696        -6.27712         5.61454
     2022.03969        -8.96801         5.93305
     2022.04243         1.56609         5.58139
     2022.04517         0.97919         5.63866
     2022.04791         2.37930         5.62359
     2022.05065         0.91540         5.60449
     2022.05338         2.13051         5.58641
     2022.05612        -8.70139         5.58942
     2022.05886       -11.38629         5.57737
     2022.06160       -10.51018         5.57837
     2022.06433        -1.62708         5.61454
     2022.06707       -10.12597         5.58440
     2022.06981        -0.25887         5.60550
     2022.07255       -12.66277         5.49297
     2022.07529        -5.81566         5.46885
     2022.07802        -2.78356         5.53919
     2022.08076         2.39855         5.52512
     2022.08350         2.82365         5.51407
     2022.08624         0.80275         5.45881
     2022.08898        -2.31914         5.47488
     2022.09171        -5.53304         5.50804
     2022.09445        -4.29893         5.51708
     2022.09719        -4.64283         5.49196
     2022.09993        -7.23273         5.67282
     2022.10266        -5.38462         5.84664
     2022.10540        -1.61252         5.46182
     2022.10814         1.55559         5.47991
     2022.11088         3.29869         5.50201
     2022.11362         2.14079         5.47086
     2022.11635        -0.01110         5.44574
     2022.11909        -2.00000         5.46283
     2022.12183         2.36211         5.51206
     2022.12457         4.46221         5.64770
     2022.12731         1.43032         5.47790
     2022.13004        -6.78458         5.47589
     2022.13278        -3.55948         5.48091
     2022.13552         0.66763         5.51306
     2022.13826         4.02973         5.56631
     2022.14099         1.99984         5.47589
     2022.14373        -8.52006         5.44474
     2022.14647        -3.89696         5.43771
     2022.14921        -0.72185         5.67181
     2022.15195        -4.58475         5.70497
     2022.15468        -2.36064         5.50000
     2022.15742         2.13646         5.49498
     2022.16016         1.09256         5.45981
     2022.16290        -3.11233         5.50201
     2022.16564        -0.09023         5.46785
     2022.16837        -0.40412         5.86874
     2022.17111        -1.19702         5.52110
     2022.17385         1.16608         5.46986
     2022.17659        -0.05681         5.47890
     2022.17932        -6.33371         5.47388
     2022.18206        -5.31860         5.49498
     2022.18480        -8.08950         5.51306
     2022.18754        -3.98740         5.58038
     2022.19028        -4.45129         5.53718
     2022.19301        -0.30819         5.45981
     2022.19575         4.68392         5.48192
     2022.19849        -3.09798         5.47991
     2022.20123         3.00512         5.54220
     2022.20397         2.52723         5.46082
     2022.20670        -3.11667         5.57536
     2022.20944        -2.05656         5.60751
     2022.21218         0.53254         5.51608
     2022.21492        -3.49236         5.52411
     2022.21765        -3.38225         5.48392
     2022.22039        -6.95715         5.47287
     2022.22313        -1.95204         5.48091
     2022.22587        -4.78994         5.59344
     2022.22861        -2.05083         5.59646
     2022.23134         2.22427         5.50804
     2022.23408         1.88337         5.49900
     2022.23682         6.38948         5.64569
     2022.23956        -0.93042         5.51507
     2022.24229        25.01369        21.40821
     2022.24503         7.70079         6.92373
     2022.24777         3.18089         6.67355
     2022.25051         2.18500         6.94584
     2022.25549         8.46919         7.02823
     2022.25961        -5.30766         9.63354
     2022.26146        -4.22559         5.54622
     2022.26420        -4.44448         5.53115
     2022.26694        -1.08438         5.69090
     2022.26967        -0.18927         5.54321
     2022.27241         3.71783         5.53617
     2022.27515         9.23993         5.64468
     2022.27789         3.01904         5.48192
     2022.28062        -0.31586         5.51105
     2022.28336         0.34425         5.53316
     2022.28610         0.27335         5.60650
     2022.28884        -2.51655         5.61655
     2022.29158        -1.11544         5.45479
     2022.29431        -3.00034         5.47086
     2022.29705         2.78577         5.47589
     2022.29979         4.71287         5.51005
     2022.30253         2.12697         5.63263
     2022.30527         5.48608         5.58239
     2022.30800        -1.24982         5.54722
     2022.31074        -2.00671         5.46584
     2022.31348        -3.11661         5.49900
     2022.31622        -5.33650         5.54019
     2022.31895       -17.13740         5.70497
     2022.32169         0.50370         5.66779
     2022.32443         1.55381         5.48593
     2022.32717        -4.38609         5.44675
     2022.32991        -1.82898         5.51005
     2022.33264        -5.85788         5.65674
     2022.33538         0.79922         5.73009
     2022.33812        -1.13867         5.71602
     2022.34086         3.27043         5.54120
     2022.34360        -0.27846         5.57938
     2022.34633         4.26264         5.57335
     2022.34907         0.43174         5.50502
     2022.35181         5.14585         5.48392
     2022.35455        -1.44905         5.47488
     2022.35728        -3.31794         5.48593
     2022.36002        -0.02484         5.48995
     2022.36276        -4.29074         5.56230
     2022.36550        -3.77563         5.51608
     2022.36824        -0.15453         5.48995
     2022.37097        -0.56242         5.60249
     2022.37371        -5.70732         5.46785
     2022.37645        -8.50922         5.55928
     2022.37919         0.74389         5.66076
     2022.38193        -5.20101         5.65473
     2022.38466        -3.37790         5.60048
     2022.38740       -14.84680         5.52211
     2022.39014        -3.24970         5.50302
     2022.39288        -3.04359         5.54823
     2022.39561        -7.41149         5.47187
     2022.39835         0.32962         5.58641
     2022.40109        -0.72728         5.74717
     2022.40383         1.54383         5.44072
     2022.40657         2.05693         5.48593
     2022.40930        -7.42897         5.56029
     2022.41204        -3.74186         5.64770
     2022.41478        -3.14376         5.48192
     2022.41752        -4.71265         5.59847
     2022.42026         2.19545         5.59847
     2022.42299         3.38855         5.44775
     2022.42573        -4.60434         5.62660
     2022.42847        -3.71124         5.56230
     2022.43121        -3.59313         5.59344
     2022.43394         2.93097         5.54019
     2022.43668        -7.31493         5.50703
     2022.43942        -2.00582         5.65574
     2022.44216         2.60128         5.81549
     2022.44490         6.67839         5.62660
     2022.44763         6.70249         5.46483
     2022.45037        -3.21741         5.52914
     2022.45311        -6.86430         5.50000
     2022.45585        -3.94420         5.52813
     2022.45859       -12.95009         5.51105
     2022.46132        -4.51299         5.48091
     2022.46406        -4.94789         5.50101
     2022.46680        -5.27478         5.52010
     2022.46954        -2.88268         5.50703
     2022.47227       -10.88457         5.55627
     2022.47501         5.87353         5.50402
     2022.47775        -5.30537         5.62258
     2022.48049        -3.09326         5.59445
     2022.48323         4.53684         5.51005
     2022.48596         7.00595         5.51105
     2022.48870        -1.56795         5.68688
     2022.49144        -5.23385         5.54823
     2022.49418         2.86926         5.68186
     2022.49692        -4.96064         5.51708
     2022.49965        -2.79453         5.58641
     2022.50239       -14.98943         5.87578
     2022.50513         1.60368         5.84463
     2022.50787         9.82578         5.82052
     2022.51060         0.75288         5.70698
     2022.51334        -4.38201         5.54722
     2022.51608        -6.82691         5.50101
     2022.51882        -7.93880         5.54019
     2022.52156        -9.18870         5.59143
     2022.52429        -4.86560         5.50804
     2022.52703         0.28351         5.48593
     2022.52977        10.53461         5.59244
     2022.53251        -8.17628         5.56732
     2022.53525        -9.40618         5.55325
     2022.53798        -3.76508         5.73511
     2022.54056        -0.89598         5.91195
     2022.54359        -2.25886         5.87075
     2022.54620        -5.07776         5.48192
     2022.54893        -7.58866         5.51809
     2022.55167        -4.52156         5.50703
     2022.55441         5.86955         5.66779
     2022.55715         4.40965         5.57837
     2022.55989        -8.27124         5.52914
     2022.56262        -2.85314         5.47488
     2022.56536       -11.78504         5.46182
     2022.56810        -2.64493         5.51708
     2022.57084        -2.95583         5.51105
     2022.57357         5.57528         5.68487
     2022.57631        -3.21362         5.55325
     2022.57905        -4.12052         5.54421
     2022.58179         4.15459         5.50302
     2022.58453         8.37369         5.74717
     2022.58726        -8.20620         5.51507
     2022.59000        10.85890         5.68387
     2022.59274        -6.35999         5.46483
     2022.59548        -1.85789         5.51105
     2022.59822        -8.74179         5.44574
     2022.60095       -10.01368         5.46785
     2022.60369        -1.16458         5.50000
     2022.60643        -2.70147         5.59847
     2022.60915         6.38963         5.90291
     2022.61190        -2.91127         5.83358
     2022.61464         8.69384         5.59344
     2022.61738         4.33894         5.40455
     2022.62012         0.08805         5.40354
     2022.62286         0.27315         5.39149
     2022.62559         1.40425         5.41359
     2022.62833         1.83736         5.39852
     2022.63107         0.30746         5.44273
     2022.63381         7.81557         5.44072
     2022.63655         5.84067         5.47388
     2022.63928         6.89177         5.48694
     2022.64202        -0.44312         5.83760
     2022.64476         0.44898         5.83760
     2022.64750         0.51409         5.58239
     2022.65023         8.06219         5.60550
     2022.65297         2.53529         5.69593
     2022.65571         9.92440         5.51909
     2022.65845         7.22650         5.44273
     2022.66119         3.68261         5.42464
     2022.66392         5.31271         5.44876
     2022.66666        10.72081         5.52110
     2022.66940         5.72592         5.39953
     2022.67214         2.15302         5.60148
     2022.67488         0.14413         5.52914
     2022.67761         8.67023         5.49498
     2022.68035         7.50634         5.41460
     2022.68309        11.28244         5.51909
     2022.68583         6.17854         5.59143
     2022.68856        10.03465         5.51306
     2022.69130         4.23375         5.76927
     2022.69405         9.32486         5.65272
     2022.69679         4.02496         5.58942
     2022.69950        -3.60194         5.82855
     2022.70225        12.01617         6.00238
     2022.70499         7.76227         5.76425
     2022.70773         8.97038         5.73511
     2022.71047         6.03148         5.72607
     2022.71321        16.17358         5.77229
     2022.71868         5.03179         5.71301
     2022.72142        10.83690         5.56832
     2022.72416        12.62000         5.61655
     2022.72689         9.73610         5.92802
     2022.72963         8.27621         5.89085
     2022.73238         4.48531         5.58340
     2022.73511         7.99942         5.61555
     2022.73785         4.09752         5.70196
     2022.74058        10.63662         5.86372
     2022.74332        14.76773         5.89185
     2022.74606        11.60483         5.92501
     2022.74880         6.69194         5.87176
