# ================= DQRFIT RESULTS ================
# INPUT FILE: series/LIKE.rad
# OUTPUT: LDETRENDED
# FILTER FUNCTION: f(t)
# f(t)=+line(t)
# line(t)=+P 1+P 2*t
# heav(t)=(t<0?0:1)
# TOTAL OBSERVATIONS MTOT=  441
# INITIAL TIME INTERVAL= 2018.6201 - 2006.6086 = 12.0116
# TOTAL OBSERVATIONS AFTER PREFILTER M=  441
# TIME-SPAN=    0.0000 -    0.0000 =  0.0000
# OBSERVATIONS: USED M=   441 REJECTED MTOT-M=     0 %USED=  100.0000
# N=  2 PARAMETERS
# MAXSIG= 175.00000
# MAXRES=  23.38498
# SCALE FACTOR FOR LENGTHS: SCL=  10.00000
# SCALE FACTOR FOR SIGMAS: SCLSIG=   1.00000
# CHI^2=    611.595 DOF=   439 CHI^2/DOF=   1.39316
# RMS=      6.866 SDEV=      6.874 MEAN=   -0.02154
#  P #       PARAMETER +-    SIGMA %error PARAMETER NAME
# P 1 =      3495.54494 +-  299.128   8.56 YZERO                              
# P 2 =        -1.73426 +-    0.148   8.56 SLOPE                              
#       T            LDETRENDED       SIG_OBS
     2006.60855        -4.90750         9.55115
     2006.61126       -17.34181         9.65974
     2006.61398        -9.80610         9.74826
     2006.61669       -12.25540        10.09292
     2006.61942        -8.52866        10.49069
     2006.62214        -5.01194        10.20151
     2006.62484        -8.93726        11.02301
     2006.62758        -7.30151        11.02655
     2006.63030       -11.10280        10.92740
     2006.63305        -6.58602        10.59928
     2006.63576       -10.41432        11.21776
     2006.63847        -3.76863        11.43140
     2006.64120         2.24212        11.66156
     2011.72623        -1.17609         6.74435
     2011.72896        -1.40937         6.81163
     2011.73170         1.66838         6.97097
     2011.73443        -5.24587         6.71956
     2011.73717        -2.90312         6.74317
     2011.73991        -4.78438         6.74317
     2011.74265        -4.52563         6.70422
     2011.74538        -7.54288         6.98868
     2011.74812         9.58587         7.00756
     2011.75086        10.58162         6.94855
     2011.75360         6.08236         6.93320
     2011.75634         4.50611         6.90487
     2011.75907         0.77486         6.81163
     2011.76181        -7.52939         6.80809
     2011.76455        -3.46364         6.78448
     2011.76729        -8.00889         6.75143
     2011.77003        -2.33015         6.80337
     2011.77276        -1.55840         6.96625
     2011.77550       -13.67565         7.12795
     2011.77824        -9.35490         6.85058
     2011.78098         0.18185         6.85294
     2011.78371         1.25159         6.89543
     2011.78645         4.96434         6.75497
     2011.78919        -2.45991         6.83760
     2011.79193        -8.69916         6.81517
     2011.79467        -7.21441         6.74789
     2011.79740        -4.56466         6.80337
     2011.80014        -2.04692         6.70776
     2011.80288        -5.73717         6.79510
     2011.80562       -11.69642         6.69005
     2011.80836        -4.88967         6.67707
     2011.81109        -1.51992         6.73255
     2011.81383        -4.46018         6.68179
     2011.81657        -6.33943         6.66291
     2011.81931        -5.06668         6.67825
     2011.82204        -1.58193         6.69124
     2011.82478        -7.11918         6.70304
     2011.82752        -5.42144         6.67589
     2011.83026        -4.88569         6.66999
     2011.83300        -8.25194         6.69124
     2011.83573        -8.44919         6.62278
     2011.83847        -7.44944         6.67589
     2011.84121        -5.68669         6.59209
     2011.84395       -15.06795         6.73255
     2011.84669       -11.57920         6.74553
     2011.84942       -11.44345         6.69242
     2011.85216       -11.76570         6.65228
     2011.85490        -8.18495         6.81281
     2011.85764        -0.53421         6.76442
     2011.86037         2.25254         6.67353
     2011.86311         0.75529         6.63104
     2011.86585        -0.04296         6.66291
     2011.86859         0.76779         6.69950
     2011.87133        -0.53446         6.67235
     2011.87406        -3.26872         6.64992
     2011.87680         1.02003         6.69005
     2011.87954         3.16678         6.77386
     2011.90418        -4.21549         6.71248
     2011.90692        -1.84474         6.71838
     2011.90966        -3.70899         6.68651
     2011.91239        -4.42424         6.85058
     2011.91513         4.91451         6.72901
     2011.91787        -1.78175         6.89897
     2011.92061        -7.76700         6.77150
     2011.92334        -5.79425         6.73491
     2011.92608        -7.42650         6.81989
     2011.92882        -4.45575         6.81281
     2011.93156        -1.37901         6.82579
     2011.93430        -4.36026         6.76560
     2011.98358         2.86521         7.56113
     2012.01096         5.68869         6.65701
     2012.01369         4.58644         6.56022
     2012.01643         6.42619         6.55550
     2012.01917         2.94894         6.56022
     2012.02191         2.77068         6.55432
     2012.02465         2.17243         6.56730
     2014.29432         2.48766         7.01110
     2014.29706         5.76440         6.89543
     2014.29980         2.85115         6.75969
     2014.30254         7.20490         6.79864
     2014.30528         6.41865         6.83641
     2014.30801         0.65640         6.79746
     2014.31075         5.39614         6.90841
     2014.31349        -1.20411         6.89425
     2014.31623         0.63364         6.82225
     2014.31896         0.13539         6.83523
     2014.32170        -0.93486         6.91786
     2014.32444        -0.65212         6.92966
     2014.32718        -0.76037         6.94736
     2014.32992         2.83238         6.81635
     2014.33265         2.07013         6.88127
     2014.33539         4.06088         6.86710
     2014.33813         4.31363         6.98986
     2014.34087         9.04137         6.91196
     2014.34361         2.21312         6.79864
     2014.34634         5.77187         6.80809
     2014.34908         8.63362         6.96743
     2014.35182         0.22937         7.13149
     2014.35456         7.05411         6.83996
     2014.35729         2.30386         6.79746
     2014.36003        -0.31439         6.80455
     2014.36277        -1.57464         6.77622
     2014.36551         0.87011         6.80691
     2014.36825         1.62386         6.91668
     2014.37098        -2.22440         6.89071
     2014.37372         3.71835         6.93202
     2014.37646         0.82510         6.94973
     2014.37920         8.49885         6.89779
     2014.38193        -0.53340         6.95091
     2014.38467         2.58134         6.99104
     2014.38741         2.30909         6.94855
     2014.39015        -2.97416         6.92848
     2014.39289         3.27059         6.97805
     2014.39562         8.70634         6.99812
     2014.39836         6.61909         7.11733
     2014.40110         0.24783         7.05359
     2014.40384        -2.09042         6.95327
     2014.40658         0.10033         6.92494
     2014.40931         1.47508         6.94028
     2014.41205         6.05383         6.84822
     2014.41479         1.59657         6.89425
     2014.41753         8.71032         6.94264
     2014.42026         7.96407         6.90015
     2014.42300         6.20682         6.87182
     2014.42574         5.73457         6.85058
     2014.42848        10.61431         6.94382
     2014.43122        -1.41894         6.90723
     2014.43395         6.66981         6.96035
     2014.43669         7.20456         6.88481
     2014.43943         1.19331         6.84822
     2014.44217         4.90406         6.87064
     2014.44491         3.37380         7.21294
     2014.44764         8.80055         7.04061
     2014.45038         5.08330         6.79392
     2014.45312        10.67805         6.81281
     2014.45586        10.00780         6.86474
     2014.45859         4.78454         6.84232
     2014.46133         8.20529         6.86002
     2014.46407         3.65204         6.92966
     2014.46681         2.50479         6.81635
     2014.46955        10.48354         6.83287
     2014.47228        11.97829         6.89071
     2014.47502         8.28503         6.80573
     2014.47776         9.33078         6.86238
     2014.48050         6.28953         6.86120
     2014.48324         6.99228         6.88953
     2014.48597        14.83003         6.90251
     2014.48871         9.94077         6.98868
     2014.49145         9.26252         6.81399
     2014.49419         9.84327         6.77858
     2014.49692         5.32502         6.70304
     2014.49966        -0.03823         6.93320
     2014.50240         9.19752         6.91550
     2014.50514         0.10726         6.92022
     2014.50788        10.21701         6.76914
     2014.51061         5.16876         6.73727
     2014.51335         8.15351         6.77622
     2014.51609        17.54026         6.80337
     2014.51883         8.81900         6.85530
     2014.52157        11.63275         6.92730
     2014.52430        11.46850         6.83051
     2014.52704        12.56925         6.77622
     2014.52978         5.03600         6.85058
     2014.53252         5.96874         6.99458
     2014.53525         7.47349         6.83760
     2014.53799        17.87624         6.76205
     2014.54073        13.39699         6.97569
     2014.54347         9.91174         6.86120
     2014.54621        13.04349         6.81989
     2014.54894        15.44623         6.90251
     2014.55168        23.38498         7.11733
     2014.55442        12.78973         6.90841
     2014.55716        18.82948         6.83523
     2014.55990        12.39923         6.78802
     2014.56263        13.90097         6.82225
     2014.56537        12.98872         6.77622
     2014.56811        10.38647         6.83287
     2014.57085        11.77122         6.70894
     2015.76729         5.78816         6.73845
     2015.77003        -1.64009         6.69005
     2015.77276         8.83466         6.69242
     2015.77550         7.76941         6.73019
     2015.77824        11.45616         6.69478
     2015.78098         7.82891         6.61215
     2015.78371         7.43165         6.75733
     2015.78645         5.86240         6.70186
     2015.78919         0.15715         6.67707
     2015.79193         6.78590         6.72783
     2015.79467         6.27265         6.77504
     2015.79740        10.08139         6.72664
     2015.80014         8.59314         6.88835
     2015.80288         4.23089         6.67353
     2015.80562         4.64964         6.68769
     2015.80836         6.14439         6.71956
     2015.81109         4.37813         6.72901
     2015.81383        11.77788         6.72310
     2015.81657         0.70763         6.72192
     2015.81931         8.52538         6.70894
     2015.82204         0.21313         6.73255
     2015.82478         5.29888         6.69360
     2015.82752         4.28762         6.73373
     2015.83026         1.62437         6.77032
     2015.83300        16.15412         6.79746
     2015.83573         5.34887         6.82579
     2015.83847         4.80062         6.86946
     2015.84121         6.38436         6.81045
     2015.84395         5.95911         6.83996
     2015.84669         5.63986         6.82107
     2015.84942         7.25061         6.81517
     2015.85216        14.73636         6.85412
     2015.85490        -3.84289         6.81871
     2015.85764       -12.20315         6.86120
     2015.86037         2.93360         6.90251
     2015.86311         6.14835         6.78920
     2015.86585         9.27110         6.77386
     2015.86859         8.03385         6.79746
     2015.87133         7.50559         6.91432
     2015.87406        -1.76866         6.81399
     2015.87680        -1.65291         6.86120
     2015.87954         3.25484         6.84586
     2015.88228        11.51959         6.81989
     2015.88502         6.15034         6.89779
     2015.88775         5.99508         6.84350
     2015.89049         9.42683         6.86828
     2015.89323        11.25658         6.82461
     2015.89597        10.90133         6.84940
     2015.89870        -1.51592         6.79156
     2015.90144         1.38382         6.82697
     2015.90418         8.47257         7.21294
     2015.90692       -19.32268         7.04651
     2015.91239         3.32082         6.83641
     2015.91513        11.40056         6.84822
     2015.91787         5.05031         6.89661
     2015.92061         7.30906         6.90015
     2015.92334         6.22381         6.90369
     2015.92608         0.30456         6.86592
     2015.92882         8.51131         6.96625
     2015.94251         1.26805         7.00638
     2015.94518         5.59067         8.09346
     2015.95894        -2.13346         7.10789
     2016.02191         2.26475         6.88009
     2016.02465         2.76849         7.19523
     2016.02738        -3.06076         6.75379
     2016.03012         0.27199         6.68887
     2016.03286         5.30274         6.74789
     2016.03560         5.47848         6.67353
     2016.03833        -0.92377         6.84704
     2016.04107         4.33998         7.88808
     2016.04381         1.96773         6.69596
     2016.04929         0.20922         6.86474
     2016.05202         4.01197         6.69832
     2016.05476         1.60872         6.76796
     2016.05750         0.44947         6.89425
     2016.06845        -1.23854         6.63458
     2016.07119        -1.97679         6.71484
     2016.07393        -0.45304         6.66999
     2016.07666         5.29771         6.78684
     2016.07940       -22.88555         6.63222
     2016.10131        -8.99156         6.56612
     2016.10404        -8.85481         6.58265
     2016.10678        -9.29706         6.53071
     2016.10952        -5.59432         6.57438
     2016.11226        -9.51457         6.64048
     2016.11499         3.72318         6.65228
     2016.11773       -11.34807         6.62750
     2016.12058        -8.39013         6.90723
     2016.12320        -7.83659         6.54133
     2016.12594        -6.77184         6.58147
     2016.12867        -3.51810         6.79038
     2016.13141        -9.95135         6.71838
     2016.13415         2.40140         6.64638
     2016.13689        -2.65285         6.53779
     2016.13963        -1.54109         6.55078
     2016.14236        -9.85235         6.56730
     2016.14510        -2.67061         6.58737
     2016.14784        -4.34486         6.62396
     2016.15058        -2.51011         6.56848
     2016.15331        -1.82436         6.77504
     2016.15605         1.83139         6.68297
     2016.15880        -3.46786         6.87773
     2016.16153        -4.48312         6.79274
     2016.16427        -0.15237         6.70776
     2016.16700        -7.49562         6.60861
     2016.16974         9.83613         6.63694
     2016.17248        -9.48912         6.84114
     2016.17522        -0.21138         6.58501
     2016.17796        -7.20662         6.68533
     2016.18069        -9.68888         6.79392
     2016.18343        -3.44413         6.86120
     2016.18617        -6.21238         6.56966
     2016.18891        -5.68264         6.70540
     2016.19164         2.77011         6.67471
     2016.19438         6.87886         6.68061
     2016.19713        -1.71538         6.63694
     2016.19986        -8.65464         6.79864
     2016.20260       -11.64790         6.70422
     2016.20533        -7.57215         6.83169
     2016.20807        -0.42940         6.83169
     2016.21081        -7.49665         6.68415
     2016.21355        -6.11690         6.75143
     2016.21629        -3.46715         6.66645
     2016.21902       -13.04341         6.63812
     2016.22176       -18.29766         6.57910
     2016.22450        -6.35391         6.49176
     2016.22724       -10.78416         6.58147
     2016.22997         0.74559         6.57792
     2016.23271        -0.24167         6.52835
     2016.23546        -7.08091         6.56966
     2016.23819        -1.09717         6.55196
     2016.24093         2.67758         6.73609
     2016.24366        -2.10367         6.54251
     2016.24640        -0.30892         6.57320
     2016.24914        -3.62618         6.54960
     2016.25188        -3.34243         6.53897
     2016.25462        -3.54667         6.74081
     2016.25735        -6.05293         6.66645
     2016.26009        -6.99318         6.56022
     2016.26283        -8.22344         6.54724
     2016.26557        -4.18469         6.55550
     2016.26830        -7.42994         6.62278
     2016.27104        -6.26819         6.55196
     2016.27379         4.10357         6.64284
     2016.27652        -7.16869         6.50474
     2016.27926        -7.00795         6.59563
     2016.28199        -4.17620         6.72074
     2016.28473        -5.09845         6.78212
     2016.28747       -18.75870         6.67825
     2016.29021        -6.45995         6.53897
     2016.29295        -3.96420         6.55314
     2016.29568        -2.33446         6.62632
     2016.29842        -4.62871         6.74317
     2016.30116        -3.65896         6.79038
     2016.30390        -5.36321         6.61569
     2016.30663        -5.56447         6.63222
     2016.30937        -4.46972         6.65701
     2016.31211        -4.86796         6.62514
     2016.31485       -11.02622         6.79156
     2016.31759        -0.66647         6.58029
     2016.32032        -6.83072         6.49058
     2016.32306        -3.71898         6.65937
     2016.32580        -6.00823         6.65110
     2016.32854        -1.38548         6.59917
     2016.33128        -3.60172         6.58619
     2016.33401        -3.87298         6.55314
     2016.33675        -5.23724         6.53897
     2016.33949        -4.93649         6.62278
     2016.34223        -5.96874         6.61451
     2016.34496        -5.24899         6.72192
     2016.34770        -7.15024         6.78330
     2016.35044        -6.94449         6.76678
     2016.35318       -12.86375         6.71248
     2016.35592        -7.47600         6.54960
     2016.35865        -9.54525         6.54960
     2016.36139         0.11050         6.60035
     2016.36413        -1.06875         6.59917
     2016.36687         2.97099         6.74671
     2016.36961         6.46775         6.59445
     2016.37234         2.84349         6.63930
     2016.37508        -2.80876         6.59445
     2016.37782        -7.35301         6.62514
     2016.38056        -2.73926         6.62042
     2016.38329        -6.48752         6.83287
     2016.38603       -11.56677         6.67353
     2016.38877         2.26999         6.55196
     2016.39151        -1.45027         6.56022
     2016.39425        -4.57652         6.57910
     2016.39698         1.42322         6.55668
     2016.39972         1.72897         6.60979
     2016.40246        -3.22928         6.68887
     2016.40520        -5.20153         6.55432
     2016.40794        -3.08478         6.60153
     2016.41067        -9.43104         6.62514
     2016.41341        -9.08329         6.51773
     2016.41615        -4.67254         6.58973
     2016.41889        -6.73579         6.70540
     2016.42162        -6.51204         6.62986
     2016.42436        -7.17829         6.58973
     2016.42710        -5.11754         6.60507
     2018.48324        -6.16766         6.55668
     2018.48597        -5.19091         6.74907
     2018.48871        -1.36017         6.66173
     2018.49145         0.37658         6.55196
     2018.49419         0.58033         6.82815
     2018.49692        -2.04492         6.71012
     2018.49966         3.30483         6.60271
     2018.50240        -2.90443         6.60035
     2018.50514        -6.08968         6.70540
     2018.50788         1.72607         6.76796
     2018.51061        -3.30118         6.69124
     2018.51335         0.09357         6.61688
     2018.51609        -1.90769         6.65465
     2018.51883        -2.35394         6.59327
     2018.52157         1.55581         6.64874
     2018.52430        -1.31644         6.58147
     2018.52704        -1.00669         6.57910
     2018.52978        -9.16794         6.52245
     2018.53252        -3.40520         6.63222
     2018.53525         2.18255         6.74199
     2018.53799        -4.95670         6.86710
     2018.54073         0.52705         6.60507
     2018.54347        -2.08120         6.51301
     2018.54621        -5.68946         6.57674
     2018.54894        -9.80471         6.66999
     2018.55168        -1.29696         6.71838
     2018.55442        -4.81221         6.68061
     2018.55716        -2.90246         6.70068
     2018.55990        -8.88471         6.86356
     2018.56263        -7.33997         6.66055
     2018.56537        -8.84122         6.66999
     2018.56811        -4.66847         6.50238
     2018.57085         2.76128         6.57438
     2018.57358        -0.55197         6.62632
     2018.57632        -0.83723         6.79510
     2018.57906        -6.10348         6.89543
     2018.58180         3.51527         6.76914
     2018.58454         7.73502         6.81517
     2018.58727         3.51377         6.64402
     2018.59001         0.35752         6.50356
     2018.59275         1.00926         6.57320
     2018.59549         0.62101         6.54015
     2018.59823        -0.79124         6.47996
     2018.60096        -2.34949         6.53543
     2018.60370         1.39626         6.47760
     2018.60918         3.17575         6.59209
     2018.61191         2.06050         6.49530
     2018.61465         0.90425         6.53425
     2018.61739         2.15800         6.55668
     2018.62013         2.34574         6.53307
