# ================= DQRFIT RESULTS ================
# INPUT FILE: series/LKVW.rad
# OUTPUT: LDETRENDED
# FILTER FUNCTION: f(t)
# f(t)=+line(t)+annual(t)
# line(t)=+P 1+P 2*t
# annual(t)=+P 3*sin(2*pi*t+P 4)
# heav(t)=(t<0?0:1)
# TOTAL OBSERVATIONS MTOT= 3230
# INITIAL TIME INTERVAL= 2022.7488 - 2013.7112 =  9.0376
# TOTAL OBSERVATIONS AFTER PREFILTER M= 3223
# TIME-SPAN= 2022.7488 - 2013.7112 =  9.0376
# OBSERVATIONS: USED M=  3223 REJECTED MTOT-M=     7 %USED=   99.7833
# N=  4 PARAMETERS
# MAXSIG= 175.00000
# MAXRES=  21.46962
# SCALE FACTOR FOR LENGTHS: SCL=  10.00000
# SCALE FACTOR FOR SIGMAS: SCLSIG=   1.00000
# CHI^2=   2586.220 DOF=  3219 CHI^2/DOF=   0.80342
# RMS=      5.100 SDEV=      5.100 MEAN=    0.00688
#  P #       PARAMETER +-    SIGMA %error PARAMETER NAME
# P 1 =      5165.10473 +-   69.030   1.34 YZERO                              
# P 2 =        -2.56360 +-    0.034   1.33 SLOPE                              
# P 3 =         1.50591 +-    0.126   8.36 ANNUAL AMPLITUDE                   
# P 4 =        -0.77386 +-    0.084  10.87 ANNUAL PHASE                       
#       T            LDETRENDED       SIG_OBS
     2013.71115        -1.95662         5.10375
     2013.71389        -9.23460         4.94062
     2013.71663        -2.95358         4.94600
     2013.71937         4.06944         4.96482
     2013.72210         4.37046         5.03474
     2013.72484         5.33948         5.11182
     2013.72758         4.92550         4.93703
     2013.73032         7.02852         5.03294
     2013.73305        -0.27047         4.96303
     2013.73579        -8.49345         4.89760
     2013.73853        -0.45643         4.84202
     2013.74127         1.75559         4.92449
     2013.74401         8.97261         5.11541
     2013.74674         8.62363         5.05535
     2013.74948        -1.91535         4.94779
     2013.75222        -4.13633         4.87250
     2013.75496        -6.93132         4.87788
     2013.75770        -7.68030         4.92090
     2013.76043        -9.04728         4.96661
     2013.76317        -4.93926         4.95138
     2013.76591         0.58276         4.98902
     2013.76865        -2.77722         4.89491
     2013.77138        -8.72620         4.93703
     2013.77412        -4.35318         5.05446
     2013.77686        -4.30817         4.96572
     2013.77960        -4.36315         4.96930
     2013.78234        -8.38713         4.92897
     2013.78507       -11.11211         4.90297
     2013.78781       -17.65409         4.93166
     2013.79055        -7.54007         5.01322
     2013.79329        -7.77205         4.96482
     2013.79603        -2.93503         4.89222
     2013.79876        -7.71402         4.90566
     2013.80150        -1.34700         4.97916
     2013.80424        -5.28398         5.07059
     2013.80698        -4.39296         4.97378
     2013.80971         0.36606         4.92090
     2013.81245        -0.24892         4.88594
     2013.81519        -5.58690         4.93883
     2013.81793        -6.02688         4.94958
     2013.82067        -8.10687         5.06342
     2013.82340        -3.75685         4.96034
     2013.82614         1.30917         5.01053
     2013.82888        -0.42681         4.91194
     2013.83162        -6.88179         4.95317
     2013.83436        -0.72777         5.12885
     2013.83709        -3.67675         5.12527
     2013.83983        -1.16473         5.02398
     2013.84257        -3.34372         4.96213
     2013.84531        -6.13970         5.07417
     2013.84804        -9.34768         4.95855
     2013.85078        -2.42266         4.98544
     2013.85352        -5.98964         5.01681
     2013.85626        -2.90762         4.88505
     2013.85900        -0.72160         4.93345
     2013.86173        -4.35658         4.98992
     2013.86447        -1.58757         5.06073
     2013.86721        -5.04155         4.98813
     2013.86995        -1.77853         4.93883
     2013.87269         6.94149         4.85816
     2013.87542        10.69451         4.96841
     2013.87816         0.44753         4.99171
     2013.88090        -2.14945         5.05714
     2013.88364         3.43557         5.27137
     2013.88637         1.68158         4.92359
     2013.88911        -1.93940         4.95138
     2013.89185       -14.46338         4.96034
     2013.89459       -15.00236         4.96661
     2013.89664         0.74690         7.06763
     2013.90006        -3.28332         5.08045
     2013.90280        -6.03230         5.03563
     2013.90554        -2.46128         4.93614
     2013.90828         1.92273         4.96482
     2013.91102        -5.06325         4.99709
     2013.91375        -5.47223         4.96213
     2013.91649        -6.56221         5.00605
     2013.91923         6.80381         5.14499
     2013.92197         1.05483         5.07238
     2013.92470         0.32585         4.96392
     2013.92744        -1.72913         5.01233
     2013.93018         1.65788         4.96751
     2013.93292         2.25190         4.91552
     2013.93566        -4.06908         4.91552
     2013.93839        -3.00606         4.94331
     2013.94113        -6.45604         4.94421
     2013.94387        -4.73402         4.92538
     2013.94661        -0.58800         4.98185
     2013.94935         1.17702         4.98185
     2013.95208        -4.64497         4.96930
     2013.95482        -8.56995         4.95675
     2013.95756        -4.27693         4.96392
     2013.96030        -4.53491         4.94689
     2013.96303        -0.09889         4.94600
     2013.96577         5.74113         4.94600
     2013.96851        -0.09985         5.01681
     2013.97125        12.00517         5.00874
     2013.97399         3.28118         4.95675
     2013.97672        -5.66580         4.96572
     2013.97946        -0.14678         5.01860
     2013.98220        -1.76276         5.10375
     2013.98494        -4.56074         4.93703
     2013.98767        -9.26772         4.93166
     2013.99041        -0.05770         5.01053
     2013.99315        -9.01268         4.93435
     2013.99589        -2.77767         4.97827
     2013.99863        -7.26265         4.99261
     2014.00416        -3.82946         5.05087
     2014.00684        -3.30559         5.01322
     2014.00958         1.20743         4.96841
     2014.01232        -5.70755         5.02846
     2014.01505        -5.56153         5.06342
     2014.01779        -6.85952         5.04370
     2014.02053         2.66550         5.00067
     2014.02327         4.58252         5.10734
     2014.02600         2.90754         5.14857
     2014.02874         5.90856         4.99530
     2014.03148         5.23958         4.97827
     2014.03422        -3.25740         4.93972
     2014.03696        -3.02038         4.93703
     2014.03969        -1.19937         4.92986
     2014.04243        -1.30035         5.30722
     2014.04517         2.61767         5.08672
     2014.04791        -1.19931         4.93166
     2014.05065         1.10671         4.90925
     2014.05338        -2.56127         4.88415
     2014.05612        -4.81125         4.94958
     2014.05886        -2.17123         4.94600
     2014.06160        -1.28522         5.15484
     2014.06433        -2.02620         5.11272
     2014.06707         1.83482         5.04101
     2014.06981         2.95684         5.00874
     2014.07255        -0.64014         4.95138
     2014.07529        -1.93412         4.94779
     2014.07802         8.38790         5.00785
     2014.08076         8.92092         4.98185
     2014.08321         5.71420         5.47663
     2014.08624        -0.10905         5.00695
     2014.08898        -0.23803         5.16829
     2014.09171        -0.83501         5.33770
     2014.09445         1.24101         4.94241
     2014.09719        -0.83797         5.00336
     2014.09993         8.74705         4.93345
     2014.10266         3.08706         5.08135
     2014.10540         4.41708         4.98185
     2014.10814         0.23310         4.95407
     2014.11088        -0.21488         5.06431
     2014.11362        -0.16186         4.96213
     2014.11635         4.33916         5.00605
     2014.11909        10.41518         5.04191
     2014.12183         2.84720         5.05804
     2014.12457        10.77021         5.13602
     2014.12731         6.76923         4.94869
     2014.13004         0.72225         4.93972
     2014.13278         5.52727         5.18442
     2014.13552         6.87929         5.11541
     2014.13826         1.45331         4.98633
     2014.14099         3.99133         4.95317
     2014.14373         5.48135         4.99171
     2014.14647         2.17836         5.02398
     2014.14921         0.91538         5.01591
     2014.15195         0.84040         5.02219
     2014.15468         1.64042         5.05266
     2014.15742        10.00744         5.10913
     2014.16016        10.46646         5.19787
     2014.16290         3.86948         5.09031
     2014.16564        -0.90950         5.20056
     2014.16837         1.53351         5.22386
     2014.17111         5.97253         5.16202
     2014.17385         1.90155         5.25972
     2014.17659         3.96057         5.20145
     2014.17932         5.94859         5.32515
     2014.18206         1.38161         5.09031
     2014.18480        -1.59737         5.28392
     2014.18754        -1.21235         5.13154
     2014.19028        -0.01834         5.01950
     2014.19301         3.34568         5.03922
     2014.19575         3.02570         4.99888
     2014.19849         1.93272         5.14140
     2014.20123        -1.66826         5.06431
     2014.20397         0.23676         5.05087
     2014.20670         5.57878         5.11092
     2014.20944         5.84380         5.07866
     2014.21218         2.84481         5.02308
     2014.21492         0.21483         5.20325
     2014.21765         7.07285         5.04191
     2014.22039         3.04887         5.02219
     2014.22313         2.21289         5.08045
     2014.22587        -0.04609         5.06073
     2014.22861         3.46393         5.18891
     2014.23134         4.78595         5.09120
     2014.23408         4.47796         5.09569
     2014.23682         7.09198         5.08762
     2014.23956         4.93800         5.19339
     2014.24230         2.80502         5.08583
     2014.24503         0.35604         5.06969
     2014.24777         3.43606         5.23910
     2014.25051        -1.20292         5.09569
     2014.25325        -0.79690         5.06073
     2014.25598         3.13011         5.15753
     2014.25872         1.43313         5.04728
     2014.26146         7.20415         5.14050
     2014.26420        -4.42783         5.04101
     2014.26694         0.80719         5.02219
     2014.26967         1.41421         5.04460
     2014.27241         0.70523         5.19787
     2014.27515         1.33925         5.18174
     2014.27789         2.80226         5.04908
     2014.28062         8.40828         5.03025
     2014.28336         0.73130         5.02039
     2014.28610         4.72332         5.11092
     2014.28884         2.69734         5.65142
     2014.29158        -5.75064         5.00785
     2014.29431        -0.37762         5.06431
     2014.29705         1.75340         5.07776
     2014.29979        -2.36159         5.11541
     2014.30253         0.26943         5.01233
     2014.30527         6.69245         5.03294
     2014.30800        -0.37853         5.05266
     2014.31074         3.72649         5.05535
     2014.31348         3.66751         5.08045
     2014.31622         3.00253         5.01143
     2014.31895        13.29255         5.07417
     2014.32169        -0.98044         5.18622
     2014.32443        -6.82842         5.11451
     2014.32717        -2.90340         5.11182
     2014.32991        -1.43138         5.02756
     2014.33264        -2.63036         5.04370
     2014.33538        -0.79234         5.11451
     2014.33812         7.26568         5.18711
     2014.34086         1.15670         5.05266
     2014.34360         2.06171         5.05266
     2014.34633         2.20173         5.06880
     2014.34907         5.13875         5.29378
     2014.35181         2.17577         5.24000
     2014.35455        -0.79821         5.07238
     2014.35728        -3.92019         5.03205
     2014.36002        -6.64117         4.98992
     2014.36276        -2.48615         5.05625
     2014.36550        -2.44114         5.03832
     2014.36824        -4.30012         5.10555
     2014.37097        -1.79210         5.35742
     2014.37371        -1.19508         5.04191
     2014.37645         7.04394         5.10555
     2014.37919         0.63596         5.13154
     2014.38193        -1.24502         5.14678
     2014.38466        -4.99600         5.17098
     2014.38740         2.99601         5.17008
     2014.39014        -0.23697         5.16381
     2014.39288        -4.14695         5.16739
     2014.39561         4.99107         5.12527
     2014.39835        -2.56991         5.19070
     2014.40109        -3.20689         5.14140
     2014.40383        -0.83287         5.15305
     2014.40657        -0.80685         5.13692
     2014.40930        -0.01584         5.15126
     2014.41204         3.11718         5.18622
     2014.41478         0.75520         5.07597
     2014.41752         6.24422         5.04728
     2014.42026         2.58924         5.11899
     2014.42299        -1.37774         5.05625
     2014.42573         6.41728         5.06252
     2014.42847         5.82430         5.28661
     2014.43121         1.63631         5.04549
     2014.43394         2.33933         5.10017
     2014.43668        -0.23265         5.13154
     2014.43942         4.65837         5.09031
     2014.44216         1.39039         5.07417
     2014.44490         3.72541         5.22834
     2014.44763         8.04143         5.26061
     2014.45037         1.88645         5.07866
     2014.45311        -0.46354         5.07955
     2014.45585         1.04748         5.25703
     2014.45859        -0.49150         5.05714
     2014.46132        -3.18148         5.02756
     2014.46406        -2.64646         5.01143
     2014.46680         0.48256         5.50890
     2014.46954        -2.46042         4.98275
     2014.47227         5.60360         4.99081
     2014.47501        -1.12139         5.02756
     2014.47781         3.05778         5.10465
     2014.48049        -0.89535         5.02577
     2014.48323         0.46167         5.00605
     2014.48596         1.80569         5.19159
     2014.48870         9.93471         5.13333
     2014.49144        -0.19227         5.03025
     2014.49418        -3.10525         4.97020
     2014.49692        -1.41924         4.93435
     2014.49965        -0.18022         5.03205
     2014.50239        -4.59420         5.18084
     2014.50513         6.21682         5.08403
     2014.50787        -3.93116         5.24179
     2014.51060        -8.93714         4.96841
     2014.51334         5.89488         5.00067
     2014.51608         3.33290         4.95227
     2014.51882         2.90291         4.99619
     2014.52156         6.84093         5.17905
     2014.52429        -0.48105         5.00695
     2014.52703         6.00997         5.00874
     2014.52977         3.93499         5.07417
     2014.53251         1.14501         5.06342
     2014.53525         5.12203         5.04101
     2014.53798         5.39605         5.06969
     2014.54072         8.34606         5.22745
     2014.54346         5.50208         5.08583
     2014.54620         3.98710         5.19159
     2014.54893         5.27912         4.98275
     2014.55167         7.24314         5.23910
     2014.55441        -0.44284         5.06700
     2014.55715         0.67218         5.15036
     2014.55989        -3.15580         4.98902
     2014.56262         5.33121         4.95317
     2014.56536        -3.75977         4.98902
     2014.56810        -4.80575         4.98364
     2014.57084        -4.21973         4.95944
     2014.57357        -1.08871         4.96572
     2014.57631        -1.91369         4.98544
     2014.57905        -4.84167         5.13333
     2014.58179        -5.76465         5.10106
     2014.58453        -3.59864         5.09569
     2014.58726        -2.09262         5.23462
     2014.59000         2.02840         5.12437
     2014.59274        -3.21558         5.31619
     2014.59548        -0.11256         5.14947
     2014.59822         2.16846         5.19159
     2014.60095        -2.82752         5.21042
     2014.60369         5.41350         5.11182
     2014.60643        -3.77349         5.13244
     2014.60917         5.30753         5.18084
     2014.61190         3.08055         5.36369
     2014.61464        -0.19243         5.46856
     2014.61738        -3.47141         5.20952
     2014.62012        -2.48239         5.17905
     2014.62286         2.59063         5.03294
     2014.62559         3.70765         5.17546
     2014.62833         1.22966         5.13961
     2014.63107         1.85868         5.18891
     2014.63381         2.19270         5.18980
     2014.63655        -1.83028         5.08045
     2014.63928        -0.13426         5.26241
     2014.64202        -2.79124         5.03205
     2014.64476        -9.11022         5.05714
     2014.64750        -1.32520         5.06880
     2014.65023        -5.80919         5.05894
     2014.65252         5.43166         6.17040
     2014.65942        -5.68764        10.18600
     2014.66119        -8.48911         5.10106
     2014.66392         1.23691         5.09031
     2014.66666         0.58793         5.03205
     2014.66940         1.42595         5.06790
     2014.67214        -2.16104         5.09927
     2014.67488         0.22098         5.01860
     2014.67761        -9.50400         5.02667
     2014.68035        -5.42298         5.03653
     2014.68309       -11.31696         5.08045
     2014.68583        -5.69594         5.09748
     2014.68856        -9.46992         5.08583
     2014.69130        -9.92290         5.01771
     2014.69404        -4.56389         5.00067
     2014.69678       -12.23187         5.06790
     2014.69952        -4.17585         5.01591
     2014.70225        -5.56783         5.03025
     2014.70499        -4.32381         5.16202
     2014.70773        -6.76879         5.09300
     2014.71047         1.01423         5.02129
     2014.71321         2.31325         5.10017
     2014.71594        -5.19374         5.02129
     2014.71868         0.82928         5.05894
     2014.72142        -1.92870         5.01233
     2014.72416         2.11332         4.96392
     2014.72689         0.04834         4.97199
     2014.72963       -12.91564         4.96751
     2014.73237        -5.99162         5.13154
     2014.73511       -10.12960         5.06700
     2014.73785        -5.16359         4.99619
     2014.74058        -7.46557         5.00247
     2014.74332        -0.87755         5.00336
     2014.74606        -1.37653         5.03115
     2014.74880       -10.10651         5.03474
     2014.75154        -8.31649         5.10106
     2014.75427        -7.08647         5.11361
     2014.75701       -10.17545         4.93345
     2014.75975        -8.52244         4.98185
     2014.76249        -5.90742         4.98813
     2014.76522        -7.88240         5.02488
     2014.76796        -5.20538         4.97647
     2014.77070        -7.46236         4.92000
     2014.77344        -8.28234         4.87519
     2014.77618        -7.09732         5.10196
     2014.77891        -6.51130         5.02577
     2014.78165        -9.23429         5.00336
     2014.78439        -0.54027         4.91194
     2014.78713         2.63275         4.95317
     2014.78987       -10.96323         4.90477
     2014.79260        -2.61521         5.07149
     2014.79534        -4.55419         5.00426
     2014.79808        -1.38617         5.09031
     2014.80082        -5.11415         4.98006
     2014.80355        -6.21814         5.06252
     2014.80629       -13.96212         5.00785
     2014.80903        -1.83210         5.07238
     2014.81177         0.38192         5.04280
     2014.81451         5.96794         5.03115
     2014.81724        -2.66004         4.88863
     2014.81998        -4.29602         4.93076
     2014.82266        -2.02215         5.20325
     2014.82449        12.80653         9.50478
     2014.82905       -13.82077         8.66760
     2014.83093        -4.63595         5.02398
     2014.83367        -1.75393         4.95407
     2014.83641        -4.48991         4.95765
     2014.83915        -5.39589         5.01412
     2014.84188       -11.73487         5.31081
     2014.84462        -6.69785         5.01412
     2014.84736        -5.69784         4.99619
     2014.85010        -9.63082         5.04460
     2014.85284        -8.47680         5.05177
     2014.85557        -5.53278         5.11720
     2014.85831         0.99224         5.09120
     2014.86105        -5.43074         5.16739
     2014.86379        -5.47872         4.93166
     2014.86653        -8.82570         5.17546
     2014.86926        -2.42769         5.12975
     2014.87200        -1.58267         5.07955
     2014.87474        -4.57465         5.01502
     2014.87748        -5.70463         5.05087
     2014.88021        -6.24261         5.30095
     2014.88295        -7.14959         5.15753
     2014.88569        -3.12457         5.24179
     2014.88843         0.06145         5.30184
     2014.89117        -1.29554         5.48380
     2014.89390        -6.04452         5.17367
     2014.89664         3.15150         5.25255
     2014.89938        -5.49248         5.51159
     2014.90212        -8.88446         5.15484
     2014.90485        -7.60844         5.04191
     2014.90759         1.59158         5.11899
     2014.91033         6.56760         5.09838
     2014.91307        -4.64739         5.12437
     2014.91581        -0.63237         5.07866
     2014.91854         1.68865         5.07686
     2014.92128        -3.97633         5.01053
     2014.92402        -0.12931         5.03742
     2014.92676        -2.90929         5.00964
     2014.92950        -6.54727         5.14588
     2014.93223        -7.76425         5.00247
     2014.93497       -12.31124         5.09300
     2014.93771        -6.52722         5.00157
     2014.94045        -5.08120         5.04728
     2014.94318        -1.61418         5.21490
     2014.94592        -3.74216         4.97737
     2014.94866        -9.42114         4.96482
     2014.95140        -3.77212         4.90656
     2014.95414        -0.40610         4.91014
     2014.95687        -3.89109         5.06252
     2014.95961         4.76393         4.97916
     2014.96235        -4.79905         4.89401
     2014.96509         2.20097         4.95675
     2014.96783        -5.85401         4.92090
     2014.97056        -7.16099         4.95944
     2014.97330       -14.05997         5.22745
     2014.97604       -16.78295         4.91552
     2014.97878        -7.59694         5.00336
     2014.98151        -2.90692         4.95317
     2014.98425        -5.15790         4.91463
     2014.98699        -5.76288         4.94779
     2014.98973        -6.02686         5.01412
     2014.99247        -0.49284         5.07149
     2014.99520       -13.85282         4.88684
     2014.99794        -4.75980         4.82768
     2015.00068        -8.79679         4.93166
     2015.00342        -8.71777         4.92717
     2015.00616       -12.63275         4.88325
     2015.00889       -10.91773         4.99530
     2015.01163        -4.80471         4.95407
     2015.01437        -8.80369         5.00874
     2015.01711        -8.12067         5.03115
     2015.01984        -0.72365         4.95227
     2015.02258         0.05936         5.09120
     2015.02532        -3.90762         4.96124
     2015.02806        -4.70460         4.99350
     2015.03080        -5.74158         5.27495
     2015.03353        -8.73756         5.00336
     2015.03627        -4.50754         4.97289
     2015.03901        -3.23952         5.08941
     2015.04175         3.87650         5.03025
     2015.04449        -5.47849         5.06163
     2015.04722        -1.90047         5.09031
     2015.04996       -10.23645         5.24538
     2015.05270        -3.39743         4.94958
     2015.05544        -3.36341         4.98364
     2015.05817         1.91061         4.97647
     2015.06091        -2.32537         4.95048
     2015.06365         2.05864         5.04549
     2015.06639        -3.63834         4.96930
     2015.06913        -7.71832         4.97827
     2015.07186        -6.72230         4.95407
     2015.07460        -4.54428         5.00874
     2015.07734        -7.60626         4.98275
     2015.08008        -7.68224         6.48501
     2015.08282        -3.71022         4.92090
     2015.08555        -0.25821         4.95048
     2015.08829         1.78681         5.03384
     2015.09103         8.23983         5.03205
     2015.09377        -2.67015         4.94779
     2015.09650        -6.54813         4.96572
     2015.09924        11.22489         5.02846
     2015.10198         1.20191         5.06521
     2015.10472         1.58293         5.04101
     2015.10746         7.86094         5.01950
     2015.11019        -6.19204         5.11451
     2015.11293        -5.34502         5.01412
     2015.11567        -5.96900         5.01322
     2015.11841        -8.04298         5.02219
     2015.12115        -3.90396         5.02398
     2015.12388        -3.08894         4.92449
     2015.12662        -6.87192         4.92000
     2015.12936        -3.01091         4.89849
     2015.13210        -4.09489         5.32246
     2015.13483        -4.57187         5.09838
     2015.13757         0.42415         4.99709
     2015.14031        -1.09183         4.93614
     2015.14305        -3.91281         4.95407
     2015.14579        -6.23479         4.97737
     2015.14852        -2.01977         4.99350
     2015.15126        -1.48676         4.99530
     2015.15400        -5.12174         5.25434
     2015.15674        -0.66272         5.62901
     2015.15948         3.53830         4.97647
     2015.16221         7.77032         5.00605
     2015.16495         1.55734         5.01950
     2015.16769         1.49436         5.01322
     2015.17043        -2.76562         4.94779
     2015.17316        -2.15861         5.13064
     2015.17590        -4.78959         6.32905
     2015.17864         0.30743         5.02846
     2015.18138         1.82545         4.98992
     2015.18412         0.89247         4.92359
     2015.18685         0.48349         5.00605
     2015.18959        -0.20549         5.04460
     2015.19233        -1.53947         5.12347
     2015.19507         0.85954         5.16470
     2015.19780         5.63756         5.08045
     2015.20054        -1.20942         5.09479
     2015.20328        -5.60040         5.03474
     2015.20602        -6.38238         5.07597
     2015.20876        -7.41836         5.18263
     2015.21149        -6.13434         4.96751
     2015.21423        -8.61732         5.27585
     2015.21697        -3.52731         5.04280
     2015.21971        -0.09929         5.02129
     2015.22245        -2.13827         5.04460
     2015.22518         4.38575         4.96661
     2015.22792        -4.92423         4.94152
     2015.23066        -4.32021         4.96124
     2015.23340        -2.77219         5.12078
     2015.23613         7.79083         5.22476
     2015.23887        -0.64316         5.25165
     2015.24161         1.91186         5.18711
     2015.24384         5.78157         6.44019
     2015.24811         7.43853         9.92695
     2015.24982        -1.96008         4.96930
     2015.25256         0.14794         4.99799
     2015.25530         1.17396         4.96930
     2015.25804        -3.08902         4.99619
     2015.26078         6.46699         4.98275
     2015.26351         1.73101         4.96841
     2015.26625        -0.19097         4.98723
     2015.26899         0.42905         4.96034
     2015.27173         5.04707         5.04818
     2015.27446         4.71209         5.11630
     2015.27720         1.44711         5.03742
     2015.27994         2.08313         5.03025
     2015.28268         2.76914         5.09479
     2015.28542        -1.52484         5.08762
     2015.28815        -4.60982         5.06521
     2015.29089        -0.31480         5.00785
     2015.29363         1.81622         4.97020
     2015.29637         0.03524         5.00247
     2015.29911         1.01326         4.98992
     2015.30184         4.17428         5.05266
     2015.30458         2.74929         5.00516
     2015.30732         1.74331         4.88505
     2015.31006         2.46533         4.91552
     2015.31279        -4.01065         4.85905
     2015.31553        -1.05863         4.86174
     2015.31827        -2.39761         5.00426
     2015.32101        -0.36159         4.85099
     2015.32375         3.17843         4.88415
     2015.32648        -0.71556         4.96751
     2015.32922        -0.68454         4.97647
     2015.33196         2.65348         4.89043
     2015.33470        -2.86650         4.84740
     2015.33744        -5.09548         5.05535
     2015.34017        -2.41446         4.92000
     2015.34291        -2.15544         4.90028
     2015.34565        -1.15342         5.05894
     2015.34839        -5.47241         4.88774
     2015.35044        -1.37614         7.02819
     2015.35746         1.60186         8.15310
     2015.35934        -2.09033         5.02756
     2015.36208        -2.69231         4.94689
     2015.36481         1.40471         4.93972
     2015.36755         2.08773         4.89132
     2015.37029         0.74274         4.91642
     2015.37303        -1.38124         4.94331
     2015.37577        -4.80022         4.91463
     2015.37850        -7.47420         5.05087
     2015.38124        -4.11018         4.98633
     2015.38398        -3.68916         4.96661
     2015.38672         1.47786         4.98275
     2015.38945        -2.34912         4.89043
     2015.39219        -8.03711         4.93972
     2015.39493        -6.16909         4.98275
     2015.39767        -8.32207         4.98544
     2015.40041        -4.56605         4.95944
     2015.40314        -3.69103         5.12885
     2015.40588        -8.67201         4.93524
     2015.40862        -2.42399         5.00516
     2015.41136        -1.11897         4.99081
     2015.41410        -2.83996         4.97558
     2015.41683        -6.40994         5.01053
     2015.41957        -1.72692         4.90118
     2015.42231        -2.27590         4.89670
     2015.42505        -1.66988         5.03742
     2015.42778        -6.34986         5.01143
     2015.43052        -1.93684         4.93883
     2015.43326         1.71618         4.89670
     2015.43600        -2.39581         4.97378
     2015.43874         2.78421         4.99709
     2015.44147        -5.14377         5.07238
     2015.44421        -6.08675         4.91014
     2015.44695         1.90827         4.90477
     2015.44969        -0.98571         4.90656
     2015.45243        -0.62869         5.03653
     2015.45516        -1.36067         4.95496
     2015.45790        -6.02766         5.04460
     2015.46064         1.42736         5.08224
     2015.46338         2.07638         5.04549
     2015.46611         0.53040         4.90566
     2015.46885         4.48042         4.93435
     2015.47159        -0.42056         4.88953
     2015.47433        -3.26354         5.01412
     2015.47707        -4.29852         5.03294
     2015.47980        -3.06151         5.02039
     2015.48254        -1.09149         5.03025
     2015.48528        -4.59847         4.92897
     2015.48802         0.18755         4.96841
     2015.49076        -5.05443         5.01681
     2015.49349         5.40359         5.17277
     2015.49600         3.20802         5.45870
     2015.51088        -5.65683        10.30610
     2015.51266        -6.50328         5.19966
     2015.51540        -3.23126         4.98006
     2015.51813        -1.20424         5.17188
     2015.52087         6.24978         5.16650
     2015.52361         6.27479         5.01771
     2015.52635         3.03281         5.00426
     2015.52908         1.75883         4.96303
     2015.53182         2.08585         4.98364
     2015.53456         1.29887         4.90656
     2015.53730         7.30289         4.97020
     2015.54004         2.71791         5.00336
     2015.54277         2.67793         5.01950
     2015.54551         2.55894         5.01053
     2015.54825        -0.58604         5.20325
     2015.55099         0.62798         5.11003
     2015.55373         0.28200         5.21938
     2015.55646         4.72002         5.16112
     2015.55920         2.54504         5.03563
     2015.56194         6.49106         5.06700
     2015.56468         5.02008         5.03563
     2015.56741         3.62409         5.15933
     2015.57015         3.07011         5.14319
     2015.57289         0.93013         5.20056
     2015.57563         4.67515         4.98006
     2015.57837        -0.09683         5.06700
     2015.58110         6.03519         5.02488
     2015.58384         4.54921         5.08672
     2015.58658         6.58623         5.12706
     2015.58932         1.98624         5.14319
     2015.59206         6.30926         5.11899
     2015.59479         5.12628         5.01681
     2015.59753        11.92130         5.04908
     2015.60027        11.37632         5.29019
     2015.60301         4.84534         5.26061
     2015.60574         6.93136         5.15843
     2015.60848         8.95538         5.07238
     2015.61122         5.72439         5.06163
     2015.61396         7.68241         4.97647
     2015.61670         5.16943         4.91104
     2015.61943         7.18045         4.92090
     2015.62217         4.45147         4.89311
     2015.62491         7.27549         4.96751
     2015.62765         6.17351         4.89939
     2015.63039         5.43353         4.91463
     2015.63312         5.84354         4.91732
     2015.63501         8.85537         7.93350
     2015.64510         5.86724        11.22306
     2015.64681        -2.03536         4.98723
     2015.64955         4.30066         4.92717
     2015.65229         2.64868         4.93972
     2015.65503         5.88169         4.93883
     2015.65776        13.39871         5.19159
     2015.66050         7.35573         5.00874
     2015.66324         6.86175         4.90208
     2015.66598         9.90377         4.98185
     2015.66872         1.60179         5.08852
     2015.67145         2.39081         4.98006
     2015.67419         2.01283         4.92628
     2015.67693         4.81384         4.89043
     2015.67967         1.78286         4.91642
     2015.68240         0.99988         4.91373
     2015.68514        -1.82710         4.90297
     2015.68788         3.59292         4.90746
     2015.69062         6.04494         4.87250
     2015.69336         2.06296         5.05535
     2015.69609         4.45798         4.91373
     2015.69883         8.26299         4.99799
     2015.70157         3.38601         4.91463
     2015.70431         9.15303         4.99530
     2015.70705         4.24405         4.92717
     2015.70978         9.07807         4.91642
     2015.71252        -3.96191         4.92449
     2015.71526        -3.24789         5.00247
     2015.71800         2.30413         4.95675
     2015.72073         7.39414         4.91194
     2015.72307         6.80414         5.86654
     2015.72992         5.33369         9.30489
     2015.73169        -4.03378         4.91552
     2015.73368        -4.10566         7.87523
     2015.73716         7.26526         4.92180
     2015.73990         7.09628         4.99619
     2015.74264         2.03329         5.07417
     2015.74538         5.32531         5.13423
     2015.74794        20.40589        70.67543
     2015.75085        -6.07665         4.97737
     2015.75359         4.32537         4.97199
     2015.75633         0.15739         4.95855
     2015.75906         5.09541         4.91104
     2015.76180         1.12943         4.91014
     2015.76454        -3.88356         4.96392
     2015.76728        -0.33954         4.93255
     2015.77002        -1.17152         4.94062
     2015.77275         3.28550         5.00426
     2015.77549        -0.38948         5.44436
     2015.77823         2.45854         4.93703
     2015.78040         5.78709         6.26451
     2015.78371         3.52258         4.91104
     2015.78650         3.26574         5.12168
     2015.78918         5.64561         4.90028
     2015.79192         6.76563         4.92538
     2015.79466         9.41265         4.96124
     2015.79739         7.13467         4.94062
     2015.80013         4.76069         5.06611
     2015.80287         0.17271         4.92717
     2015.80561         4.24473         4.93614
     2015.80835         1.02074         4.90746
     2015.81108        -0.09124         4.96661
     2015.81382         2.23478         4.99440
     2015.81656         3.47680         4.96751
     2015.81930         4.70182         4.94421
     2015.82203         6.74284         4.86712
     2015.82477         1.61986         4.93883
     2015.82751         5.24088         4.97020
     2015.83025         8.17089         4.99619
     2015.83299        -3.12009         5.07866
     2015.83572         7.00993         4.93883
     2015.83846         2.39195         5.13781
     2015.84120        -1.94803         4.98275
     2015.84399         3.10813         5.13244
     2015.84668        -3.09899         4.98902
     2015.84941         0.98403         4.98006
     2015.85215         0.43904         5.00785
     2015.85489         7.88106         4.96930
     2015.85763         3.94708         5.04997
     2015.86036         1.32610         5.02936
     2015.86310        -0.95688         5.01053
     2015.86584         4.63814         5.00336
     2015.86858        -0.30284         4.98633
     2015.87132         3.21818         5.05266
     2015.87405         0.74919         5.05714
     2015.87679        -0.99879         5.09031
     2015.87953         9.03323         5.08224
     2015.88227         7.34025         4.98006
     2015.88501        -3.11973         5.02129
     2015.88774         1.89129         4.94779
     2015.89048         4.55531         5.01502
     2015.89322         7.15633         5.01053
     2015.89596         9.23634         5.00874
     2015.89869         7.33636         4.97558
     2015.90143         3.36938         5.02039
     2015.90417        -2.48160         4.96841
     2015.90691         2.43842         5.01860
     2015.90965         3.11744         5.01053
     2015.91244        -0.79440         5.05266
     2015.91512         1.79148         4.97916
     2015.91786         0.06049         5.05177
     2015.92060         5.16551         5.00247
     2015.92334         8.23553         5.04818
     2015.92607        -0.33845         4.96213
     2015.92881         0.77157         5.00336
     2015.93155         4.07159         5.17546
     2015.93429         8.09661         5.31170
     2015.93702         5.01663         5.20683
     2015.93976         8.24864         5.20594
     2015.94250         4.19366         5.08403
     2015.94524         3.56168         5.07238
     2015.94798         7.73570         5.09927
     2015.95071         7.37072         4.95227
     2015.95345        -5.53126         4.96751
     2015.95619        -1.00124         4.98364
     2015.95893        -2.57722         5.12168
     2015.96988         9.50785         5.03742
     2015.97262        12.08887         4.91104
     2015.97535         2.25989         4.92269
     2015.97809         5.09791         4.97020
     2015.98083         4.87893         4.91642
     2015.98357        -6.08106         4.94152
     2015.98631        -5.49804         4.93255
     2015.98904         2.50798         4.91732
     2015.99178        -3.00500         4.95407
     2015.99452        -4.92398         5.10465
     2015.99731        -3.50682         5.00785
     2016.00000        -0.27094         4.94421
     2016.00273         0.83207         4.92269
     2016.00547         0.04709         4.98633
     2016.00821        -0.55489         4.91194
     2016.01095         2.90013         4.94241
     2016.01368         2.27915         4.99888
     2016.01642         1.31417         4.98902
     2016.01916        -1.90781         5.08583
     2016.02190        -4.79579         4.99530
     2016.02464        -2.88078         5.08493
     2016.02737        -4.88076         4.95855
     2016.03011        -6.52574         4.89401
     2016.03285         3.21028         4.88594
     2016.03559         1.53330         4.91642
     2016.03833         1.96532         5.00964
     2016.04106        -1.36066         4.96303
     2016.04386         2.88850         5.04639
     2016.04654        -0.31363         4.94779
     2016.04928         1.53239         4.90477
     2016.05201        -4.21659         4.92986
     2016.05481        -1.37442         4.94421
     2016.05749        -0.09055         4.86353
     2016.06029         3.07761         5.04818
     2016.06297        -1.92251         4.88236
     2016.06570         2.20551         4.98006
     2016.06844        -3.18648         4.94600
     2016.07118        -5.87946         4.94869
     2016.07392        -2.44444         5.00964
     2016.07666         0.76758         5.05894
     2016.07939         2.44260         4.95675
     2016.08213         0.45262         5.05983
     2016.08487        -2.46236         4.94689
     2016.08761        -9.51834         4.98096
     2016.09034        -7.95233         5.01502
     2016.09314        -5.77316         5.08403
     2016.09542       -10.00631         5.82441
     2016.10483        -7.21318         7.63412
     2016.10677        -9.36121         4.91552
     2016.10951        -5.79619         4.94510
     2016.11225        -5.07218         4.91911
     2016.11498        -6.28616         4.92628
     2016.11772       -12.87614         4.94958
     2016.12046        -0.77112         4.98544
     2016.12320        -3.14910         4.95496
     2016.12594        -4.06408         4.92180
     2016.12867         4.52494         4.88594
     2016.13141         5.09096         4.92538
     2016.13415         2.75497         5.05266
     2016.13689         2.60399         4.89222
     2016.13963        -4.94499         4.91104
     2016.14236       -10.90397         4.88057
     2016.14516        -8.40580         4.96572
     2016.14784        -7.39593         4.88863
     2016.15058        -3.01091         4.95227
     2016.15331        -8.13089         5.02129
     2016.15605        -0.94388         4.95227
     2016.15879         3.10514         5.05983
     2016.16153        -5.28584         4.99799
     2016.16427        -2.11482         5.00874
     2016.16700        -4.46080         4.96303
     2016.16974        -3.81778         5.00964
     2016.17248        -3.22076         4.97468
     2016.17527        -0.52560         4.98364
     2016.17796         3.39427         4.89311
     2016.18069         1.02329         5.00785
     2016.18343         1.72531         5.06073
     2016.18617         3.25533         4.88774
     2016.18891         8.49435         4.82589
     2016.19164         2.31437         4.80438
     2016.19438         7.79139         4.81513
     2016.19712         8.55141         4.88236
     2016.19986         4.68242         4.92090
     2016.20260        -4.75856         4.92897
     2016.20533        -3.57654         5.00695
     2016.20807        -1.24352         4.99978
     2016.21081        -1.48850         4.93972
     2016.21355        -4.59148         4.87339
     2016.21629         1.84154         4.89043
     2016.21902         8.61156         4.85816
     2016.22176         6.29557         4.82678
     2016.22450        -1.76141         4.81155
     2016.22724         0.04161         4.82768
     2016.22997         2.88463         4.83127
     2016.23271         1.27365         4.83306
     2016.23545         1.99367         4.91911
     2016.23819         2.16969         4.82768
     2016.24093         5.12271         4.84023
     2016.24366        -3.80828         4.91732
     2016.24640         4.60774         4.88325
     2016.24914         1.96076         4.82858
     2016.25188         0.95978         4.83844
     2016.25462         0.30080         4.83933
     2016.25735         1.32182         4.94062
     2016.26009        -2.28716         4.86891
     2016.26283        -4.03514         4.82947
     2016.26557         5.36687         4.87519
     2016.26830        -1.29011         4.84382
     2016.27104        -1.16609         4.84830
     2016.27378         2.11193         4.85457
     2016.27652        -1.48205         4.90925
     2016.27926         5.97297         4.80348
     2016.28142        -1.38448         6.35684
     2016.28815        -4.10722         6.86416
     2016.29021        -4.88596         4.89760
     2016.29295         1.31406         4.83037
     2016.29568         0.98408         4.78645
     2016.29842         3.02810         4.97020
     2016.30116         1.49112         4.96482
     2016.30390        -3.27386         4.86264
     2016.30663         6.86516         5.02039
     2016.30937        -0.32183         4.87519
     2016.31211        -1.99381         4.83485
     2016.31485         0.63921         4.85457
     2016.31759         1.53123         4.85816
     2016.32032        -1.83775         4.95855
     2016.32306        -0.72273         4.87339
     2016.32580        -3.76971         4.87160
     2016.32854         2.31731         4.81782
     2016.33128        -3.61368         4.83664
     2016.33401        -0.29266         4.91552
     2016.33675        -1.56464         4.99888
     2016.33949         3.14238         5.23014
     2016.34223        -1.62960         4.95496
     2016.34496         0.80742         5.09300
     2016.34776         4.52358         5.01860
     2016.35044         4.42746         5.02039
     2016.35324         0.42562         4.91552
     2016.35592        -3.82851         4.82768
     2016.35865        -7.36449         4.84471
     2016.36139         0.51953         4.81782
     2016.36413         6.90355         4.92986
     2016.36687         8.73557         4.95765
     2016.36961         9.32859         4.79721
     2016.37234         8.80461         4.88236
     2016.37514         2.14777         4.84202
     2016.37782        -6.50036         4.80169
     2016.38056         3.99766         4.99081
     2016.38329         8.16068         4.77928
     2016.38603         0.24670         4.81424
     2016.38877        12.78872         4.83754
     2016.39151         2.32774         4.83127
     2016.39407        -3.79468         6.99593
     2016.41438        -2.67663         9.81939
     2016.41615        -4.36309         4.97737
     2016.41889        -0.66508         4.88594
     2016.42162        -0.29306         4.91373
     2016.42436        -2.06804         4.94421
     2016.42710         1.59698         4.94241
     2016.42984        -1.22500         4.88057
     2016.43258         2.99402         4.90028
     2016.43531        12.51404         4.93614
     2016.43805         6.73906         4.97558
     2016.44079         1.31707         4.96392
     2016.44353         2.42209         4.85009
     2016.44626         2.43911         4.79093
     2016.44900         3.04113         4.81782
     2016.45174         7.85215         4.92449
     2016.45448         1.52317         4.88415
     2016.45722         8.76119         4.87250
     2016.45995         5.99421         4.85636
     2016.46269         5.72022         4.81782
     2016.46543         3.72224         4.81065
     2016.46822         2.71841         4.93703
     2016.47096         6.06443         4.91642
     2016.47370         0.35545         4.84471
     2016.47644         9.57846         4.92359
     2016.47918         9.77848         5.11720
     2016.48191         7.44050         4.92090
     2016.48465         5.30452         4.95048
     2016.48739         6.00754         6.10138
     2016.49013         7.95656         4.94421
     2016.49287         3.38258         4.94689
     2016.49560        12.76660         4.95944
     2016.49828         4.06247         4.86085
     2016.50102         4.02449         4.88057
     2016.50376        13.19951         4.93524
     2016.50650         4.64252         4.98185
     2016.50924         8.43554         4.87608
     2016.51197         3.17156         4.85278
     2016.51477         3.62673         4.90028
     2016.51751         3.48375         5.06969
     2016.52024         5.13676         5.49187
     2016.52298         2.48078         5.07866
     2016.52572         0.05480         4.96661
     2016.52846         4.51182         5.01860
     2016.53120        -5.30016         4.93972
     2016.53393         4.76886         4.97827
     2016.53667         8.91588         4.99081
     2016.53941         4.85390         4.99261
     2016.54215         5.51391         5.03742
     2016.54488         7.15993         5.04011
     2016.54762        -1.70105         4.99978
     2016.55036         4.35797         5.10555
     2016.55310         5.57999         4.97378
     2016.55584         3.56401         5.12437
     2016.55852         0.63888         5.23283
     2016.56131         3.76205         4.98364
     2016.56405        -1.51694         5.00426
     2016.56679         5.95708         5.17994
     2016.56953         1.64410         5.19070
     2016.57226         6.55012         4.99171
     2016.57500         3.70414         5.06342
     2016.57774         6.78316         5.07597
     2016.58048         4.16018         5.07507
     2016.58321         1.51020         4.94331
     2016.58595         1.29721         4.98275
     2016.58869        -0.87077         4.94600
     2016.59137         1.05011         4.85188
     2016.59411         0.11212         5.00157
     2016.59685         1.44114         4.85278
     2016.59958         1.24216         4.97020
     2016.60232         4.63318         4.85278
     2016.60506        -2.18280         4.89043
     2016.60780         2.37322         4.91642
     2016.61054         4.16424         4.85009
     2016.61327        -2.84974         4.89670
     2016.61601        -1.51373         4.88594
     2016.61875        -4.98771         4.87967
     2016.62149         2.62931         4.93076
     2016.62423         0.43833         4.98006
     2016.62696         5.13235         4.88953
     2016.62970         4.53037         4.87250
     2016.63244        -3.39761         4.93614
     2016.63438         0.90736         7.26752
     2016.64973        -6.81928         8.46234
     2016.65160         0.82652         4.92180
     2016.65434        -2.17746         4.86981
     2016.65708        -0.81744         4.87160
     2016.65982        -5.23943         4.91014
     2016.66256         2.47359         4.95227
     2016.66529         0.98861         4.90387
     2016.66769         5.15475         5.63618
     2016.67077        -1.56335         4.98275
     2016.67351         3.57567         4.84202
     2016.67624         9.88669         4.88774
     2016.67898         5.54671         4.82589
     2016.68172         6.80172         4.84830
     2016.68446         1.32674         5.01053
     2016.68720        -1.60524         5.10824
     2016.68993         2.68778         5.03474
     2016.69267         2.93380         4.82947
     2016.69540         3.68079         4.83127
     2016.69815         3.20384         4.86891
     2016.70089         5.29086         4.77749
     2016.70362         1.94687         4.94779
     2016.70636         0.01989         5.06342
     2016.70910        -0.93909         5.06252
     2016.71184         5.68393         4.84292
     2016.71457        11.15495         5.03115
     2016.71731         0.15597         4.89491
     2016.72005         5.17599         4.88415
     2016.72279         9.27601         4.83575
     2016.72553         4.34802         4.92628
     2016.72718         6.74826        10.73814
     2016.73921         0.21912         4.82947
     2016.74195         2.27714         4.78645
     2016.74469         2.66016         4.92090
     2016.74743         3.18817         4.85726
     2016.75017         5.08519         4.84202
     2016.75290        -1.13879         4.85009
     2016.75564         5.65923         4.95496
     2016.75838        10.44325         4.84561
     2016.76112         5.56527         4.83396
     2016.76386         2.96229         4.82589
     2016.76659         5.08131         4.82947
     2016.76933         5.55732         4.88146
     2016.77207         6.71334         4.83933
     2016.77481         7.44936         4.87967
     2016.77754         3.51538         4.84202
     2016.78028         0.65540         4.83037
     2016.78302        -3.85158         4.92359
     2016.78576        11.85044         4.90656
     2016.78850        15.48846         4.89401
     2016.79123        10.26247         4.94421
     2016.79397        10.19749         4.87967
     2016.79677         0.77466         5.03025
     2016.79945        -3.61847         4.85547
     2016.80219         0.27655         4.87250
     2016.80492        -1.04443         4.89222
     2016.80766         4.19759         4.89222
     2016.81040        -1.90739         4.91194
     2016.81314         1.86362         4.89132
     2016.81587        -0.53036         4.90925
     2016.81861         3.54766         4.91463
     2016.82135         1.92368         4.93703
     2016.82409         4.92270         5.52234
     2016.82683         1.42972         4.84830
     2016.82956        11.03774         4.84292
     2016.83230         5.38476         4.81513
     2016.83504         0.02877         4.82410
     2016.83778        -0.06121         4.84650
     2016.84052        -1.91819         4.82499
     2016.84325        -1.56117         4.82947
     2016.84599         2.65885         4.84740
     2016.84873         9.25987         4.87788
     2016.85147         0.30289         4.85905
     2016.85420         1.00891         4.86443
     2016.85694         2.89792         4.83664
     2016.85968        -2.31306         4.95048
     2016.86242         1.87696         4.90028
     2016.86516        13.98998         4.94869
     2016.86789         1.15700         4.87967
     2016.87063         1.99202         4.82947
     2016.87337        13.88304         4.99530
     2016.87611         5.77506         4.86443
     2016.87885         0.97507         4.87250
     2016.88158        -3.98991         4.89580
     2016.88432         4.88011         4.92538
     2016.88706         2.93213         4.91373
     2016.88980         5.90815         4.85726
     2016.89253        -1.74683         4.86533
     2016.89527         2.02119         5.14857
     2016.89801         1.98121         4.87608
     2016.90075        -0.26678         4.85457
     2016.90349         2.54224         4.96034
     2016.90622         5.99726         4.94779
     2016.90896         9.44028         4.90477
     2016.91170         0.63330         4.85457
     2016.91444        -2.59468         4.82858
     2016.91718        -5.40166         5.12706
     2016.91991        -6.98264         4.96124
     2016.92265         0.51037         4.85547
     2016.92539        -1.44361         4.90118
     2016.92813        -2.78859         4.85099
     2016.93086         2.63843         4.84382
     2016.93360        -1.39355         5.37714
     2016.93634       -10.27753         4.91373
     2016.93908        -6.14951         5.02667
     2016.94182         4.64251         4.92359
     2016.94455        -0.37548         4.87788
     2016.94729        -0.13546         4.94062
     2016.94997        -0.52458         5.12795
     2016.95389        14.79746        11.86932
     2016.95551         2.37460         4.92986
     2016.95824        -0.03838         4.84740
     2016.96098        -1.38636         4.83396
     2016.96372        -3.43335         4.87519
     2016.96646        -6.64733         4.87429
     2016.96919         1.05969         6.01174
     2016.97193        -0.16029         5.04728
     2016.97467         2.18573         4.83306
     2016.97741         9.49375         4.88505
     2016.98015         0.82377         4.90118
     2016.98288        -0.45421         4.90208
     2016.98562        -2.35920         4.91014
     2016.98836         1.96982         4.90208
     2016.99110         8.16784         4.85726
     2016.99384         4.66786         4.81155
     2016.99657        -0.98312         4.88953
     2016.99931         3.83590         4.85636
     2017.00088        10.79993        13.72116
     2017.00479         2.53694         4.80796
     2017.00695        -3.82951         6.60781
     2017.01026        -7.97603         4.93076
     2017.01300        -6.71201         4.96661
     2017.01574       -17.04199         4.99171
     2017.02121        -1.10395         4.82858
     2017.02395         6.69007         4.86174
     2017.02669         3.65909         4.95944
     2017.02943        11.64210         4.90118
     2017.03216         0.56112         4.87339
     2017.03490        -1.45786         4.80975
     2017.03764        -4.05284         4.83933
     2017.04038        -1.78182         4.86264
     2017.04312        -0.41280         4.87250
     2017.04585         3.08722         5.04101
     2017.04859         9.63324         5.10555
     2017.05133         7.71725         4.87519
     2017.05281         7.89406        18.52105
     2017.06616        -1.42473        12.58818
     2017.06776        -7.91963         4.86533
     2017.07049        -7.79461         4.89670
     2017.07232        -7.43393         8.79846
     2017.08240        -6.21409         8.85762
     2017.08418        -8.32252         4.92986
     2017.08692        -1.24750         5.01412
     2017.08966        -3.87048         4.88505
     2017.09240        -2.17146         4.90387
     2017.09514         3.04355         4.84919
     2017.09787         2.66257         4.89311
     2017.10061         2.85659         4.94421
     2017.10335        -5.75839         5.01502
     2017.10609         1.30963         5.01412
     2017.10882        10.65265         4.88057
     2017.11156         2.36967         4.91642
     2017.11430        -4.62231         4.89132
     2017.11704       -13.94230         4.95496
     2017.11978        -7.27528         4.92090
     2017.12251        -8.52926         4.87519
     2017.12531        -1.98509         4.96303
     2017.12805         0.60093         5.01322
     2017.13078         7.63094         4.96751
     2017.13347        -5.64818         4.95944
     2017.13620         3.40184         4.86533
     2017.13894        -1.27515         4.88057
     2017.14168        -0.10613         4.94331
     2017.14442        -4.87311         4.85816
     2017.14715        -4.74109         4.80079
     2017.14989        -7.92507         4.88774
     2017.15263        -5.17605         5.36280
     2017.15537         0.26397         4.86622
     2017.15811         2.94199         4.97827
     2017.16084         1.33300         4.82947
     2017.16358       -10.76798         4.85547
     2017.16632        -5.75596         4.97199
     2017.16911        -4.14679         6.71627
     2017.17185         6.02423         4.99978
     2017.17459         3.47824         5.02039
     2017.17733         2.08026         5.08314
     2017.18001        -4.56886         4.91552
     2017.18275        -3.10585         4.89580
     2017.18548        -4.45683         4.86353
     2017.18822       -11.51881         4.95765
     2017.19096        -5.12879         4.83485
     2017.19370        -8.03677         4.94331
     2017.19644        -5.45675         4.88594
     2017.19917        -6.37273         4.86802
     2017.20191        -3.72271         4.95227
     2017.20465        -2.38770         5.03384
     2017.20739        -5.52668         4.85995
     2017.21013         1.59934         4.90835
     2017.21286         5.82936         4.93793
     2017.21560        -2.25162         4.87877
     2017.21834        -1.49160         4.96930
     2017.22108         7.57042         4.91104
     2017.22381        -1.61956         4.88236
     2017.22655         0.10045         5.01502
     2017.22929        -0.19253         4.89849
     2017.23203         3.17549         4.94421
     2017.23477         1.11851         4.93883
     2017.23750        -5.42147         4.80169
     2017.24024        -4.64545         4.91194
     2017.24298        -5.42543         4.95227
     2017.24572        -1.61641         5.01322
     2017.24846        -5.85040         4.88863
     2017.25119        -1.86738         4.91104
     2017.25393        -0.73136         4.76225
     2017.25667        -1.75034         4.86712
     2017.25941        -9.45632         4.92090
     2017.26186        -0.88303         5.48201
     2017.26579         8.29906         8.75992
     2017.26762         4.69574         4.82141
     2017.27036        -0.35425         4.90028
     2017.27310         2.77577         4.89491
     2017.27561        -2.74779         5.33053
     2017.29317        -0.32576         8.62637
     2017.29500         0.08892         4.94600
     2017.29871       -16.06457         9.17044
     2017.30047        -9.16604         4.84919
     2017.30219         3.66035        11.31359
     2017.31793       -14.49129         9.90275
     2017.31964        -1.70191         4.99350
     2017.32238        -5.79089         4.97468
     2017.32512        -7.09487         4.86802
     2017.32785        -7.39785         4.84471
     2017.33059        -7.21583         4.80527
     2017.33333        -4.30381         4.79810
     2017.33607        -4.79680         4.85368
     2017.33880        -4.06278         4.91194
     2017.34154         5.31824         5.08224
     2017.34428        -6.13274         4.80079
     2017.34702        -4.52472         4.76583
     2017.34976        -0.60970         4.84292
     2017.35249        -4.07068         4.88057
     2017.35523        -8.75666         4.86174
     2017.35797        -8.43165         4.80617
     2017.36071        -2.07463         4.82678
     2017.36344        -3.26161         4.78286
     2017.36618        -4.58659         4.83933
     2017.36892         0.01843         4.89132
     2017.37166        -0.44155         4.92090
     2017.37440        -2.40753         4.83933
     2017.37713        -3.01251         4.94958
     2017.37885        -0.25613        10.66464
     2017.39166        -9.70828         8.07960
     2017.39356         6.96760         4.82589
     2017.39630         3.04162         4.85547
     2017.39904        -1.87836         4.85368
     2017.40177        -1.47235         4.86802
     2017.40451        -3.16533         4.84023
     2017.40725         0.90069         4.79272
     2017.40999        -0.30829         4.96392
     2017.41273         0.67073         4.91463
     2017.41546        -2.31325         4.91104
     2017.41820        -5.37123         4.98185
     2017.42094        -2.87821         4.83216
     2017.42368         0.02680         4.92807
     2017.42642        -3.18518         4.94062
     2017.42915         1.06884         4.91552
     2017.43189         0.54686         5.00695
     2017.43463         2.03388         4.86981
     2017.43737         1.18890         4.85816
     2017.44010         1.82892         4.90387
     2017.44284         4.93394         4.96124
     2017.44558        -3.41305         4.90566
     2017.44832         1.72697         4.79810
     2017.45191         8.48619         8.18895
     2017.45379         2.75101         4.91732
     2017.45653         0.74503         6.02071
     2017.45927         7.05905         4.88057
     2017.46201         3.80707         4.91821
     2017.46475         6.25109         4.79900
     2017.46748        -1.79490         5.03115
     2017.47022        -1.03588         4.99978
     2017.47296         2.00814         4.96392
     2017.47570         0.55116         4.94062
     2017.47843        -1.14182         4.79183
     2017.48117        -2.70880         4.79362
     2017.48391         2.48822         4.96751
     2017.48665         3.93124         4.90477
     2017.48939         2.61725         4.91194
     2017.49212         2.55527         4.88146
     2017.49486         1.50429         4.87967
     2017.49760         1.37231         4.87160
     2017.50034        -1.18967         5.03653
     2017.50308         4.60435         4.92538
     2017.50581        -2.26363         4.91283
     2017.50855        -1.09661         4.79541
     2017.51129        -2.22660         4.88057
     2017.51403        -2.91058         4.95586
     2017.51676        -0.97456         4.90835
     2017.51950        -4.53054         4.91911
     2017.52224         3.86648         4.92449
     2017.52498        -1.36550         4.84292
     2017.52772        -0.70548         5.04908
     2017.53045        -2.76546         4.87250
     2017.53319        -9.51445         5.15126
     2017.53593         2.94257         5.01681
     2017.53867         0.00059         4.85457
     2017.54141         3.50261         4.91194
     2017.54414        -0.80237         5.02039
     2017.54688        -1.63035         5.05266
     2017.54962        -1.91533         4.88236
     2017.55144        10.55535         8.17640
     2017.56057        -5.58526         5.06342
     2017.56331        -3.62024         4.95496
     2017.56605         2.22978         5.07417
     2017.56878        -6.27020         4.92986
     2017.57152         1.99982         4.98454
     2017.57426        -4.00616         4.98813
     2017.57700        -1.73615         4.95317
     2017.57974        -4.29113         4.90656
     2017.58247        -2.96411         4.91463
     2017.58521        -8.02109         4.90208
     2017.58795       -10.34107         5.02667
     2017.59069        -6.94905         5.09389
     2017.59342        -3.93003         4.96124
     2017.59616        -0.84001         4.95227
     2017.59890        -1.17100         4.91821
     2017.60164        -0.95398         4.95586
     2017.60438        -7.28196         5.05087
     2017.60711        -8.69594         4.99619
     2017.60985        -5.59092         5.02577
     2017.61259         0.30310         4.95048
     2017.61533         0.34712         4.97827
     2017.61807         2.50214         5.07866
     2017.62080        -2.76185         4.94062
     2017.62354        -2.75383         4.99888
     2017.62628        -4.25181         5.02398
     2017.62902         0.72721         5.11003
     2017.63175        -4.58277         4.92359
     2017.63449        -6.85275         4.91194
     2017.63723        -4.26773         4.86264
     2017.63997        -1.13971         4.94869
     2017.64271         2.37330         4.93972
     2017.64544        -2.80868         4.96751
     2017.64818        -2.36966         5.05177
     2017.65092        -3.65264         4.89132
     2017.65366        -5.65062         4.86353
     2017.65639        -2.16260         4.89939
     2017.65913        -2.63458         4.93435
     2017.66187        -1.82556         4.96303
     2017.66461        -1.40955         5.03115
     2017.66735         1.50047         5.01860
     2017.67008        -2.27051         4.83664
     2017.67282        -4.92049         5.02667
     2017.67556        -9.26047         4.92897
     2017.67830        -1.05345         4.91821
     2017.68104         2.10457         4.98185
     2017.68377         1.25859         5.12795
     2017.68651        -3.76940         5.09748
     2017.68925         0.10362         4.91373
     2017.69199        -0.34536         4.91821
     2017.69472         0.15666         4.95227
     2017.69746         3.66968         4.99171
     2017.70020         3.20470         5.07417
     2017.70294         7.74472         5.17456
     2017.70568        -2.08026         5.00516
     2017.70841        -1.98225         4.85905
     2017.71115        -3.11723         4.95675
     2017.71389         4.49979         5.03563
     2017.71663         6.91981         4.97020
     2017.71937         1.56783         4.95944
     2017.72210        -3.53715         4.90835
     2017.72484        -6.30213         4.84561
     2017.72758         0.51989         4.86443
     2017.73032        -3.17010         4.86981
     2017.73305         0.53092         4.91014
     2017.73579        -2.29606         4.89132
     2017.73853        -3.47004         4.86353
     2017.74053        -1.07092         7.20388
     2017.74401         1.00300         4.88057
     2017.74674        -4.77298         4.93435
     2017.74948        -3.27096         4.93614
     2017.75222        -4.47495         4.90925
     2017.75496       -12.20393         4.93614
     2017.75770        -3.21491         4.96392
     2017.76043        -3.91089         4.91104
     2017.76317        -0.93087         4.90297
     2017.76591        -3.88185         4.95407
     2017.76865        -3.09283         4.94510
     2017.77138        -3.18681         4.88505
     2017.77412        -1.91580         4.87877
     2017.77686         3.13822         4.88236
     2017.77960        -1.50176         4.98006
     2017.78234        -1.13174         4.93883
     2017.78507        -2.81472         4.88505
     2017.78781        -5.08570         4.81424
     2017.79055        -3.39268         4.82678
     2017.79329        -0.32466         4.85009
     2017.79603         3.26835         4.88415
     2017.79876         1.77137         4.97289
     2017.80150        -8.25461         5.08941
     2017.80424         5.16841         4.82589
     2017.80698        -5.86657         4.89760
     2017.80971        -6.76255         4.92180
     2017.81245        -6.85253         4.87967
     2017.81519        -0.07551         4.84650
     2017.81759        -5.32537         5.77690
     2017.82152        -3.72328         7.82145
     2017.82340        -6.26146         4.88505
     2017.82614        -0.04244         4.85726
     2017.82888        -3.56542         4.86712
     2017.83162         2.98060         4.84382
     2017.83436        -1.46038         4.84830
     2017.83709         3.73764         4.94510
     2017.83983        -3.13835         4.88146
     2017.84257       -12.02433         4.87429
     2017.84531         0.18269         4.85726
     2017.84804        -6.55029         4.86353
     2017.85078        -3.27127         4.86174
     2017.85352         1.18675         4.89760
     2017.85626         3.11677         4.98723
     2017.85900         4.31079         4.96303
     2017.86173         1.39780         4.96930
     2017.86447        -4.91618         4.89939
     2017.86721         0.89584         4.95227
     2017.86995        -0.67314         4.89043
     2017.87269        -2.57412         4.87698
     2017.87542         8.71190         4.88057
     2017.87816        -1.20508         4.87339
     2017.88090        -1.72406         4.84382
     2017.88364        -1.89805         4.85278
     2017.88637         0.52297         4.86085
     2017.88911         2.84399         4.86443
     2017.89185        -1.01599         4.90297
     2017.89459         3.95703         4.92717
     2017.89733         2.35905         4.92269
     2017.90006        -5.32793         4.99171
     2017.90280         3.19108         4.96751
     2017.90554         6.57210         4.90925
     2017.90828         0.36012         4.87250
     2017.91102         0.17714         4.96841
     2017.91375        -0.13484         4.93345
     2017.91649         2.79018         4.89043
     2017.91923         6.13520         4.87071
     2017.92197         3.79822         4.89849
     2017.92470        -1.48077         4.86622
     2017.92744        -5.78075         4.85188
     2017.93018        -4.48873         4.87519
     2017.93292        -3.52071         4.88146
     2017.93566        -4.29469         4.84830
     2017.93839         1.57033         4.81693
     2017.94113        -2.42965         4.84919
     2017.94387         3.23737         4.80975
     2017.94661         1.09738         4.85905
     2017.94935         1.42040         4.85368
     2017.95180        -3.40331         5.66755
     2017.96303        -0.25650         4.89222
     2017.96577         3.98652         4.98992
     2017.96851         6.33453         4.82230
     2017.97125         0.87555         4.83485
     2017.97399         2.59857         4.82678
     2017.97672         4.72159         4.88953
     2017.97946         0.02861         4.87160
     2017.98220         4.69763         4.84382
     2017.98494        -1.36035         4.84919
     2017.98767        -5.44033         4.86174
     2017.99041        -6.11232         4.85905
     2017.99315         0.71370         4.86622
     2017.99589         3.42372         4.94779
     2017.99863         3.11074         4.82768
     2018.00136        -5.62024         4.86981
     2018.00410        -8.23922         4.85278
     2018.00684        -3.34620         4.88594
     2018.00958         3.77282         4.88057
     2018.01232        -4.38317         4.90656
     2018.01505        -0.52815         4.84292
     2018.01779         0.75687         4.89311
     2018.02053        -2.25211         4.93076
     2018.02327         1.87291         4.86891
     2018.02600         0.63193         4.83306
     2018.02874         1.87295         4.87698
     2018.03148        -4.79703         4.91552
     2018.03422        -7.08002         4.86712
     2018.03696        -7.40900         4.85995
     2018.03969        -3.66098         4.85457
     2018.04243        -7.26196         4.89849
     2018.04517        -7.64594         4.88146
     2018.04791         2.25408         4.95048
     2018.05065         6.07910         4.86533
     2018.05338        -2.75788         4.84113
     2018.05612        -3.24387         4.83485
     2018.05886        -0.03485         4.83037
     2018.06160        -3.50683         4.82858
     2018.06433        -0.07281         4.97199
     2018.06707         5.04821         4.99978
     2018.06981        -9.03877         4.97020
     2018.07255        -2.04675         5.04728
     2018.07529       -11.57773         4.94958
     2018.07802       -14.55772         4.97110
     2018.08076        -2.75070         5.04460
     2018.08350        -2.28668         4.99619
     2018.08624        -7.81566         4.99350
     2018.08898       -10.55464         5.00157
     2018.09171        -5.88762         4.93793
     2018.09445        -4.49660         4.92717
     2018.09719         0.16542         5.15216
     2018.09993        -2.27957         4.94779
     2018.10266        -8.59355         4.95586
     2018.10540        -3.78853         5.04280
     2018.10814         1.63149         4.97110
     2018.11088         3.39751         4.98096
     2018.11362         0.62553         5.00695
     2018.11635         0.01955         4.92897
     2018.11909        -4.67843         5.02308
     2018.12183        -1.06342         5.03832
     2018.12457        -1.35440         4.95675
     2018.12731        -3.36538         4.94421
     2018.13004         0.24364         4.96751
     2018.13278        11.29166         4.99978
     2018.13552         2.17368         4.95586
     2018.13826         1.48670         4.96213
     2018.14099         0.37972         4.95944
     2018.14373        -0.99827         4.95317
     2018.14647         0.02375         5.16829
     2018.14921         1.72777         5.06521
     2018.15195        -1.16321         4.91911
     2018.15468         0.69781         5.00605
     2018.15742        -3.54317         4.96303
     2018.16016        -0.82115         4.96303
     2018.16290        -1.03513         5.08852
     2018.16564        -2.03912         5.07149
     2018.16837        -4.28210         4.99171
     2018.17111         0.11292         5.00067
     2018.17385        -1.59406         4.98902
     2018.17659        -2.94604         4.94331
     2018.17932        -1.65402         4.94869
     2018.18206         2.77900         5.21669
     2018.18480         9.16102         5.13154
     2018.18754         2.85703         4.96392
     2018.19028        -1.50995         4.99888
     2018.19301         0.04107         4.94600
     2018.19575         6.65009         5.04011
     2018.19849        -0.07789         4.95138
     2018.20123        11.70613         5.01143
     2018.20397         3.81315         4.93793
     2018.20670         4.56717         4.96930
     2018.20944         1.85218         4.93255
     2018.21218        -0.96780         4.94331
     2018.21492        -5.25078         4.93972
     2018.21765         9.13824         4.90028
     2018.22039        -0.44674         4.92000
     2018.22313         5.29528         5.03922
     2018.22587         0.48830         4.86353
     2018.22861        -0.53068         4.83216
     2018.23134         1.64133         4.84292
     2018.23408        -3.82365         4.81334
     2018.23682        -1.24763         4.85009
     2018.23921        -3.51849         5.67293
     2018.24318        -0.21931         8.33954
     2018.24503         3.49543         4.84919
     2018.24777         4.28445         4.83037
     2018.25051         5.80247         4.89043
     2018.25325         1.38248         4.81872
     2018.25598         1.26050         4.86981
     2018.25872        -0.93848         4.94241
     2018.26146         2.54754         4.92269
     2018.26420         3.80356         4.90477
     2018.26694         4.83558         4.87429
     2018.26967        -1.67040         4.81693
     2018.27241        -1.34938         4.90566
     2018.27515        16.65963         4.86443
     2018.27789        15.02465         4.95407
     2018.28062         3.78267         5.07149
     2018.28336         0.01669         4.86264
     2018.28610         5.89371         4.85816
     2018.28884         9.80473         4.80438
     2018.29158         3.98075         4.92538
     2018.29431         1.40077         4.86981
     2018.29705        -0.44222         4.79452
     2018.29979         0.01580         4.79541
     2018.30253         2.21482         4.87339
     2018.30527         2.45584         4.80617
     2018.30800        -0.38514         4.75329
     2018.31074         1.96288         4.79631
     2018.31348         0.34890         4.76314
     2018.31622         3.96992         4.80707
     2018.31895         3.79693         5.00785
     2018.32169         3.54695         4.81334
     2018.32443        -3.73003         4.75597
     2018.32717        -3.50801         4.89670
     2018.32991         4.13701         4.93255
     2018.33264         3.33303         4.76314
     2018.33538        -0.70695         4.89311
     2018.33812         2.11907         4.96930
     2018.34086         3.42308         4.82141
     2018.34360         3.83210         4.82589
     2018.34633        -3.09588         4.74343
     2018.34907        -2.17586         4.79093
     2018.35181         2.92416         4.91283
     2018.35455         4.95818         4.85547
     2018.35728         7.15520         4.80438
     2018.36002         6.49522         4.83844
     2018.36276         1.82223         4.78645
     2018.36550         4.60825         4.74701
     2018.36824         4.39327         4.74791
     2018.37097         5.24229         4.78466
     2018.37371         3.01431         4.83306
     2018.37645         3.76633         4.92000
     2018.37919         2.06735         4.78735
     2018.38193         4.65337         4.84650
     2018.38466         4.80338         4.78735
     2018.38740        14.79440         4.78466
     2018.39014        13.93442         4.76135
     2018.39253        10.09256         5.49008
     2018.40758        -1.33486        10.16717
     2018.40930        10.51355         4.89401
     2018.41204         7.17857         4.86712
     2018.41478         3.90259         4.73267
     2018.42299        -1.39535         4.77749
     2018.42573         8.28267         4.75597
     2018.42847        10.46968         4.77749
     2018.43121         7.95570         4.79362
     2018.43394         1.61272         4.74880
     2018.43668         8.90374         4.94869
     2018.43942         6.69676         4.74432
     2018.44216         7.28478         4.74791
     2018.44490         6.70880         4.76314
     2018.44763         4.33182         4.79631
     2018.45037         2.69283         4.84113
     2018.45311         5.37685         4.79183
     2018.45585        11.77887         4.78645
     2018.45859         9.66889         4.72281
     2018.46132         2.46391         4.78914
     2018.46406         0.14693         4.79631
     2018.46680        -4.23005         4.79900
     2018.46954         6.25197         4.95586
     2018.47227         8.28298         4.94152
     2018.47501         4.07500         4.83754
     2018.47775         8.55602         4.81244
     2018.48049         5.77204         4.83754
     2018.48323         7.43506         4.78735
     2018.48596         8.78008         4.78107
     2018.48870         7.79310         4.79989
     2018.49144         4.02812         4.77390
     2018.49418         4.71413         4.90028
     2018.49692         4.53915         4.87429
     2018.49965         3.84317         4.73715
     2018.50239         4.22019         4.77121
     2018.50513         2.22321         4.79093
     2018.50787         6.11523         4.82947
     2018.51060         0.64125         4.80617
     2018.51334        -0.23573         4.78197
     2018.51608         1.32728         4.86622
     2018.51882        -1.31670         4.84740
     2018.52156        -0.56568         4.83396
     2018.52429         4.43234         4.78466
     2018.52703        -0.18264         4.76763
     2018.52977         2.21638         4.79004
     2018.53251         3.77340         4.86533
     2018.53525         9.00342         5.04997
     2018.53798         8.24443         4.86981
     2018.54072         5.58345         4.82410
     2018.54346         2.69147         4.78376
     2018.54620         1.14049         4.77300
     2018.54893        -0.23449         4.83037
     2018.55167        -1.83847         4.80707
     2018.55441         3.77855         4.85457
     2018.55715         1.87357         4.83575
     2018.55989        -1.52942         4.95765
     2018.56262        -0.15540         4.84113
     2018.56513        -0.63996         5.48739
     2018.56852         6.19271         6.17040
     2018.57084         2.21066         5.03832
     2018.57357         2.58768         4.94062
     2018.57631        -7.61430         5.22745
     2018.57905         2.78072         5.25434
     2018.58179         2.20273         5.07686
     2018.58453        -0.50625         5.14767
     2018.58726         1.53777         5.01502
     2018.59000         0.89579         5.05625
     2018.59274         0.28981         4.90028
     2018.59548         3.00683         5.03563
     2018.59822        -0.46815         5.02846
     2018.60095        -1.30913         5.00157
     2018.60369         4.66788         5.00605
     2018.60643        -0.06710         4.99978
     2018.60917        -2.78608         4.99350
     2018.61190         1.74294         4.88953
     2018.61464         3.59996         4.99799
     2018.61738         0.52998         5.01681
     2018.62012        -0.63500         4.98006
     2018.62286         4.39602         5.02039
     2018.62559        -3.81197         5.14409
     2018.62833        -2.12095         5.30184
     2018.63010         8.06559         8.49281
     2018.63423        -1.06684         7.02730
     2018.63655        -1.35789         5.00964
     2018.63928        -1.41387         5.26061
     2018.64202        -0.27985         5.23641
     2018.64476         0.83217         5.17277
     2018.64750        -0.38982         5.57881
     2018.65023        -5.24480         4.94331
     2018.65297         1.38422         5.24896
     2018.65571        -0.68176         4.92807
     2018.65845        -3.51474         4.94510
     2018.66084         1.00640         5.65142
     2018.66434        -4.67363         6.81845
     2018.66666        -0.41268         4.94600
     2018.66940         0.15233         4.83664
     2018.67214        -4.56465         4.95496
     2018.67488        -2.17163         4.98275
     2018.67761        -3.67761         5.00067
     2018.68035        -4.24759         5.11989
     2018.68309        -7.89157         5.11720
     2018.68583        -4.13655         4.96661
     2018.68856        -8.01953         4.81603
     2018.69130        -0.50452         4.97916
     2018.69404        -2.11150         5.03832
     2018.69678         1.00152         4.93345
     2018.69952        -2.91346         4.90118
     2018.70225        -3.02044         5.04639
     2018.70499        -8.93342         4.87160
     2018.70773        -4.67140         4.83127
     2018.71047        -7.60038         4.97110
     2018.71321        -0.78237         4.98096
     2018.71594        -4.33335         4.98006
     2018.71868       -10.54833         5.02667
     2018.72142       -11.27031         5.01233
     2018.72416        -4.54729         5.10555
     2018.72689        -9.95127         4.89043
     2018.72963        -4.79125         5.08762
     2018.73237        -9.90223         5.02936
     2018.73511        -8.43422         4.99350
     2018.73785        -7.81720         4.99978
     2018.74058        -4.65118         5.02577
     2018.74332        -0.00616         5.06880
     2018.74606        -1.39014         4.86174
     2018.74880       -13.55512         4.99799
     2018.75154       -14.86310         5.04460
     2018.75427        -2.50808         5.06700
     2018.75701        -3.15507         5.14767
     2018.75975        -3.27605         5.01053
     2018.76249        -3.09703         5.02219
     2018.76522       -10.37401         4.96572
     2018.76796        -3.07599         5.02936
     2018.77070        -1.51197         5.10555
     2018.77344        -4.47795         5.01950
     2018.77618        -5.19593         5.03474
     2018.77891        -6.08892         4.86622
     2018.78165        -4.22390         5.12527
     2018.78439        -6.35488         4.82230
     2018.78713        -7.63886         4.86622
     2018.78987        -4.37384         4.90297
     2018.79260        -2.11682         4.98364
     2018.79534        -0.22280         5.03653
     2018.79808        -9.66478         4.94779
     2018.80082         0.99323         4.94958
     2018.80355        -0.85375         4.85636
     2018.80629         0.53627         5.11541
     2018.80903        -4.09671         5.03205
     2018.81177        -7.55769         5.31081
     2018.81451        -3.32167         4.96930
     2018.81724        -5.02165         5.02756
     2018.81998        -2.44563         4.97110
     2018.82272         8.93738         4.96661
     2018.82546         7.71340         5.09927
     2018.82820        -2.97458         5.07866
     2018.83093        -4.73656         5.10824
     2018.83367        -5.86854         5.07597
     2018.83641         0.12748         5.17277
     2018.83915         0.15050         5.12795
     2018.84188        -7.51049         4.96034
     2018.84462         0.21753         5.13244
     2018.84736        -1.36545         5.00874
     2018.85010        -2.27743         5.05356
     2018.85284        -6.21641         5.07597
     2018.85557        -8.71439         5.07776
     2018.85831        -4.38537         5.01143
     2018.86105        -2.37135         4.89670
     2018.86379        -4.18034         5.12795
     2018.86653        -4.31332         4.99709
     2018.86926       -12.10230         5.09479
     2018.87200        -4.97928         5.00157
     2018.87474         0.81174         4.93524
     2018.87748        -1.17024         5.02308
     2018.88021        -3.69822         5.02308
     2018.88295        -2.39420         5.11361
     2018.88569         0.04581         5.10913
     2018.88843         2.08183         5.18711
     2018.89117         6.44085         5.15664
     2018.89390         7.49387         5.15753
     2018.89664        -1.02011         5.23193
     2018.89938        -1.28909         4.97110
     2018.90212        -5.11707         5.10555
     2018.90485         3.51295         5.23014
     2018.90759         2.20896         5.07238
     2018.91033         2.60298         5.10196
     2018.91307         7.21700         5.19518
     2018.91581         0.82502         5.12168
     2018.91854         4.26404         5.03384
     2018.92128         1.96306         5.08852
     2018.92402         0.11308         5.11092
     2018.92676         0.21810         5.10286
     2018.92950         2.10111         5.14678
     2018.93223        -0.15787         5.29019
     2018.93497        -1.89985         5.19518
     2018.93771        -4.43583         4.93883
     2018.94045         2.05119         5.21849
     2018.94318        -2.87579         5.08852
     2018.94592         6.65523         5.00426
     2018.94866         0.01825         5.10734
     2018.95140         2.07326         5.11899
     2018.95414        11.20728         5.15305
     2018.95687        -0.46670         4.89580
     2018.95961         5.57732         4.94779
     2018.96235         5.46334         5.05177
     2018.96509        -4.32964         5.07866
     2018.96783         2.39938         5.06521
     2018.97056         7.81740         5.10375
     2018.97330        -2.32159         5.02129
     2018.97604         2.89143         5.01502
     2018.97878        -0.31355         5.06431
     2018.98151       -17.54353         5.10555
     2018.98425       -18.31651         5.10644
     2018.99247       -22.19045         5.11630
     2018.99520        -0.99744         5.14230
     2018.99794        -5.72242         4.95407
     2019.00068        -7.25540         5.03742
     2019.00342        -1.74738         5.06611
     2019.00616        -3.90336         5.01771
     2019.00889        -1.46734         5.03294
     2019.01163        -1.09432         5.01502
     2019.01437         8.27770         4.89132
     2019.01711         9.05371         4.94421
     2019.01984        -4.25227         4.94510
     2019.02258        -2.66625         4.99709
     2019.02532        -1.85523         5.07328
     2019.02806         0.57779         5.04728
     2019.03080        -2.55619         5.06252
     2019.03353        -1.94217         4.93703
     2019.03627        -7.61515         5.00605
     2019.03901        -0.12714         5.05446
     2019.04175       -13.81012         5.10644
     2019.04449         4.42290         5.11541
     2019.04722        -1.74808         5.15933
     2019.04996        -5.26306         5.12885
     2019.05270        -1.24304         5.09031
     2019.05544       -16.66402         5.22117
     2019.05817       -14.37700         5.26061
     2019.06091        -6.92899         5.21221
     2019.06365         1.29503         5.07955
     2019.06639        -0.72695         5.11003
     2019.06913        -0.70593         5.15216
     2019.07186        -4.23891         4.98723
     2019.07460        -1.42389         5.01681
     2019.07734         3.97013         5.08762
     2019.08008         8.17115         4.92269
     2019.08282         1.32116         5.18980
     2019.08555         2.31318         5.09031
     2019.08829         5.83020         5.03025
     2019.09103         9.39022         4.88236
     2019.09377         4.12024         4.92628
     2019.09650         5.55726         5.04728
     2019.09924        -5.19872         5.08762
     2019.10198        -7.87870         5.03653
     2019.10472        -1.91069         4.98275
     2019.10746        -0.98267         4.91014
     2019.11019         3.04535         4.93614
     2019.11293         8.28737         5.17636
     2019.11567         7.14739         5.26241
     2019.11841        10.16241         5.08135
     2019.12115         8.61843         5.20235
     2019.12388        10.93445         5.01233
     2019.12662        12.20146         5.09120
     2019.12936        -0.15652         4.92628
     2019.13210        -1.00550         5.05714
     2019.13483         2.83752         5.02398
     2019.13757         1.02254         5.17905
     2019.14031         6.44856         5.09927
     2019.14305         4.01458         5.10824
     2019.14579         0.98360         5.07149
     2019.14852         3.00161         4.99440
     2019.15126        11.01463         5.12795
     2019.15400         5.51065         5.09389
     2019.15674         5.50767         5.09748
     2019.15948         1.75769         5.09479
     2019.16221        -1.76329         5.17188
     2019.16495        -0.62427         5.01681
     2019.16769        -4.30525         4.92000
     2019.17043        -0.42724         5.11361
     2019.17316        -1.29922         5.10106
     2019.17590        -8.78220         5.15305
     2019.17864         2.56782         5.10375
     2019.18138         3.16684         5.05446
     2019.18412       -18.65714         5.08672
     2019.18685       -12.70312         4.95675
     2019.18959         4.37690         5.11451
     2019.19233         3.37491         5.09479
     2019.19507        -3.39407         5.03294
     2019.19780        -2.81305         5.01771
     2019.20054        -2.22503         5.09031
     2019.20328        -6.90401         5.06700
     2019.20602        -3.23799         4.91373
     2019.20876        -3.31897         5.01502
     2019.21149        -7.71995         5.02667
     2019.21423        -1.13494         4.97647
     2019.21697        -4.04492         4.99261
     2019.21971        -2.16590         5.24538
     2019.22245       -14.44188         5.07597
     2019.22518       -10.44186         4.86712
     2019.22792         1.69116         5.05356
     2019.23066        -8.16982         5.12885
     2019.23340        -2.99680         5.14409
     2019.23613        -3.90879         5.14588
     2019.23887         2.63923         5.06790
     2019.24161         1.50325         5.14767
     2019.24435         0.04327         4.95407
     2019.24709        -1.03171         5.00067
     2019.24982         4.51531         5.05356
     2019.25256         0.56533         5.15574
     2019.25530        -1.74865         5.13602
     2019.25804         4.52036         5.09658
     2019.26078         7.22838         5.15216
     2019.26351        10.12240         5.01143
     2019.26625         1.98042         5.11720
     2019.26899        -0.02756         5.14678
     2019.27173         2.11146         5.31260
     2019.27446        -2.75152         4.91911
     2019.27720         0.31350         5.21131
     2019.27994         6.75951         5.06252
     2019.28268         7.22153         4.83127
     2019.28542         9.61455         5.08672
     2019.28815         2.04057         5.11541
     2019.29089        -0.51441         5.12347
     2019.29363        -1.51639         5.12347
     2019.29637         2.36163         5.23462
     2019.29911         9.00565         5.19249
     2019.30184         5.76866         4.91821
     2019.30458        -4.81132         5.17367
     2019.30732         0.51170         5.15664
     2019.31006         6.42572         5.17188
     2019.31279        -0.09226         5.17725
     2019.31553         9.15476         5.10465
     2019.31827         4.16878         5.09927
     2019.32101         6.00580         4.90387
     2019.32375        -4.24919         5.10734
     2019.32648         0.73883         5.11810
     2019.32922        -0.70615         4.91373
     2019.33196         1.60687         5.19428
     2019.33470         4.32689         5.05087
     2019.33744         3.83791         5.11272
     2019.34017         3.13293         4.93793
     2019.34291         5.64495         5.06431
     2019.34565         1.06096         5.21131
     2019.34839        -1.69702         5.12347
     2019.35112         1.14000         5.03115
     2019.35386         6.75402         5.01053
     2019.35660         7.56204         4.95138
     2019.35934         9.93606         4.90028
     2019.36208        -0.21092         5.04370
     2019.36481         7.17110         5.12706
     2019.36755         8.39811         5.01681
     2019.37029         7.47913         5.09031
     2019.37303        11.05015         4.98544
     2019.37577         6.26017         5.10644
     2019.37850        11.11119         4.93435
     2019.38124        11.54021         5.06431
     2019.38398        12.13023         5.06252
     2019.38672         5.40825         5.00964
     2019.38945        -1.76474         5.06073
     2019.39219         3.90028         5.30095
     2019.39493         9.11130         5.03025
     2019.39767        10.32932         4.97558
     2019.40041         3.92534         5.09569
     2019.40314         6.73136         5.09479
     2019.40588        11.12038         5.42644
     2019.40862         8.93240         5.06521
     2019.41136         7.71141         5.06431
     2019.41410         4.91043         5.06969
     2019.41683         1.57145         5.01681
     2019.41957         5.84447         5.15753
     2019.42231         5.49449         5.22566
     2019.42505         7.36151         5.01860
     2019.42778         7.27453         5.27047
     2019.43052        14.95055         5.11630
     2019.43326         3.63356         5.23731
     2019.43600         4.96358         4.94779
     2019.43874        -2.17940         5.18174
     2019.44147        -4.06538         5.16470
     2019.44421        -0.57136         5.21042
     2019.44695        -1.11234         5.27764
     2019.44969         0.57668         5.28481
     2019.45243         7.71470         5.14319
     2019.45516         2.70171         4.90566
     2019.45790         6.57173         5.15843
     2019.46064         1.16575         5.20683
     2019.46338         3.64877         5.50083
     2019.46611        10.45679         5.40492
     2019.46885         4.82281         5.19608
     2019.47159         7.06083         5.23283
     2019.47433         5.50985         4.97647
     2019.47707         6.44086         5.17905
     2019.47980         8.53488         5.20325
     2019.48254         8.36690         5.21400
     2019.48494        11.83304         5.97858
     2019.48844         0.28102         6.33712
     2019.49076         1.08496         5.11003
     2019.49349         5.37198         5.01143
     2019.49623         4.95100         5.11720
     2019.49897         2.18001         5.07776
     2019.50171         6.35603         5.06790
     2019.50444         2.51205         5.03025
     2019.50718         0.55507         5.09838
     2019.50992         6.40209         5.13781
     2019.51266         3.97111         4.94062
     2019.51540        10.30113         5.03653
     2019.51813         3.74515         5.06252
     2019.52087         0.30316         5.13154
     2019.52361        -4.00982         5.06880
     2019.52635         4.05720         4.99440
     2019.52908         4.14622         5.32246
     2019.53182         2.15124         5.16739
     2019.53456         3.86226         5.12347
     2019.53730         7.03228         5.19787
     2019.54004         6.67530         5.15484
     2019.54277         5.18731         5.11092
     2019.54551         0.43833         5.32425
     2019.54825         4.08035         5.07776
     2019.55099         2.74437         5.00247
     2019.55373        -1.79161         5.30812
     2019.55646         1.35841         5.16919
     2019.55920        -3.39957         5.30274
     2019.56194         4.62945         6.87671
     2019.56468        -0.11454         5.18980
     2019.56741        -1.51852         4.93345
     2019.57015        -3.03550         4.97199
     2019.57289         0.43752         5.18084
     2019.57563        -5.11046         5.17008
     2019.57837        -3.05444         5.15753
     2019.58110         1.61758         5.10555
     2019.58384        -6.18340         5.24000
     2019.58658        -1.92039         5.08314
     2019.58932         5.47963         4.97020
     2019.59206         4.48565         5.22207
     2019.59479        12.22467         5.13064
     2019.59753        -0.81531         5.29019
     2019.60027         4.27371         5.30184
     2019.60301        -3.26027         5.18532
     2019.60574         2.82575         5.32246
     2019.60848         1.01276         5.08403
     2019.61122        -6.09222         4.94241
     2019.61396        -3.56820         5.08135
     2019.61670         4.84282         4.99171
     2019.61943        -0.10916         5.02488
     2019.62217         1.67786         5.14230
     2019.62491         1.39288         4.98185
     2019.62765         0.73990         4.88236
     2019.63039         9.16491         5.08762
     2019.63312        -2.55807         4.99081
     2019.63586        -0.55105         5.04908
     2019.63860        -7.24303         5.40851
     2019.64407        -3.70899         5.00874
     2019.64681       -10.05397         4.91821
     2019.64955        -7.15395         5.00157
     2019.65229         0.25006         4.98633
     2019.65503        -6.81192         5.15664
     2019.65748        -6.29763         5.74912
     2019.66092        -1.32480         6.53969
     2019.66324       -10.63886         5.07686
     2019.66598        -6.88384         4.89043
     2019.66872        -2.88182         5.15484
     2019.67145        -1.68280         5.14678
     2019.67419        -6.54979         5.12347
     2019.67693        -4.60677         5.40223
     2019.67967       -12.60675         5.39506
     2019.68240        -5.77473         5.16381
     2019.68514        -3.46771         5.07507
     2019.68788        -3.81269         5.20773
     2019.69062        -3.54367         5.24000
     2019.69336       -10.20465         5.08493
     2019.69609        -3.19164         5.06700
     2019.69883        -6.34662         5.09658
     2019.70157        -5.46360         5.11989
     2019.70431         0.83842         4.86533
     2019.70705         1.27644         5.12078
     2019.70978        -4.05754         5.06969
     2019.71252         0.14448         5.16291
     2019.71526        -3.01850         5.02667
     2019.71800        -8.02449         5.31350
     2019.72073       -10.25547         5.29916
     2019.72347        -2.47545         4.89849
     2019.72621        -7.28743         5.05446
     2019.72895        -2.15141         5.09210
     2019.73169         4.73661         5.07328
     2019.73357         1.60343         8.05719
     2019.73758         1.63273         6.40165
     2019.73990         6.60466         5.34487
     2019.74264        -4.91732         4.98096
     2019.74538        -4.66930         4.92090
     2019.74811         1.39572         5.02488
     2019.75085         1.80974         5.17905
     2019.75359         0.31476         5.28302
     2019.75633        -3.21122         5.07686
     2019.75906        -3.34320         5.04101
     2019.76180        -1.21819         4.83037
     2019.76454        -0.26017         4.94421
     2019.76728        -1.13115         5.21042
     2019.77002         1.35487         5.18442
     2019.77275        -5.42411         5.25792
     2019.77549        -0.70909         5.17725
     2019.77823         2.09993         5.17725
     2019.78097         1.11995         4.96751
     2019.78371         1.50796         5.12527
     2019.78644        -1.48602         5.19697
     2019.78918        -3.70300         5.18084
     2019.79192         6.89702         5.11182
     2019.79466         4.80004         5.24000
     2019.79739         5.78406         5.20863
     2019.80013         0.82708         4.96482
     2019.80287         2.44709         5.25972
     2019.80561        -4.69589         5.15753
     2019.80835        -1.84587         5.09479
     2019.81108        -1.55585         5.11182
     2019.81382         0.81117         5.11003
     2019.81656         2.28419         5.16650
     2019.81930        -2.85879         4.97558
     2019.82203        -1.33077         5.14947
     2019.82477         0.48224         4.99530
     2019.82751        -3.74374         5.12168
     2019.83025        -1.58172         5.20056
     2019.83299         2.00230         5.17905
     2019.83572        -0.27668         5.06880
     2019.83846         5.24134         4.95855
     2019.84120         4.15036         5.07507
     2019.84394        -1.58062         5.20235
     2019.84668        -1.26061         5.09210
     2019.84941         2.76441         5.06880
     2019.85215         0.30343         5.14140
     2019.85489         2.46845         5.09569
     2019.85763         2.56747         5.09658
     2019.86036         1.09249         5.12258
     2019.86310        -2.95949         5.11092
     2019.86584         5.94653         5.25344
     2019.86858         6.26854         5.17994
     2019.87132         3.33156         5.23910
     2019.87405         3.97458         5.14588
     2019.87679        -1.40840         5.13423
     2019.87953         2.70962         5.00426
     2019.88227        13.10364         5.18980
     2019.88501         8.86366         5.15305
     2019.88774        10.62168         5.33770
     2019.89048        10.85169         5.12078
     2019.89322         6.74071         5.12527
     2019.89596         2.38473         4.96930
     2019.89869         8.33575         5.22745
     2019.90143         8.21077         5.20952
     2019.90417         8.63979         5.12078
     2019.90691         5.68181         5.09031
     2019.90965         8.06483         5.02488
     2019.91238         7.16784         5.07686
     2019.91512        -2.23114         5.02846
     2019.91786        15.67988         5.08762
     2019.92060         8.42090         5.05266
     2019.92334         6.78392         5.06611
     2019.92607         6.93294         5.00874
     2019.92881         0.41996         4.94958
     2019.93155        10.24398         5.07238
     2019.93429         9.51599         4.92090
     2019.93702        -0.45299         4.90387
     2019.93976         2.79203         4.86533
     2019.94250        -1.56595         4.93345
     2019.94524        -2.97293         4.92269
     2019.94798        -4.81891         4.94152
     2019.95071        -0.16089         5.21849
     2019.95345         3.99013         4.90297
     2019.95619         1.52714         4.94241
     2019.95893        -0.54684         4.91642
     2019.96167         4.35918         4.91552
     2019.96440         5.45620         5.08045
     2019.96714        -0.45878         5.08941
     2019.96988         0.01224         4.91732
     2019.97262         4.75626         4.92807
     2019.97535         4.59028         4.97737
     2019.97809        -1.29871         4.94689
     2019.98083         1.70031         4.99888
     2019.98357        -2.44867         4.97199
     2019.98631         2.13935         4.91463
     2019.98904         0.17137         4.93524
     2019.99178         1.26939         4.91104
     2019.99452         3.29041         4.99081
     2019.99726         1.57643         5.04460
     2020.00000         2.99844         5.06611
     2020.00273         5.85246         5.01681
     2020.00547        -1.10952         5.07059
     2020.00821         5.29050         5.09658
     2020.01095         1.53152         5.04280
     2020.01368        -0.64946         5.11989
     2020.01642        -0.12144         5.07776
     2020.01916         1.27458         5.01681
     2020.02190         2.73959         5.10286
     2020.02464        -3.27739         5.15664
     2020.02737         1.00363         5.15216
     2020.03011         7.50265         4.91911
     2020.03285        -1.70733         5.02129
     2020.03559         2.93169         4.89670
     2020.03833         3.29671         4.86353
     2020.04106         1.41073         5.00067
     2020.04380         1.16974         5.00067
     2020.04654        -2.74724         4.89311
     2020.04928        -5.44722         4.85188
     2020.05201         3.37380         4.84471
     2020.05475         2.41682         4.86981
     2020.05749         1.69684         4.84292
     2020.06023         2.09286         4.81513
     2020.06297         3.37888         4.78555
     2020.06570         1.99189         4.87429
     2020.06844         1.80691         4.78555
     2020.07118         8.81693         4.84561
     2020.07392         3.85495         4.87877
     2020.07666        -1.41003         4.91104
     2020.07911         0.40726         5.60750
     2020.08255         0.81609         5.65769
     2020.08487        -2.63197         4.93255
     2020.08761         3.89204         4.85009
     2020.09034         3.92506         4.88146
     2020.09308         0.36308         4.91821
     2020.09582        -2.09390         4.90118
     2020.09856        -7.14188         4.88953
     2020.10130         3.11114         4.88505
     2020.10403        -4.58884         5.01681
     2020.10677        -1.87282         4.88325
     2020.10951        -3.22081         4.96392
     2020.11225        -0.51179         4.89401
     2020.11498         0.30923         4.86622
     2020.11772        -3.10575         4.97468
     2020.12046        -5.73573         5.11630
     2020.12320        -5.04071         4.91642
     2020.12594         1.57931         4.89760
     2020.12867        -2.80567         4.93883
     2020.13141         0.84334         4.88684
     2020.13415         0.62036         4.92359
     2020.13689         1.83438         5.03025
     2020.13963         4.79540         5.09927
     2020.14236         5.01442         4.88505
     2020.14510         7.10844         4.95944
     2020.14784        -0.52354         4.99530
     2020.15058        -1.34652         5.00426
     2020.15331        -5.69851         4.97737
     2020.15605        -1.80349         4.93793
     2020.15879        -0.53847         4.94152
     2020.16153         3.11755         5.00874
     2020.16427         2.13557         4.85905
     2020.16700         1.16059         4.98096
     2020.16974         3.74361         4.93166
     2020.17248         4.91663         4.93076
     2020.17522         2.58364         4.90118
     2020.17796         0.45866         4.92449
     2020.18069         2.49268         4.92000
     2020.18343         1.81270         4.83216
     2020.18617        -0.37128         4.96213
     2020.18891         1.28774         5.04908
     2020.19113         1.78544         6.61767
     2020.19438         1.58978         5.20863
     2020.19712         5.35079         5.05714
     2020.19986         6.53281         5.02308
     2020.20260         7.78083         5.03474
     2020.20533        -1.82415         5.03563
     2020.20807         2.52487         5.05983
     2020.21081         2.19389         5.01322
     2020.21355         0.27691         5.51517
     2020.21629         4.12393         5.26330
     2020.21902         2.08794         5.12168
     2020.22176         2.88196         4.99709
     2020.22450        10.60298         5.07955
     2020.22724         2.99100         4.96751
     2020.22997         7.01202         4.93883
     2020.23271         3.72504         4.98902
     2020.23545         6.67006         5.02219
     2020.23819         3.26508         4.99799
     2020.24093         3.51209         4.94958
     2020.24366         5.43211         5.02039
     2020.24640         8.01713         5.06252
     2020.24914        -0.70485         5.06790
     2020.25188        -1.34283         5.02129
     2020.25462         3.11019         5.00426
     2020.25735         3.17521         5.00067
     2020.26009        11.45723         4.98723
     2020.26283         7.81724         5.05087
     2020.26557         5.01326         4.98902
     2020.26830         3.00828         4.95586
     2020.27104         7.94130         4.97916
     2020.27378         0.41532         4.94869
     2020.27652         4.75634         5.09569
     2020.27926         8.46036         5.01591
     2020.28199         4.41338         5.01412
     2020.28473        -0.99761         4.98096
     2020.28747        -0.29559         5.02667
     2020.29021        -1.02957         5.08672
     2020.29295         2.49345         5.01950
     2020.29568         8.81547         4.99171
     2020.29842         8.32749         5.00695
     2020.30116        10.08951         4.98992
     2020.30390         5.32153         5.02308
     2020.30663         2.48654         5.05266
     2020.30937         9.67556         5.14588
     2020.31211         3.56358         5.05714
     2020.31485        -2.75940         5.07059
     2020.31759         4.89962         4.90297
     2020.32032         2.15164         4.94421
     2020.32306         4.73866         4.97737
     2020.32580         3.63168         4.99530
     2020.32854        -0.36131         5.09569
     2020.33128         0.81871         4.93703
     2020.33401         2.21673         4.99261
     2020.33675        11.15675         4.98902
     2020.33949         3.99877         4.96124
     2020.34223         0.85379         5.13064
     2020.34496         2.16981         5.01233
     2020.34770         0.22783         4.95944
     2020.35044         5.82284         5.02129
     2020.35318         1.47786         5.07686
     2020.35592         4.85288         5.05266
     2020.35865         4.68390         4.92538
     2020.36139         1.62392         5.02846
     2020.36413        -1.30406         4.94600
     2020.36687         8.23796         5.03205
     2020.36961         5.37998         5.00336
     2020.37234         3.15499         4.97827
     2020.37508         8.39201         4.99350
     2020.37782         5.77603         4.98633
     2020.38056        -3.74295         4.94510
     2020.38329         2.51007         4.97020
     2020.38603         2.09109         4.98275
     2020.38877         2.73811         5.08403
     2020.39151        -1.89387         4.93793
     2020.39425         1.67314         4.92717
     2020.39698         0.13316         4.97289
     2020.39972        -0.08382         4.96841
     2020.40246        -2.02980         4.95855
     2020.40491         0.25449         5.42375
     2020.40836        -8.61268         6.08704
     2020.41067         6.95326         5.00067
     2020.41341         2.82228         4.91373
     2020.41615        -0.67071         4.93435
     2020.41889        -1.87669         4.85547
     2020.42162        -7.38267         4.97020
     2020.42436         1.20735         5.10913
     2020.42710         6.14937         5.14230
     2020.42984        -3.54561         5.07686
     2020.43258         3.92541         4.97199
     2020.43531        -1.91657         5.01681
     2020.43805         1.62944         5.04639
     2020.44079        -1.14254         5.04818
     2020.44273         2.07845         7.60992
     2020.44669        -9.14242         5.90329
     2020.44900         1.74152         4.90028
     2020.45174        -3.18546         4.94689
     2020.45448         0.18356         4.99530
     2020.45722         1.49258         4.95227
     2020.45995         2.12759         4.88863
     2020.46269        -2.09939         4.85726
     2020.46543         0.15563         4.87429
     2020.46817         0.28265         4.93972
     2020.47091         6.25867         4.85457
     2020.47364         7.31569         4.86891
     2020.47638         5.84771         4.85995
     2020.47912        -4.51827         4.91552
     2020.48186        -6.60926         4.92090
     2020.48459         0.96276         4.96034
     2020.48733         2.61778         5.06163
     2020.49007         2.08680         5.05983
     2020.49281         0.90382         4.98454
     2020.49555         2.77584         4.98275
     2020.49828         1.22086         4.88594
     2020.50102         0.37588         4.87877
     2020.50376         0.49189         4.88146
     2020.50650        -4.81509         5.00157
     2020.50924        -3.38207         4.81603
     2020.51197        -1.38905         4.82320
     2020.51471        -3.28503         5.00874
     2020.51745        -1.95101         4.90208
     2020.52019         1.89901         5.10106
     2020.52292        -4.29397         5.06700
     2020.52566         0.28304         5.12975
     2020.52840         4.53506         4.98544
     2020.53114        -3.39992         5.04997
     2020.53388         1.41310         5.05983
     2020.53661        -1.15088         5.00605
     2020.53935        -4.97086         5.06163
     2020.54209         7.65916         5.12795
     2020.54483        -0.43582         5.08941
     2020.54757        -1.41281         5.07059
     2020.55030        -3.65179         5.06880
     2020.55304        -1.55277         5.07417
     2020.55578        11.14125         5.21669
     2020.55852         6.47227         5.05087
     2020.56125         4.13829         5.11810
     2020.56399         2.90331         5.07238
     2020.56673         2.57433         4.97110
     2020.56947         3.06534         5.02039
     2020.57221         3.73136         5.14319
     2020.57494        -1.27762         5.05714
     2020.57768         0.44240         5.03205
     2020.58042        -3.65858         5.01681
     2020.58316        -6.45856         5.02039
     2020.58590         2.12546         5.00695
     2020.58863        -1.37952         5.06880
     2020.59137        -1.95851         5.08403
     2020.59411         7.63751         5.01950
     2020.59685         5.29153         5.10106
     2020.59958        -2.14345         5.11182
     2020.60232         1.37057         4.98454
     2020.60506        -1.26141         4.97647
     2020.60780         0.26061         5.03025
     2020.61054         2.41163         5.07597
     2020.61327         8.46464         5.11810
     2020.61601        -2.09134         5.02308
     2020.61875        -4.31132         4.99261
     2020.62109        -2.98832         6.14888
     2020.62696        -3.58526         5.26061
     2020.62970        -4.65124         5.25703
     2020.63244         0.61978         5.14409
     2020.63518         2.08879         5.10555
     2020.63791        -5.19319         5.14678
     2020.64065         0.34283         5.09389
     2020.64339        -6.34315         5.08941
     2020.64613        -5.06913         5.07686
     2020.64887        -4.37611         5.17188
     2020.65160        -2.65009         5.07776
     2020.65434        -0.84507         5.07059
     2020.65708         6.49094         5.12616
     2020.65982        -1.47404         5.01143
     2020.66256        -3.72402         5.02219
     2020.66529         2.88400         5.02756
     2020.66803        -3.03598         5.09210
     2020.67077         5.31104         5.00247
     2020.67351        -1.01694         5.01591
     2020.67624        -2.66492         4.98544
     2020.67898        -9.00291         5.03294
     2020.68172        -5.02689         5.03563
     2020.68446        -8.51387         5.14140
     2020.68720         2.50315         5.07417
     2020.68993         0.05017         5.02846
     2020.69267        -3.13781         5.14499
     2020.69541        -6.21479         5.29198
     2020.69815        -4.90277         5.13244
     2020.70089        -2.14076         4.98813
     2020.70362        -8.62674         5.10017
     2020.70636        -8.05472         5.26241
     2020.70910        -8.56970         5.24358
     2020.71184        -3.46368         5.10555
     2020.71457         1.12734         5.16291
     2020.71731        -2.33164         5.11092
     2020.72005        -6.59862         5.12437
     2020.72279        -2.03561         5.04549
     2020.72553         0.56941         5.31260
     2020.72826        -7.08757         5.24089
     2020.73100         0.92145         5.17277
     2020.73374         2.92447         5.14678
     2020.73648         0.58149         5.07507
     2020.73921        -4.50949         4.99081
     2020.74195        -2.20247         4.99888
     2020.74469        -0.88746         5.04280
     2020.74743        -5.38244         5.03922
     2020.75017        -4.94342         5.08224
     2020.75290        -4.24640         5.09838
     2020.75564        -2.28338         5.08135
     2020.75838        -4.34436         4.93883
     2020.76112        -8.30434         5.00785
     2020.76386        -5.12733         4.99081
     2020.76659        -3.46631         4.95496
     2020.76933         1.60371         5.02308
     2020.77207         1.86973         4.98544
     2020.77481        -2.12525         4.99530
     2020.77754        -2.97923         4.96482
     2020.78028         0.15679         5.02039
     2020.78302         1.84381         4.99081
     2020.78576        -2.96318         5.09120
     2020.78850        -2.65216         4.99619
     2020.79123        -8.55614         5.03832
     2020.79397        -5.69612         4.96124
     2020.79671        -4.01810         4.92807
     2020.79945        -9.53208         5.00336
     2020.80219        -5.84806         5.04728
     2020.80492        -2.84904         4.98454
     2020.80766        -3.17103         5.09031
     2020.81040        -4.94201         5.03832
     2020.81314         1.29701         5.07149
     2020.81587        -8.71597         4.99799
     2020.81861         1.67405         5.00247
     2020.82135         0.50707         5.09210
     2020.82409        -2.56191         5.08762
     2020.82683        -6.12589         5.04728
     2020.82956        -1.95288         5.11899
     2020.83230        -0.02786         5.20056
     2020.83504        -1.42784         5.03205
     2020.83778        -1.95582         5.00426
     2020.84052        -1.15580         4.96213
     2020.84325       -10.45778         5.09658
     2020.84599        -6.84876         5.21490
     2020.84873        -3.25674         5.05087
     2020.85147         3.78427         5.03205
     2020.85694         1.19031         5.09479
     2020.85968         2.64533         5.07776
     2020.86242         7.14835         5.08135
     2020.86516         5.85337         5.11361
     2020.86789         5.11539         5.15216
     2020.87063         3.04341         5.07238
     2020.87337        10.27442         5.01143
     2020.87611         9.87244         5.19787
     2020.87885         3.96646         5.16829
     2020.88158         8.04548         5.17725
     2020.88432         6.42650         4.99709
     2020.88706        -1.49448         5.19697
     2020.88980        -5.16646         5.04908
     2020.89253         0.34856         4.93076
     2020.89527         5.52857         5.10196
     2020.89801         4.11059         5.15216
     2020.90075         0.73261         5.00964
     2020.90349         1.65663         5.03653
     2020.90622        -1.91735         4.99261
     2020.90896        -1.47433         5.08314
     2020.91170        -0.45231         5.11810
     2020.91444         3.07971         4.97737
     2020.91718        -0.85128         4.92986
     2020.91991        -2.77626         4.99440
     2020.92168        -5.59072         9.24125
     2020.92585        -5.48005         5.97141
     2020.92813        -8.11420         4.90746
     2020.93086       -10.03118         4.92986
     2020.93360        -8.10616         4.98813
     2020.93634        -2.39314         5.02039
     2020.93908        -3.12513         4.99709
     2020.94182        -5.11511         4.98006
     2020.94455        -5.02209         4.95944
     2020.94729       -10.98007         5.01950
     2020.95003        -9.48405         5.07328
     2020.95277       -13.26203         5.05625
     2020.95551       -10.67501         5.12885
     2020.95824        -9.99199         5.05087
     2020.96098        -0.04398         4.95227
     2020.96372        -6.17596         5.09569
     2020.96646        -2.31594         5.17008
     2020.96919         2.95908         5.10106
     2020.97193       -12.39890         4.97468
     2020.97467         0.68312         5.10286
     2020.97741        -8.81586         5.01681
     2020.98015        -4.15384         5.21400
     2020.98288        -9.14783         5.14319
     2020.98562         1.09519         4.99619
     2020.98836         0.60021         4.86622
     2020.99110         0.13023         4.88863
     2020.99384         0.13925         4.91911
     2020.99657        -1.61073         5.01502
     2020.99931         3.80029         4.95138
     2021.00205        -2.42269         4.92359
     2021.00479         8.22632         4.95586
     2021.00752         4.61334         4.85457
     2021.01026         7.38036         4.94510
     2021.01300         5.57238         4.96841
     2021.01574         7.83540         4.98275
     2021.01848         0.48242         4.90746
     2021.02121        -0.22656         4.90566
     2021.02395        -0.55654         4.88684
     2021.02669        -0.27553         4.88325
     2021.02943         1.46249         4.97020
     2021.03216        -5.19449         4.94779
     2021.03450        11.38351         6.08614
     2021.04038        -0.78943         5.00067
     2021.04312        -0.39741         5.02308
     2021.04585        -1.64039         4.96661
     2021.04859        -2.14738         4.95765
     2021.05133         7.04564         4.97737
     2021.05407         4.07166         5.25165
     2021.05681        -0.99132         5.17098
     2021.05954         0.21570         5.02756
     2021.06776         7.09976         5.01502
     2021.07049         2.91677         4.99888
     2021.07323         0.52379         5.02219
     2021.07597       -14.73019         5.01771
     2021.07871        -6.67717         5.05714
     2021.08145        -2.32115         4.93883
     2021.08418       -12.63113         4.93972
     2021.08692        -1.88211         5.00157
     2021.08966        -3.10709         5.02936
     2021.09502        -8.79435         5.43450
     2021.09830        -6.59594         6.06821
     2021.10061         0.41298         4.96930
     2021.10335        -0.89200         5.00516
     2021.10609        -3.80898         5.03474
     2021.10882        -1.18396         5.02398
     2021.11156        -4.39094         4.99709
     2021.11430       -10.74593         5.00785
     2021.11704        -2.66691         5.03563
     2021.11978         6.46111         5.01412
     2021.12251        -1.13187         4.94241
     2021.12525        -9.08085         5.09210
     2021.12799         2.21317         5.03653
     2021.13073        -1.47881         4.98633
     2021.13347       -10.61479         5.13423
     2021.13620         0.14622         5.09748
     2021.13894        -2.79976         5.04011
     2021.14168        -7.60174         4.92449
     2021.14442        -3.45672         4.99619
     2021.14715        -2.59370         5.10824
     2021.14989        -1.92168         5.03742
     2021.15166        -3.77115        10.42980
     2021.16358         0.84141         5.03653
     2021.16632         3.48743         5.08403
     2021.16906         3.24945         4.94421
     2021.17172        -5.75573         5.16560
     2021.17496         4.11058         5.72761
     2021.17727        -1.15649         5.07507
     2021.18001         0.20452         4.98544
     2021.18275        -2.60246         5.22386
     2021.18548        -2.53844         5.01233
     2021.18822        -0.44642         4.98096
     2021.19096        -0.40940         4.89939
     2021.19370        -8.27738         4.96124
     2021.19644        -5.60836         4.93972
     2021.19917        -2.82234         4.89670
     2021.20191        -3.03333         4.93345
     2021.20465         4.63069         4.89132
     2021.20739        -0.09929         4.89222
     2021.21013         6.25973         5.03832
     2021.21286         6.24375         5.06521
     2021.21560        -0.11623         4.91821
     2021.21834        -2.19721         4.89132
     2021.22108        -1.18319         4.88774
     2021.22381         0.41282         4.91821
     2021.22655         0.66584         4.92090
     2021.22929         5.88886         4.87429
     2021.23203         2.93988         4.91104
     2021.23477        -6.00110         4.87250
     2021.23750        -3.48508         4.98992
     2021.24024         4.65994         4.94779
     2021.24298         3.35596         4.92986
     2021.24572        -2.23003         4.89222
     2021.25085         2.73813         5.88715
     2021.25393         0.46103         4.96841
     2021.25667         2.39105         4.94958
     2021.25941         4.16507         4.95317
     2021.26214         4.80009         4.86174
     2021.26488         3.92111         4.94062
     2021.26762         6.75112         4.96930
     2021.27036         3.79014         4.94241
     2021.27310         5.61016         4.88863
     2021.27583         3.24118         4.82141
     2021.27857         0.55720         5.00516
     2021.28131         3.62122         4.96930
     2021.28405         5.80624         4.99709
     2021.28679         5.36326         4.95138
     2021.28952         7.32927         4.95048
     2021.29226         0.96329         4.98544
     2021.29500         7.99931         4.96034
     2021.29774         8.37133         5.11810
     2021.30047         4.82035         5.02219
     2021.30321         7.07437         5.00785
     2021.30595         9.35139         5.16202
     2021.30869        14.12541         5.16022
     2021.31143        10.33542         5.23462
     2021.31416        17.87744         4.88774
     2021.31690         6.97346         4.91373
     2021.31964         1.28248         5.02308
     2021.32238         3.58050         5.08224
     2021.32498        -5.34182         5.08224
     2021.32828         0.21663         5.97589
     2021.33059         5.00856         4.94958
     2021.33333        14.77157         4.87698
     2021.33607         4.92659         4.89939
     2021.33880         1.74361         4.89401
     2021.34154         1.91263         4.86981
     2021.34428        -3.07435         5.00336
     2021.34702         0.96167         4.99709
     2021.34976         1.55169         4.89760
     2021.35249         0.77971         4.88146
     2021.35523         1.27172         4.90297
     2021.35797        -1.13926         4.89939
     2021.36071         0.44576         4.88057
     2021.36344         3.46578         4.91014
     2021.36618        -5.96020         4.98185
     2021.36892        -7.99118         5.01053
     2021.37166        -2.39416         4.88415
     2021.37440        -1.71814         4.99261
     2021.37616         7.92739         8.92485
     2021.37987         4.61589         5.08045
     2021.38261       -13.63109         5.32246
     2021.38535        -1.69007         5.11092
     2021.38809         1.84495         5.05894
     2021.39082         5.07697         4.88953
     2021.39356        -1.43301         5.04280
     2021.39630        -2.25699         5.05894
     2021.39904        -2.54898         5.01322
     2021.40177         1.45904         5.05087
     2021.40451        -2.38594         5.05625
     2021.40725        -1.32392         4.97827
     2021.40999         0.98710         4.92359
     2021.41273         0.73412         4.94241
     2021.41546         0.14414         4.95496
     2021.41820        -1.99984         4.92359
     2021.42094        -2.72683         4.99261
     2021.42368         5.29219         5.02219
     2021.42642        -1.81179         5.04639
     2021.42915         1.66423         4.98902
     2021.43189         7.52025         4.93793
     2021.43463        -1.27273         5.02756
     2021.43737        -3.76771         4.95675
     2021.44010        -0.25969         5.01860
     2021.44284        -7.97268         5.13781
     2021.44558        -6.13466         5.19070
     2021.44832        -3.87764         5.07866
     2021.45106         5.20938         5.13064
     2021.45379        -1.97060         5.25703
     2021.45653        -5.46158         5.07955
     2021.45927         1.02144         4.99709
     2021.46201        -2.86254         4.94689
     2021.46475        -4.80553         5.05983
     2021.46748        -3.44051         5.07328
     2021.47022         4.16351         5.04549
     2021.47296        14.91053         5.29916
     2021.47570        -1.64145         5.10913
     2021.47843         2.72057         5.18353
     2021.48117       -11.17041         5.19339
     2021.48391        -5.25439         5.06163
     2021.48665        -3.88138         4.97916
     2021.48939        -4.08636         5.08135
     2021.49212         5.91066         5.00426
     2021.49486         1.80468         5.03922
     2021.49760         2.42370         5.24896
     2021.50034         2.48172         5.23552
     2021.50308        -3.51626         5.34577
     2021.50581         1.17376         5.14409
     2021.50855        -3.31423         5.23820
     2021.51129        -1.28521         5.12258
     2021.51403        -0.48319         5.16291
     2021.51676        -3.64417         5.05894
     2021.51950         0.21285         5.17994
     2021.52224        -6.22813         5.06431
     2021.52498        -0.42811         5.04639
     2021.52772        -1.44809         5.06969
     2021.53045        -1.06508         5.07059
     2021.53319        -4.97006         5.06611
     2021.53593        -3.04904         5.11092
     2021.53867         6.79198         5.42375
     2021.54141        -3.39000         5.16650
     2021.54414        -7.79198         5.15933
     2021.54688        -9.87596         5.11092
     2021.54962        -8.63194         5.06342
     2021.55509        -0.20391         5.03115
     2021.55783        -6.29989         5.09748
     2021.56057        -0.10787         5.04280
     2021.56331        -2.45385         5.11003
     2021.56605         0.30817         5.06880
     2021.56878        -1.14881         4.99799
     2021.57152       -10.39279         5.02846
     2021.57426        -4.81278         5.03384
     2021.57700         2.46824         5.15933
     2021.57974        -7.47174         5.02846
     2021.58247       -17.35572         5.03294
     2021.58521        -6.38770         5.14857
     2021.58795       -12.71268         5.18980
     2021.59069        -9.66366         5.15664
     2021.59342        -1.58264         5.18442
     2021.59616       -11.73663         5.20863
     2021.59890        -7.37761         5.09658
     2021.60164        -4.80759         5.05714
     2021.60438        -2.02157         5.07238
     2021.60711        -5.46555         5.11989
     2021.60985        -2.39453         5.08583
     2021.61259         3.16449         5.19249
     2021.61533        -9.60449         5.10555
     2021.61807        -7.36048         5.11092
     2021.62080        -4.39546         4.97916
     2021.62354        -3.65044         5.11899
     2021.62628        -4.27542         5.18084
     2021.62902        -8.68540         5.07866
     2021.63175        -9.94838         5.16650
     2021.63449        -9.74836         5.01681
     2021.63723        -1.24134         5.24179
     2021.63997        -2.04433         5.07238
     2021.64271        -3.58231         5.10824
     2021.64544        -2.94729         4.98544
     2021.64818        -5.20227         5.01053
     2021.65092        -3.26225         4.98544
     2021.65366        -3.66623         5.10465
     2021.65639        -6.23721         5.03025
     2021.65913        -8.86119         4.94779
     2021.66187         0.25782         4.98633
     2021.66461        -1.45016         4.97289
     2021.66735         3.33586         4.98096
     2021.67008        -2.16412         5.09120
     2021.67282        -1.26810         5.19697
     2021.67556        -1.82708         5.31977
     2021.67830        -4.94506         5.04728
     2021.68104        -2.85404         4.98902
     2021.68377         1.04497         5.00426
     2021.68651        -5.63301         5.03115
     2021.68925        -5.93399         5.06790
     2021.69199         2.19203         5.25613
     2021.69472        -6.48495         4.98275
     2021.69746        -6.12693         4.98992
     2021.70020        -9.61291         5.00785
     2021.70294        -5.30089         5.00336
     2021.70568        -3.38288         5.01681
     2021.70841        -1.75086         5.06880
     2021.71115        -2.64184         5.04997
     2021.71389         1.44018         5.27854
     2021.71663        -7.79380         5.06342
     2021.71937        -6.68978         5.06611
     2021.72210        -8.37676         5.01681
     2021.72484        -2.71175         5.04370
     2021.72758        -3.33773         5.02936
     2021.73032        -9.16271         5.37893
     2021.73305        -1.14469         5.08583
     2021.73579         2.52633         4.99440
     2021.73853         1.58135         5.07597
     2021.74127        -0.37263         5.01143
     2021.74401        -3.94861         4.95675
     2021.74674        -2.07460         4.97289
     2021.74948        -2.88458         5.02219
     2021.75222        -1.84856         5.01681
     2021.75496        -0.45654         4.94869
     2021.75770        -5.53952         5.01053
     2021.76043         2.31950         5.04280
     2021.76317        -6.85148         5.00695
     2021.76591        -0.31746         5.02667
     2021.76865        -1.13145         5.01143
     2021.77138        -0.37443         4.97378
     2021.77412        -3.52541         5.10286
     2021.77686        -6.36639         5.05894
     2021.77960         3.81063         5.01322
     2021.78234         0.54965         5.02398
     2021.78507         2.88867         4.99888
     2021.78781         1.19569         5.07776
     2021.79009         0.41254         6.17846
     2021.79603        -1.11826         5.06252
     2021.79876        -2.15124         5.02129
     2021.80150         2.90678         5.11989
     2021.80424        -5.28920         5.23014
     2021.80698       -10.12618         5.05983
     2021.80971        -3.95316         4.91014
     2021.81245        11.76985         5.08852
     2021.81519         8.39087         4.93255
     2021.81793         7.34189         5.01502
     2021.82067        -5.43409         5.13513
     2021.82340        -7.57107         5.03653
     2021.82614        -7.49105         5.05087
     2021.82888         1.72497         5.06521
     2021.83162         3.41699         5.02936
     2021.83436         7.45700         5.06163
     2021.83709         0.30102         5.14319
     2021.83983       -11.79096         5.04460
     2021.84234         1.35748         5.65321
     2021.84531         1.25108         5.01771
     2021.84804         0.40510         5.10644
     2021.85078        -0.57188         4.99440
     2021.85352        -3.52586         4.98544
     2021.85626         0.20015         4.95765
     2021.85900         5.01817         4.97647
     2021.86173        -3.37881         4.95855
     2021.86447        -8.84379         5.12258
     2021.86721        -7.92777         5.21042
     2021.86995        -6.97475         5.15664
     2021.87269        -5.40173         5.08224
     2021.87542        -3.16071         5.08941
     2021.87816        -7.86270         4.98006
     2021.88090        -4.50768         5.02936
     2021.88364        -2.82566         5.00157
     2021.88637        -7.93264         4.90477
     2021.88911        -8.15562         4.87967
     2021.89185        -9.28160         4.93614
     2021.89459        -5.35358         4.99619
     2021.89733        -7.97456         4.97378
     2021.90006       -10.90555         4.93524
     2021.90280       -10.93153         4.93524
     2021.90554        -6.02851         5.03474
     2021.90828        -4.00849         4.92897
     2021.91102        -2.48447         5.03115
     2021.91375        -5.27645         4.98006
     2021.91649        -4.28543         4.98813
     2021.91923        -1.95541         5.07955
     2021.92197        -6.08140         5.27316
     2021.92470       -14.07138         5.11810
     2021.92744         0.53864         5.13244
     2021.93018        -6.41034         5.11361
     2021.93292         1.38468         5.16919
     2021.93566         9.95670         5.27227
     2021.93839         2.29372         5.19070
     2021.94113         4.70774         5.29467
     2021.94387         6.11875         5.12347
     2021.94661         3.61277         5.08493
     2021.94935         8.95479         5.11361
     2021.95208        -4.91619         5.11361
     2021.95482        -4.76117         5.99471
     2021.95756        -9.90915         5.21759
     2021.96303       -16.28511         5.19428
     2021.96577        -9.40610         5.16829
     2021.96851         1.00192         5.18174
     2021.97193         8.20170         7.60364
     2021.97399        -1.83204         5.25165
     2021.97672        10.62998         5.21490
     2021.97946         8.72700         5.22028
     2021.98220         7.33002         5.16650
     2021.98494        10.32804         5.13602
     2021.98767         0.16205         5.20683
     2021.99041         3.02307         5.09300
     2021.99315         3.38809         5.08672
     2021.99589         5.91211         5.13602
     2021.99863         1.18213         5.06969
     2022.00136        -0.43485         5.10824
     2022.00410        -4.05083         5.08852
     2022.00684        -7.96081         5.17008
     2022.00958        -1.67680         5.19249
     2022.01232        -7.65578         5.19159
     2022.01505         5.50524         5.28213
     2022.01779        11.59026         5.27854
     2022.02053         3.89328         5.13871
     2022.02327        -0.74070         5.43988
     2022.02600        -9.81268         5.24806
     2022.02874        -9.07266         5.16919
     2022.03148       -10.14865         5.12795
     2022.03422        -6.84663         5.10913
     2022.03696        -8.53061         5.06431
     2022.03969       -12.50659         5.07507
     2022.04243        -3.79557         5.02667
     2022.04517        -4.82455         5.06969
     2022.04791        -7.60953         5.09389
     2022.05065         0.40049         5.09031
     2022.05338        -3.16150         5.06790
     2022.05612       -13.06348         5.08672
     2022.05886       -14.40846         5.14857
     2022.06160       -12.40644         5.08403
     2022.06433        -5.61642         5.10286
     2022.06707        -9.50940         5.11899
     2022.06981        -1.54638         5.10734
     2022.07255        -6.46736         5.02667
     2022.07529        -4.68235         5.00336
     2022.07802        -3.32533         5.08493
     2022.08076         1.96769         4.99081
     2022.08350        -0.38829         5.10824
     2022.08624        -0.88827         5.02219
     2022.08898        -2.60125         5.03294
     2022.09144        -2.29194         5.74464
     2022.09488        -9.81312         5.89253
     2022.09719        -5.10020         4.96751
     2022.09993        -6.33818         5.08852
     2022.10266        -9.78216         5.14499
     2022.10540        -1.99814         5.15664
     2022.10814         0.62988         5.05446
     2022.11088         3.53990         4.98633
     2022.11362         1.59392         4.96930
     2022.11635         1.75694         5.00247
     2022.11909        -3.93505         4.96034
     2022.12183         5.47197         5.04639
     2022.13278        -3.87495         4.98633
     2022.13552        -3.13493         4.96572
     2022.13826         2.85709         4.96213
     2022.14099         0.38410         4.97020
     2022.14373        -1.98488         4.95317
     2022.14647         1.64414         5.00785
     2022.14921         2.96416         5.19697
     2022.15195        -0.08382         5.22745
     2022.15468        -0.17480         4.98813
     2022.15742         0.98422         4.96034
     2022.16016        -7.03176         5.01591
     2022.16290         0.16225         5.08403
     2022.16564         0.34727         5.00874
     2022.16837         6.31029         4.97289
     2022.17111        -0.50169         4.99350
     2022.17385         4.27333         5.00785
     2022.17659        -2.85065         4.98275
     2022.17932        -2.83763         4.96392
     2022.18206        -2.63061         4.97289
     2022.18480         2.54140         4.97199
     2022.18754         3.98642         5.09120
     2022.19028         1.43244         5.05266
     2022.19301         3.96646         4.97558
     2022.19575        11.46248         4.98633
     2022.19849        -2.26950         4.96841
     2022.20123         4.24852         5.01860
     2022.20397        10.15054         5.01860
     2022.20670         0.91155         5.15484
     2022.20944         1.28457         5.18801
     2022.21218         4.44459         5.11092
     2022.21492         1.02061         5.04280
     2022.21765        -0.20237         5.03742
     2022.22039        -0.37935         5.00516
     2022.22313        -3.14833         5.09300
     2022.22587        -2.73231         5.16470
     2022.22861         3.11470         5.13244
     2022.23134         1.84772         5.01233
     2022.23408        11.76274         5.00516
     2022.23682         7.69576         5.18532
     2022.23956         4.69378         5.05266
     2022.24230         4.02380         5.04370
     2022.24472        11.13801         5.76704
     2022.24820         6.96193         6.06553
     2022.25051         4.08885         5.02936
     2022.25325         3.11587         5.31708
     2022.25598        14.24189         5.04818
     2022.25872         7.55191         5.06431
     2022.26146         0.99593         5.05446
     2022.26420         4.20095         5.05446
     2022.26694         1.04897         5.13871
     2022.26967         6.03799         5.06252
     2022.27241        13.05100         4.97916
     2022.27515        11.08402         5.15664
     2022.27789         5.46804         5.03294
     2022.28062         2.28706         5.03922
     2022.28336         6.88608         5.05177
     2022.28610         7.53910         5.11003
     2022.28884         2.03512         5.15126
     2022.29158        -0.07886         5.10106
     2022.29431        -1.88085         5.00157
     2022.29705         4.55917         5.09120
     2022.29979        12.01419         5.04101
     2022.30253         4.50621         5.14767
     2022.30527         3.36923         5.08672
     2022.30800         0.43225         4.98006
     2022.31074         0.11227         4.97378
     2022.31348        -0.92771         5.03832
     2022.31622        -1.28870         5.07238
     2022.32142         0.74663         5.66217
     2022.32486         1.53646         6.13544
     2022.32717        -5.37962         5.05894
     2022.32991        -1.89260         5.23910
     2022.33264        -1.87358         5.15395
     2022.33538         0.62544         5.20773
     2022.33812        -0.90455         5.19518
     2022.34086         6.42847         4.99978
     2022.34360         3.97949         5.06880
     2022.34633         3.61551         5.06700
     2022.34907         6.81853         5.04818
     2022.35181         2.64355         5.05894
     2022.35455        -1.31243         5.04101
     2022.35728        -0.90841         5.01233
     2022.36002         1.42760         5.00516
     2022.36276         0.14762         5.03294
     2022.36550        -1.35136         5.06880
     2022.36824        -0.84034         5.04460
     2022.37097        -2.77432         5.04460
     2022.37371        -7.12930         4.99350
     2022.37645        -2.63428         5.04101
     2022.37919        10.50674         5.18891
     2022.38193        -1.90825         5.10913
     2022.38466        -4.14623         5.07328
     2022.38740       -13.94621         4.94421
     2022.39014        -0.97119         4.96213
     2022.39288         0.48283         5.08403
     2022.39561        -0.81115         4.98364
     2022.39801        -4.77301         5.79573
     2022.40152        -0.32702         6.02698
     2022.40383         6.84290         4.98275
     2022.40657         5.91192         5.05177
     2022.40930        -6.77406         5.04728
     2022.41204        -0.82704         5.05714
     2022.41478         0.57298         4.94421
     2022.41752         4.28400         5.08941
     2022.42026         6.93702         5.15305
     2022.42299        -7.26396         4.97199
     2022.42573        -5.02295         5.05087
     2022.42847         5.92507         5.07866
     2022.43121        -5.79491         5.11451
     2022.43394         5.88011         5.15305
     2022.43668        -2.17787         5.03115
     2022.43942        -1.81085         5.00516
     2022.44216        11.51917         5.04639
     2022.44763         5.54720         4.94331
     2022.45037         5.33222         4.94689
     2022.45311        -7.67776         4.96034
     2022.45585         5.22626         5.00426
     2022.45859        -6.54272         5.07955
     2022.46132         3.58830         4.95138
     2022.46406         0.30232         4.91283
     2022.46680        -3.90766         4.89222
     2022.46954         1.50935         4.90925
     2022.47227       -11.55863         4.94421
     2022.47501        10.02539         5.04639
     2022.47775         2.29641         5.13423
     2022.48049        -1.70857         4.98006
     2022.48323         8.15145         4.98006
     2022.48596         6.28947         5.06969
     2022.48870         2.41849         5.03025
     2022.49144        -1.78450         4.97289
     2022.49383        -0.99938         5.90777
     2022.49734        -5.44536         5.95348
     2022.49965         0.83956         4.98633
     2022.50239       -11.32942         4.96841
     2022.50513        -4.01740         5.27316
     2022.50787        16.21062         5.28661
     2022.51060        -0.05936         5.14857
     2022.51334         0.55365         4.99709
     2022.51608        -8.49233         4.96124
     2022.51882       -10.06631         5.01950
     2022.52156         0.53971         4.94958
     2022.52429         6.53473         4.96930
     2022.52703         8.93875         4.93793
     2022.52977        18.91877         5.23283
     2022.53251        -2.16921         5.00157
     2022.53525        -3.00920         5.05356
     2022.53798         0.17382         5.00874
     2022.54072         2.07084         4.97468
     2022.54346         0.80686         5.04460
     2022.54620         0.56688         4.97737
     2022.54893         4.27190         4.98813
     2022.55167         4.21192         5.03115
     2022.55441         1.97094         4.97378
     2022.55715        12.51295         5.01771
     2022.55989         3.06897         4.87519
     2022.56262         0.37999         4.99440
     2022.56536        -7.77599         5.01771
     2022.56810         4.58703         5.01502
     2022.57050         2.88419         5.84592
     2022.57400         3.79616         6.01981
     2022.57631        -1.14791         5.03115
     2022.57905        -3.77790         4.92090
     2022.58179         3.79312         5.13692
     2022.58453         6.50614         5.27585
     2022.58726        -4.62184         5.12168
     2022.59000         0.90318         5.08672
     2022.59274        -3.17480         5.05714
     2022.59548         5.86622         5.06163
     2022.59822        -7.34976         5.01771
     2022.60095        -5.42475         4.99261
     2022.60369        -3.33473         5.13423
     2022.60643        -9.46371         5.13423
     2022.60928        -0.04940         5.18353
     2022.61190         7.62433         4.98364
     2022.61464         6.62135         4.94152
     2022.61738         6.47037         4.93524
     2022.62012        -7.20061         4.95675
     2022.62286         6.51140         4.98364
     2022.62559         1.18142         4.92986
     2022.62833        -1.41856         4.99619
     2022.63107        -0.46154         5.03025
     2022.63381         5.58148         4.91283
     2022.63655         3.44150         4.86174
     2022.63928         1.69052         4.92897
     2022.64202         2.66254         5.28392
     2022.64476         5.10755         5.33053
     2022.64750         1.91557         5.12347
     2022.65023         4.90759         5.06880
     2022.65297         6.92761         5.09927
     2022.65571         5.32663         5.02308
     2022.65856         7.50394         5.27764
     2022.66119        -1.96933         4.99081
     2022.66392        -0.32832         5.03563
     2022.66666         0.45670         4.93345
     2022.66940        -0.85928         4.96841
     2022.67214         2.40074         4.94600
     2022.67488        -3.07524         4.91014
     2022.67761         0.12278         4.96930
     2022.68035         1.29880         5.01322
     2022.68309        -3.07218         5.06611
     2022.68583         3.05983         5.16739
     2022.68856         1.23285         5.05983
     2022.69130         3.22287         5.03563
     2022.69404        -4.49411         5.05714
     2022.69678         1.65091         5.02667
     2022.69952        -9.51907         5.09210
     2022.70225        -0.85905         5.16829
     2022.70499         2.57297         5.11272
     2022.70773        -2.70302         5.00516
     2022.71047        -7.45400         4.90746
     2022.71321        -0.00198         5.02398
     2022.71594         3.87604         4.98723
     2022.71868        -2.63294         5.05714
     2022.72142        -0.21892         4.94779
     2022.72416        -4.49590         5.06073
     2022.72689        -4.66488         5.02219
     2022.72963        -1.31787         4.91642
     2022.73237        -2.60185         4.93345
     2022.73511        -4.44583         5.04728
     2022.73785        -9.45081         5.13333
     2022.74058         1.23021         5.16560
     2022.74332         3.74723         5.13692
     2022.74606        -2.11075         5.00247
     2022.74880        -0.42473         4.97827
