# ================= DQRFIT RESULTS ================
# INPUT FILE: series/LUXO.rad
# OUTPUT: LDETRENDED
# FILTER FUNCTION: f(t)
# f(t)=+line(t)
# line(t)=+P 1+P 2*t
# heav(t)=(t<0?0:1)
# TOTAL OBSERVATIONS MTOT=  198
# INITIAL TIME INTERVAL= 2016.5503 - 2006.9186 =  9.6318
# TOTAL OBSERVATIONS AFTER PREFILTER M=  198
# TIME-SPAN=    0.0000 -    0.0000 =  0.0000
# OBSERVATIONS: USED M=   198 REJECTED MTOT-M=     0 %USED=  100.0000
# N=  2 PARAMETERS
# MAXSIG= 175.00000
# MAXRES=  25.73286
# SCALE FACTOR FOR LENGTHS: SCL=  10.00000
# SCALE FACTOR FOR SIGMAS: SCLSIG=   1.00000
# CHI^2=    372.177 DOF=   196 CHI^2/DOF=   1.89886
# RMS=      8.091 SDEV=      8.111 MEAN=   -0.06792
#  P #       PARAMETER +-    SIGMA %error PARAMETER NAME
# P 1 =      3431.28873 +-  315.655   9.20 YZERO                              
# P 2 =        -1.70286 +-    0.157   9.21 SLOPE                              
#       T            LDETRENDED       SIG_OBS
     2006.91855       -10.24698         8.12464
     2006.92129        -5.05532         8.09432
     2006.92403       -11.72866         8.19491
     2006.92677        -5.10500         8.17287
     2006.92951        -6.12233         8.31756
     2006.93224        -7.36367         8.11086
     2006.93498       -10.33801         8.30102
     2006.93772        -6.98635         8.16046
     2006.94046       -12.28369         8.24866
     2006.94319        -8.53802         8.31204
     2006.94593       -15.28836         8.23901
     2006.94867       -16.48670         8.36992
     2007.60575        -7.71678         8.06676
     2007.60849        -9.35012         7.95514
     2007.61123         0.70154         8.00062
     2007.61397        -9.31179         7.95239
     2007.61671        -3.77313         8.60418
     2007.61944         0.35553         8.59040
     2007.62218         1.08219         8.38094
     2007.62492        -0.71214         8.31342
     2007.62766       -10.79048         8.52425
     2007.63039        -0.16182         8.79985
     2007.63313       -25.29116         8.64690
     2007.63587       -10.77150         8.30240
     2007.63861       -15.48683         8.34925
     2007.64135         2.01183         8.06401
     2007.64408         2.05049         8.43744
     2007.64682       -12.48585         8.45536
     2007.64956        -1.93419         8.77367
     2007.65230       -17.75952         8.64276
     2007.65504        -8.39486         8.40988
     2007.65777        -7.99920         8.44295
     2007.66051       -11.07254         8.51185
     2007.66325        -3.72687         8.53252
     2007.66599       -16.38321         8.62898
     2007.66872        -8.20855         8.49394
     2007.67146        -6.97889         8.34787
     2007.67420        -3.55323         8.49532
     2007.67694        -0.61656         8.41815
     2007.67968        -8.23690         8.39335
     2007.68241        -2.80324         8.36992
     2007.68515        -2.59958         8.61658
     2007.68789        -0.39491         8.44847
     2007.69063        -1.59725         8.36441
     2007.69337        -3.68359         8.33823
     2007.69610        -6.45593         8.39472
     2007.69884        -4.20227         8.44847
     2007.70158         0.70440         8.45673
     2007.70432         1.83206         8.67721
     2007.70705        -1.32128         8.43193
     2007.70979        -2.28562         8.51736
     2007.71253        -1.69396         8.32858
     2007.71527         8.45771         8.12188
     2007.71801         3.75437         8.12050
     2007.72074         3.30403         8.20594
     2007.72348        -0.49931         8.09570
     2007.72622        -0.11764         8.05574
     2007.72896         3.24302         8.22385
     2007.73170         1.55568         8.13566
     2008.44080        -8.06282         8.30515
     2008.44354         0.93084         8.04885
     2008.44627         5.49750         8.02542
     2010.30254         8.75045         8.06401
     2010.30528        15.83511         8.13704
     2010.30801        14.70378         7.97857
     2010.31075         8.47844         8.02680
     2010.31349        10.11010         8.00337
     2010.31623         9.36076         8.01991
     2010.31896        16.33842         8.31893
     2010.32170        15.30809         8.17700
     2010.32444        15.24575         8.15495
     2010.32718        16.59041         7.91794
     2010.32992         2.54307         8.03231
     2010.33265        10.23274         8.04196
     2010.33539        11.10040         8.25279
     2010.33813        15.08506         8.21696
     2010.34087         6.40772         7.93723
     2010.34361         6.63438         7.90829
     2010.34634         7.89405         7.99648
     2010.34908         8.33271         7.87384
     2010.35182         6.91337         7.81735
     2010.35456        -1.39397         7.92345
     2010.35729         9.93369         7.84628
     2010.36003        15.90236         8.05023
     2010.36277        11.26402         7.75534
     2010.36551         7.68368         8.16046
     2010.36825        10.41434         8.07641
     2010.37098        14.40701         7.88073
     2010.37372         6.16267         7.79116
     2010.37646         3.81033         7.78152
     2010.37920         6.67699         8.31204
     2010.38193         6.38765         8.35338
     2010.38467         5.08032         8.09019
     2010.38741         7.97298         8.09846
     2010.39015         9.49264         7.98684
     2011.84395         5.99125         8.08605
     2011.84669         3.90191         7.94412
     2011.84942         1.96857         7.97719
     2011.85216         0.93624         8.55870
     2011.85490        -0.05210         8.43882
     2011.85764         2.45856         8.30653
     2011.86037        11.83322         8.28311
     2011.86311        -2.05712         7.88211
     2011.86585        -0.32345         8.11637
     2011.86859         7.91521         8.00062
     2011.87133         8.10687         8.15633
     2011.87406         0.99753         8.06125
     2011.87680        -4.34780         8.31893
     2011.87954        25.73286         8.54079
     2011.88228        10.33252         7.82423
     2011.88502         9.16118         7.95790
     2011.88775        -0.80816         8.10397
     2011.89049        -5.10349         8.84533
     2011.89323         2.05017         8.59453
     2011.89597        -7.77817         8.29551
     2011.89870        -2.52851         9.02309
     2011.90144        -2.64185         8.63863
     2011.90418         0.35182         8.22799
     2011.90692         3.01348         7.95652
     2011.90966         7.76214         8.33547
     2011.91239        -3.20220         8.13015
     2011.91513        10.09347         8.26519
     2011.91787         9.25513         8.46913
     2011.92061         5.70979         8.64001
     2011.92334         0.80845         8.74749
     2011.92608         0.72911         8.23074
     2013.80972        12.48268         7.81872
     2013.81246        20.35634         7.89038
     2013.81520        15.45801         7.85868
     2013.81794        10.97667         7.81735
     2013.82068         8.67333         7.79943
     2013.82341        -1.62201         7.93585
     2013.82615         3.50966         7.96755
     2013.82889        19.40732         7.78427
     2016.37783        -5.85421         7.66163
     2016.38057        -3.78955         7.94274
     2016.38330        -7.67188         7.74156
     2016.38604        -2.13322         7.60927
     2016.38878         1.61944         7.60789
     2016.39152        -1.42690         7.72364
     2016.39426        -1.86423         7.62167
     2016.39699        -0.35557         7.71124
     2016.39973        -1.13091         7.70159
     2016.40247        -4.11925         7.75809
     2016.40521        -0.59359         7.60927
     2016.40794        -7.22492         7.71951
     2016.41068       -10.52326         7.73742
     2016.41342        -3.42460         7.65888
     2016.41616        -3.71294         7.73467
     2016.41890        -8.42628         7.80357
     2016.42163        -3.71161         7.80081
     2016.42437       -10.64495         7.64234
     2016.42711        -8.83729         7.93172
     2016.42985        -8.10863         7.71537
     2016.43259        -4.39996         7.74431
     2016.43532       -12.50330         7.88211
     2016.43806        -3.38164         7.71813
     2016.44080        -1.07598         7.90278
     2016.44354        -3.93432         7.80908
     2016.44627        -1.31265         7.75534
     2016.44901        -3.80599         7.68781
     2016.45175         0.47067         7.74018
     2016.45449         3.11533         7.80494
     2016.45723         4.27399         7.71813
     2016.45996         4.00066         7.70986
     2016.46270        -6.98368         7.91794
     2016.46544        -5.92902         7.76498
     2016.46818        -2.49136         7.68368
     2016.47092         6.69731         7.87522
     2016.47365        -6.36003         7.65336
     2016.47639         5.51763         7.84077
     2016.47913         3.66129         8.05849
     2016.48187        -0.40005         7.64234
     2016.48460        -0.32538         7.63407
     2016.48734        -5.82572         7.82010
     2016.49008         0.99194         7.78841
     2016.49282         6.66360         7.78427
     2016.49556        -1.73373         7.74982
     2016.49829        -1.65707         7.80770
     2016.50103        -5.94041         7.73742
     2016.50377         4.66325         8.06401
     2016.50651       -14.54709         8.15909
     2016.50924        -6.18842         7.83939
     2016.51198        -5.04276         7.92621
     2016.51472        -7.30010         7.73191
     2016.51746       -10.71844         8.21834
     2016.52020        -0.44778         7.83112
     2016.52293       -11.32311         7.85179
     2016.52567        -1.45245         7.77187
     2016.52841         2.24221         7.78427
     2016.53115        -3.97613         7.73880
     2016.53389        -0.87246         7.65612
     2016.53662        -4.14980         7.79805
     2016.53936        -0.57614         7.87522
     2016.54210        -0.97148         7.75947
     2016.54484        -3.16382         7.63407
     2016.54757        -9.15815         7.74845
     2016.55031        -8.53549         7.87798
