# ================= DQRFIT RESULTS ================
# INPUT FILE: series/LVIL.rad
# OUTPUT: LDETRENDED
# FILTER FUNCTION: f(t)
# f(t)=+line(t)
# line(t)=+P 1+P 2*t
# heav(t)=(t<0?0:1)
# TOTAL OBSERVATIONS MTOT=  140
# INITIAL TIME INTERVAL= 2014.8583 - 2006.6119 =  8.2464
# TOTAL OBSERVATIONS AFTER PREFILTER M=  139
# TIME-SPAN=    0.0000 -    0.0000 =  0.0000
# OBSERVATIONS: USED M=   139 REJECTED MTOT-M=     1 %USED=   99.2857
# N=  2 PARAMETERS
# MAXSIG= 175.00000
# MAXRES=  18.70721
# SCALE FACTOR FOR LENGTHS: SCL=  10.00000
# SCALE FACTOR FOR SIGMAS: SCLSIG=   1.00000
# CHI^2=     82.075 DOF=   137 CHI^2/DOF=   0.59909
# RMS=      4.584 SDEV=      4.601 MEAN=   -0.01112
#  P #       PARAMETER +-    SIGMA %error PARAMETER NAME
# P 1 =     -1585.36621 +-  343.985  21.70 YZERO                              
# P 2 =         0.77554 +-    0.171  22.03 SLOPE                              
#       T            LDETRENDED       SIG_OBS
     2006.61191         0.65895         4.56045
     2006.61465        -0.23917         4.54110
     2006.61739         2.12071         4.49931
     2006.62013         2.44058         4.64482
     2006.62287        -1.70754         4.57129
     2006.62560        -0.62066         4.60380
     2006.62834        -1.47579         4.64250
     2006.63108        -2.05091         4.46989
     2006.63382         1.59397         4.47454
     2006.63656        -5.69116         4.58986
     2011.64682        -9.12282         4.55581
     2011.64956        -0.93094         4.57438
     2011.65230         3.55293         4.55813
     2011.65504        -8.46719         4.59219
     2011.65777        -1.48031         4.49389
     2011.66051         5.23256         4.58832
     2011.66325        -0.52356         4.54807
     2011.66599        -0.30368         4.53568
     2011.66872         0.89219         4.53104
     2011.67146         2.47307         4.39327
     2011.67420         4.31095         4.38475
     2011.67694         5.40782         4.42577
     2011.67968        -2.10930         4.41029
     2011.68241        -0.81542         4.47531
     2011.68515        -1.76255         4.50782
     2011.68789         0.65933         4.47067
     2011.69063         2.97021         4.45751
     2011.69337         3.39008         4.47067
     2011.69610        -4.25904         4.53723
     2011.69884         4.20984         4.49389
     2011.70158        -0.63229         4.44280
     2011.70432         0.01559         4.46834
     2011.70705         0.70847         4.69590
     2011.70979         1.94734         4.46215
     2011.71253         5.22722         4.47144
     2011.71527        -4.30690         4.55426
     2011.71782         8.38912         4.93739
     2014.57906        -3.51289         4.43042
     2014.58180        -5.65601         4.52562
     2014.58454        -0.96713         4.55039
     2014.58727        -7.84526         4.69977
     2014.59001         0.36662         4.56664
     2014.59275         3.35550         4.57903
     2014.59549        -6.77463         4.58909
     2014.59823         1.63525         4.73847
     2014.60096        -0.88687         4.68429
     2014.60370        -3.45200         4.59838
     2014.60644        -0.41212         4.73151
     2014.60918        -2.85424         4.75318
     2014.61191        -0.09137         4.92888
     2014.61465        -4.27049         4.75705
     2014.61739        -0.10461         4.85225
     2014.62013        -1.95674         4.96061
     2014.62287        -0.46086         4.64714
     2014.62560        -6.10098         4.56897
     2014.62834        -0.36011         4.65256
     2014.63108         3.63077         4.67810
     2014.63382        -1.77335         4.74234
     2014.63656         0.73752         4.58290
     2014.63929       -11.68060         4.76866
     2014.64203        -3.77472         4.71603
     2014.64477        -2.13185         4.52949
     2014.64751        -2.20797         4.67423
     2014.65024        -3.86109         4.59760
     2014.65298         3.77678         4.68197
     2014.65572         7.41166         4.55581
     2014.65846        13.60054         4.65952
     2014.66120         5.97141         4.59296
     2014.66393        -0.67471         4.61773
     2014.66667         2.30017         4.54729
     2014.66941         3.69104         4.53646
     2014.67215        -6.04108         4.60302
     2014.67488         0.33280         4.76092
     2014.67762        -4.08333         4.51169
     2014.68036        -1.80945         4.53801
     2014.68310        -2.44557         4.58212
     2014.68584         2.32830         4.66185
     2014.68857        -3.13082         4.71835
     2014.69131        -4.79194         4.56045
     2014.69405        -4.34007         4.60844
     2014.69679        -5.24819         4.64559
     2014.69953         5.19969         4.62779
     2014.70226         3.68956         4.58832
     2014.70500         0.82744         4.68584
     2014.70774         0.61332         4.80968
     2014.71048         5.44119         4.58909
     2014.71595         2.86395         4.74467
     2014.71869         1.97782         4.56897
     2014.72143         1.24470         4.51014
     2014.72417         1.04058         4.48770
     2014.72690        -2.75955         4.61928
     2014.72964        10.30333         4.55581
     2014.73238        18.70721         4.60457
     2014.73512        -5.56492         4.60457
     2014.73786        -0.06304         4.49931
     2014.74059         3.46584         4.54807
     2014.74333         3.60071         4.67191
     2014.74607         3.71759         4.67578
     2014.74881         1.52047         4.80272
     2014.75154         0.19334         4.65488
     2014.75428        -0.07178         4.64791
     2014.75702        -5.54490         4.80659
     2014.75976        -0.05803         4.51014
     2014.76250        -6.52215         4.65875
     2014.76523        -0.57527         4.53414
     2014.76797        -1.26240         4.66649
     2014.77071        -3.30852         4.53414
     2014.77345        -0.96864         4.64095
     2014.77619        -0.28077         4.50395
     2014.77892        -1.76589         4.65411
     2014.78166        -1.14401         4.53259
     2014.78440         0.44686         4.57284
     2014.78714         7.03874         4.64946
     2014.78987        -1.10038         4.53646
     2014.79261        -3.14351         4.52020
     2014.79535         2.01937         4.52253
     2014.79809         4.67925         4.70287
     2014.80083       -12.60488         4.69203
     2014.80356         0.51300         4.90102
     2014.80630        -4.45312         4.48305
     2014.80904         1.47075         4.41494
     2014.81178         8.39663         4.67191
     2014.81452        11.53451         4.59373
     2014.81725        10.76038         4.55349
     2014.81999         3.55326         4.49002
     2014.82273         5.98714         4.67655
     2014.82547        -0.89099         4.68429
     2014.82820         0.01389         4.63243
     2014.83094        -4.09023         4.63011
     2014.83368        -4.41336         4.49311
     2014.83642        -0.91448         4.51943
     2014.83916        -0.12360         4.51711
     2014.84189        -1.10973         4.52717
     2014.84463        -6.52885         4.62856
     2014.84737        -3.53997         4.60612
     2014.85011        -8.84410         4.59528
     2014.85285         0.44978         4.47918
     2014.85558         0.76366         4.57671
     2014.85832         2.92853         4.66030
