# ================= DQRFIT RESULTS ================
# INPUT FILE: series/LWCK.rad
# OUTPUT: LDETRENDED
# FILTER FUNCTION: f(t)
# f(t)=+line(t)+annual(t)
# line(t)=+P 1+P 2*t
# annual(t)=+P 3*sin(2*pi*t+P 4)
# heav(t)=(t<0?0:1)
# TOTAL OBSERVATIONS MTOT= 3723
# INITIAL TIME INTERVAL= 2022.7488 - 2012.1150 = 10.6338
# TOTAL OBSERVATIONS AFTER PREFILTER M= 3576
# TIME-SPAN= 2022.7488 - 2012.1150 = 10.6338
# OBSERVATIONS: USED M=  3576 REJECTED MTOT-M=   147 %USED=   96.0516
# N=  4 PARAMETERS
# MAXSIG= 175.00000
# MAXRES=  69.99176
# SCALE FACTOR FOR LENGTHS: SCL=  10.00000
# SCALE FACTOR FOR SIGMAS: SCLSIG=   1.00000
# CHI^2=   4326.567 DOF=  3572 CHI^2/DOF=   1.21125
# RMS=      9.818 SDEV=      9.817 MEAN=    0.25651
#  P #       PARAMETER +-    SIGMA %error PARAMETER NAME
# P 1 =     -6095.60906 +-   82.792   1.36 YZERO                              
# P 2 =         3.02867 +-    0.041   1.36 SLOPE                              
# P 3 =         3.65153 +-    0.166   4.54 ANNUAL AMPLITUDE                   
# P 4 =        -3.03577 +-    0.064   2.10 ANNUAL PHASE                       
#       T            LDETRENDED       SIG_OBS
     2012.11498         5.08950         6.62100
     2012.11772         9.37220         6.63641
     2012.12046        11.86791         6.66943
     2012.12320         7.93562         6.54506
     2012.12594         8.20533         6.56047
     2012.12867         5.43204         6.70465
     2012.13141        -1.64126         6.85763
     2012.13415         6.69444         6.65292
     2012.13689         7.17516         6.63531
     2012.13963        13.42987         6.84772
     2012.14236         5.38458         6.77618
     2012.14510         1.68128         6.69694
     2012.14784        -4.91901         6.50104
     2012.15058        12.09070         6.58358
     2012.15332         5.85239         6.68043
     2012.15583         1.08979         7.31986
     2012.15988       -10.49649        16.81114
     2012.16153         2.54753         6.66503
     2012.16427        -2.81376         6.59789
     2012.16700         0.88995         6.67273
     2012.16974         2.59166         6.55827
     2012.17248        -2.38765         6.61220
     2012.17522        -2.42193         6.61110
     2012.17796        -2.40422         6.51205
     2012.18069         4.47849         6.56157
     2012.18343         1.15319         6.60009
     2012.18617         2.62390         6.53076
     2012.18891         2.43261         6.55607
     2012.19164         7.27632         6.71235
     2012.19438         6.14203         6.97098
     2012.19712        -5.02527         6.79379
     2012.19986         4.69244         6.53076
     2012.20260         4.76615         6.79599
     2012.20533         1.57986         6.62100
     2012.20807         7.50657         6.46252
     2012.21081        -3.40174         6.53626
     2012.21355         3.18698         6.45372
     2012.21629         0.48569         6.65732
     2012.21902        -5.62060         6.56157
     2012.22176        -4.30689         6.57698
     2012.22450        -5.90119         6.53076
     2012.22724         1.43352         6.47793
     2012.22998         5.51222         6.48894
     2012.23271         5.12394         6.47023
     2012.23545         1.05865         6.61440
     2012.23819         7.02835         6.51865
     2012.24093         1.89906         6.52525
     2012.24366         1.42077         6.84332
     2012.24640         5.97148         6.52746
     2012.24914         5.04819         6.67273
     2012.25188        -1.70311         6.51535
     2012.25462        -8.25240         6.63641
     2012.25735         3.70531         6.56377
     2012.26009         1.38002         6.62981
     2012.26283         4.68373         6.45812
     2012.26557        -1.75457         6.50985
     2012.26831         4.31413         6.60119
     2012.27104        -1.06715         6.59019
     2012.27378        -4.22544         6.57258
     2012.27652         1.30427         6.52966
     2012.27926         7.87997         6.68594
     2012.28199         0.86568         6.54396
     2012.28473        -5.57261         6.49664
     2012.28747        -0.97890         6.44381
     2012.29021         2.92580         6.64632
     2012.29295        -3.33549         6.46582
     2012.29568        -4.32978         6.47463
     2012.29842        -5.59507         6.60890
     2012.30116         1.23064         6.56377
     2012.30390        -6.88666         6.47353
     2012.30664         0.29004         6.46913
     2012.30937        -2.01824         6.54176
     2012.31211         6.77647         6.72886
     2012.31485         1.71018         6.64962
     2012.31759        -0.71712         6.49994
     2012.32032         4.19859         6.74207
     2012.32306         0.41530         6.51535
     2012.32580        -0.26701         6.53626
     2012.32854        -2.59528         6.64412
     2012.33128         2.92842         6.62871
     2012.33401        -0.01987         6.63201
     2012.33675         1.43384         6.53516
     2012.33949         2.91555         6.58028
     2012.34223        -4.96574         6.48894
     2012.34497       -11.11205         6.54066
     2012.34770        -4.66833         6.56928
     2012.35044        -3.04362         6.76518
     2012.35318        -0.71391         6.51865
     2012.35592         3.02880         6.54837
     2012.35865        -3.46250         6.50104
     2012.36139        -0.13379         6.38548
     2012.36413        -3.14309         7.31546
     2012.36687         0.81763         6.46252
     2012.36961         5.58634         6.42730
     2012.37234        -2.24196         6.58799
     2012.37508         0.44475         6.43061
     2012.37782        -2.11554         6.57808
     2012.38056        -5.84183         6.53516
     2012.38330         3.17686         6.60009
     2012.38603        -0.58842         6.87523
     2012.38877        -3.41271         6.76188
     2012.39151         1.18700         6.58689
     2012.39425         1.40771         6.63421
     2012.39698        -1.08159         6.61440
     2012.39972        -6.88388         6.63531
     2012.40246         5.60083         6.78389
     2012.40520        -2.70746         6.59129
     2012.40794        -3.50175         6.45812
     2012.41067         3.20395         6.53076
     2012.41341        -3.15434         6.79049
     2012.41615        10.25337         6.67383
     2012.41889         5.65408         6.79269
     2012.42162        -4.83121         6.55167
     2012.42436         9.91249         6.56157
     2012.42710         5.34920         6.68484
     2012.42984         7.83891         6.64412
     2012.43258        -3.13638         6.72776
     2012.43531         4.23033         6.51755
     2012.43805         2.23603         6.50985
     2012.44079        -3.54427         6.58799
     2012.44353        -1.78655         6.67383
     2012.44626         6.77316         6.73656
     2012.44900         2.06687         6.54066
     2012.45174        -0.92043         6.58909
     2012.45448         5.07328         6.61660
     2012.45722        10.56899         6.73656
     2012.45995         8.50570         7.07224
     2012.46269         6.43041         6.69914
     2012.46543        -1.17489         6.68264
     2012.46817        -1.89418         6.52085
     2012.47091         4.34653         6.67163
     2012.47364        -0.28076         6.62100
     2012.47638        -0.87105         7.63022
     2012.47912         0.23165         6.65402
     2012.48186        -0.34064         6.67053
     2012.48459         4.73507         6.56708
     2012.48733         0.39678         6.52966
     2012.49007         1.51849         6.72886
     2012.49281         7.80419         6.70465
     2012.49555         5.73490         6.64742
     2012.49833         0.31946         6.63091
     2012.50102         8.23932         6.57588
     2012.50376         8.46802         6.67493
     2012.50650        -0.55327         6.61880
     2012.50924        -1.00656         6.80810
     2012.51197         1.75015         6.61880
     2012.51471        -4.72714         6.65072
     2012.51745         6.69655         6.54617
     2012.52019         2.59827         6.49444
     2012.52292         2.17198         6.79269
     2012.52566         4.03769         6.59239
     2012.52840         6.42640         6.46362
     2012.53114         1.39910         6.63861
     2012.53388         5.86681         6.79819
     2012.53661         6.56052         6.66613
     2012.53935         5.97223         6.79269
     2012.54209         4.66794         6.53406
     2012.54483         5.59264         6.46582
     2012.54757         8.13535         6.50875
     2012.55030         5.13206         6.74537
     2012.55304         4.89577         6.54176
     2012.55578         5.48846         6.53186
     2012.55852         2.16918         6.43941
     2012.56125         7.57389         6.48233
     2012.56399        10.92360         6.50654
     2012.56673         9.48831         6.55167
     2012.56947         8.87802         6.66283
     2012.57221         9.70072         6.47243
     2012.57494         7.97743         6.51535
     2012.57768        10.39614         6.55937
     2012.58042        13.87485         7.30776
     2012.58316        11.19156         6.75417
     2012.58590         5.00626         6.68704
     2012.58858        11.45014         6.65292
     2012.59138        16.97165         6.77728
     2012.59347        12.80132         9.09177
     2012.62434        15.85383         8.46775
     2012.62696        10.32388         6.57918
     2012.62970         4.30459         6.73546
     2012.63244         1.87830         7.06343
     2012.63518        12.49301         6.63751
     2012.63791         5.90771         6.69474
     2012.64065        14.56042         7.69626
     2012.64339        12.31213         6.49994
     2012.64613         8.92184         6.44491
     2012.64887        13.42055         6.54617
     2012.65161        15.07624         6.85102
     2012.65434        16.64296         6.72116
     2012.65708        17.34667         6.65622
     2012.65982        14.17238         6.65182
     2012.66256        10.18309         6.59349
     2012.66529        11.12279         6.63311
     2012.66803         7.08850         6.64081
     2012.67077        14.33921         6.72446
     2012.67351        13.46492         6.49994
     2012.67624        12.17663         6.42400
     2012.67898        17.79133         6.59899
     2012.68172        15.15504         6.64852
     2012.68446         9.72975         6.67933
     2012.68720        11.95746         6.72666
     2012.68994        14.99515         6.52305
     2012.69267         7.90787         6.70685
     2012.69541         6.79658         6.81250
     2012.69815        14.12929         6.71015
     2012.70089         5.98300         6.77838
     2012.70362         4.65870         6.60229
     2012.70636         8.66141         6.52746
     2012.70910         6.85811         6.62210
     2012.71184        17.71483         6.63091
     2012.71457        13.82954         6.58689
     2012.71731         9.86024         6.53956
     2012.72005        15.65295         6.53736
     2012.72279        10.97466         6.60450
     2012.72553        14.74637         6.61110
     2012.72826        17.57808         6.64081
     2012.73100         9.34878         8.28616
     2012.73374        10.53249         6.79709
     2012.73648         7.88820         6.61110
     2012.73921        10.36491         6.88844
     2012.74195        18.45462         7.13827
     2012.74469        15.20132         6.73986
     2012.74743        11.24702         6.67383
     2012.75017        10.78474         6.67163
     2012.75290        17.26745         6.71675
     2012.75564        16.73416         6.62651
     2012.75838         9.55286         6.68374
     2012.76112        14.72857         6.45702
     2012.76386        11.93028         6.59789
     2012.76659        16.80299         6.64301
     2012.76933        18.07270         6.69804
     2012.77207         9.42040         6.60450
     2012.77481        15.92811         6.68043
     2012.77754        10.39482         6.70134
     2012.78028        16.77953         7.06783
     2012.78302         8.76624         6.86203
     2012.78576        10.85393         6.73546
     2012.78850        19.31165         7.03702
     2012.79123        13.67736         6.95888
     2012.79397         8.77707         6.68264
     2012.79671         6.12878         6.74757
     2012.79945         8.64448         6.82461
     2012.80219        17.87019         6.86643
     2012.80493         3.55588         6.85983
     2012.80746         7.98823         7.71827
     2012.87169        17.19969        13.34656
     2012.87337         2.41760         6.63201
     2012.87611         7.60131         6.64742
     2012.87884        16.14703         6.72446
     2013.10335        -0.02393         6.63971
     2013.10594        -0.95079         7.03812
     2013.11720       -10.92088         7.48165
     2013.11978        -4.28869         6.97649
     2013.12251        -5.75898         6.63861
     2013.12526        -3.70430         6.62871
     2013.12799        -3.11556         6.58579
     2013.13073        -3.80186         6.57148
     2013.13347       -10.99015         6.65512
     2013.13618         3.01063         6.63751
     2013.13894        -1.66873         6.44601
     2013.14168        -2.51202         6.74867
     2013.14442        -4.00632         6.87633
     2013.14715         0.12039         6.87744
     2013.14992        -6.48097         6.48453
     2013.15265        -7.19025         6.72776
     2013.15537        -9.61848         6.47903
     2013.15811        -6.04978         6.62541
     2013.16084        -2.99607         6.75747
     2013.16358        -2.23036         6.77398
     2013.16632        -6.20265         6.86753
     2013.16906        -6.55794         6.66723
     2013.17180        -2.72524         6.51975
     2013.17453       -15.40353         7.33197
     2013.17727        -2.70682         6.79709
     2013.18001        -1.34311         6.84332
     2013.18274        -5.24739         6.59789
     2013.18548        -5.59270         6.54947
     2013.18823        -8.57700         6.58138
     2013.19096        -6.38428         6.62210
     2013.19370         0.25843         7.03812
     2013.19644        -2.27286         6.68153
     2013.19917         3.61684         6.74207
     2013.20191         5.48155         6.55167
     2013.20465         0.05626         6.62320
     2013.20737        -6.52698         6.74757
     2013.21013         1.78768         6.52085
     2013.21286        -3.76762         6.57808
     2013.21560        -1.42291         6.68374
     2013.21834        -3.60320         6.70024
     2013.22108       -12.39849         6.71125
     2013.22381        -0.77379         6.56598
     2013.22656        -3.75709         6.60450
     2013.22927        -6.36130         7.01281
     2013.23200        -1.58359         6.61220
     2013.23475        -2.12990         6.62320
     2013.23748        -8.69119         6.66723
     2013.24024        -0.94154         6.60560
     2013.24298        -2.38583         6.55717
     2013.24572         6.34686         6.68153
     2013.24846         5.34259         6.77618
     2013.25119        -0.21771         6.71015
     2013.25393        -5.83500         6.68924
     2013.25667        -4.98829         6.91926
     2013.25941         9.17642         6.80150
     2013.26214         3.46013         6.77949
     2013.26489         9.66082         6.77618
     2013.26762        -3.48046         6.75087
     2013.27036        -2.50975         6.67823
     2013.27310        -3.93204         7.03922
     2013.27583         2.53667         6.67713
     2013.27857         1.58137         6.78059
     2013.28131        -1.07792         6.88734
     2013.28405        -0.71222         6.66723
     2013.28679        -1.31750         6.71565
     2013.28956        -3.76290         6.85873
     2013.29226        -6.10809         6.81360
     2013.29500        -4.05738         6.66172
     2013.29765       -13.63341         7.22521
     2013.31690         0.17729         6.85873
     2013.31964        -3.96601         6.77398
     2013.32238        -3.13331         6.74427
     2013.32512         3.44841         6.82901
     2013.32785         2.18712         6.69474
     2013.33059        -2.13918         6.62871
     2013.33333        -2.03047         6.76188
     2013.33607        -7.27576         6.64962
     2013.33880         0.81195         6.85212
     2013.34155        -1.32336         6.69144
     2013.34428        -1.16764         6.63641
     2013.34702         2.90307         6.60670
     2013.34976        -0.28422         6.66503
     2013.35249        -6.27051         6.67933
     2013.35523        -3.37380         6.79049
     2013.35797         1.75590         7.35178
     2013.36070        -6.05336         6.81030
     2013.36344        -4.10765         6.71455
     2013.36617         2.73406         6.65622
     2013.36892         2.44575         6.72226
     2013.37166         0.40043         6.70575
     2013.37440        -2.17085         6.76628
     2013.37713        -2.41814         6.58909
     2013.37987        -3.26143         6.60229
     2013.38261        -2.65972         6.60780
     2013.38535        -4.80602         6.95888
     2013.38809        -3.04331         6.87744
     2013.39082         0.07640         6.76628
     2013.39287        -0.56080        12.44960
     2013.39907        -2.10358         8.02973
     2013.40177         3.00023         6.76188
     2013.40451         0.21794         6.70134
     2013.40725        -5.57735         7.06013
     2013.40999         4.77536         7.20430
     2013.41273         2.11306         6.66613
     2013.41546        -7.32723         7.08214
     2013.41821        -0.27754         6.94127
     2013.42094         3.57719         6.89615
     2013.42368        -7.92510         6.89174
     2013.42642         2.98860         6.90715
     2013.42915         0.89631         6.71345
     2013.43190        -0.95800         6.82681
     2013.43463         0.11473         6.75087
     2013.43737        -1.60658         6.80260
     2013.44010        -5.13086         6.99520
     2013.44284        -0.36115         6.70024
     2013.44558        -2.64444         6.78389
     2013.44832        -9.67373         6.62541
     2013.45106        -1.91103         6.71235
     2013.45379        -2.01732         6.65182
     2013.45654        -1.72662         6.65732
     2013.45927        -5.14190         7.98901
     2013.46201        -2.73219         6.74097
     2013.46475        -4.41749         6.67823
     2013.46748        -0.46878         7.24833
     2013.47022        -5.75607         6.70245
     2013.47296         0.76564         6.57368
     2013.47569        -3.04164         6.72556
     2013.47806         5.83218         9.64426
     2013.48121         0.58666         9.66297
     2013.48391         2.88547         7.29235
     2013.48665         0.73318         8.72969
     2013.48939         1.62189         7.29125
     2013.49212        -3.41441         8.01432
     2013.49487        -8.54371         8.18161
     2013.49760         4.56201         7.34077
     2013.50034         5.62572         6.54617
     2013.50308        -5.73557         7.08324
     2013.50581        -4.94687         6.61990
     2013.50855        -4.55916         6.57038
     2013.51129        -0.57445         6.61990
     2013.51403         1.78424         6.51975
     2013.51676         3.20997         6.54506
     2013.51950        -1.40733         6.62761
     2013.52224         9.82338         6.80920
     2013.52498        -8.31191         6.98859
     2013.52772         4.72580         6.68704
     2013.53023         7.48120         7.06563
     2013.54798         4.72741        18.98036
     2013.54855         1.96570        15.68306
     2013.56149         4.77051        12.92174
     2013.56331         2.87200         6.70685
     2013.56605        -2.72229         6.54176
     2013.56878        -3.45858         6.60560
     2013.57152        -2.95988         6.60450
     2013.57426        10.71083         6.78389
     2013.57700         7.74754         6.63421
     2013.57974         2.34625         6.64301
     2013.58247        -0.94404         6.59459
     2013.58521        -1.54734         6.56157
     2013.58795         2.70437         6.57808
     2013.59069         8.03008         6.64301
     2013.59342         5.23579         6.74097
     2013.59616         2.24450         7.12396
     2013.59890        -1.67680         6.77838
     2013.60164        -5.17009         6.75637
     2013.60438         5.96162         6.76738
     2013.60711         9.24933         6.75747
     2013.60985         7.33504         6.61330
     2013.61259        -3.70626         6.69694
     2013.61533         3.08345         6.67163
     2013.61807        -3.29184         6.67383
     2013.62080        10.03587         7.49815
     2013.62351         3.19166         6.62651
     2013.62630         5.45621         6.89394
     2013.62902        -2.51401         6.74647
     2013.63175         3.81870         6.68153
     2013.63449        -1.73959         7.44093
     2013.63723         9.64812         7.12726
     2013.63997        11.25782         7.99781
     2013.64271         1.14153         7.81402
     2013.64543         4.90028         7.07554
     2013.64819         3.66493         7.00400
     2013.65091         2.96268         6.97208
     2013.65367         2.46832         8.04073
     2013.65639         8.34607         6.78169
     2013.65913         1.56578         6.96768
     2013.66187         4.75349         6.91045
     2013.66461        -4.49881         6.67273
     2013.66735        10.70990         6.71455
     2013.67008         5.04161         6.71785
     2013.67282         0.83732         6.87303
     2013.67556        -2.41497         6.84662
     2013.67830        10.06773         6.81580
     2013.68104         7.83144         6.96988
     2013.68377         8.65315         6.81580
     2013.68651         0.12386         6.76188
     2013.68925         4.29057         6.64191
     2013.69199         5.51827         6.69254
     2013.69472         7.77298         6.78719
     2013.69746         2.23969         6.77949
     2013.70020        15.27940         6.64962
     2013.70294         8.77211         6.67713
     2013.70568         4.70081         6.63201
     2013.70841         2.65152         6.81250
     2013.71115        -0.08177         6.70024
     2013.71389         4.77194         6.83341
     2013.71663         8.62265         6.65182
     2013.71938        11.16230         6.61660
     2013.72210         9.81406         6.92036
     2013.72483        10.42980         7.04032
     2013.72758        10.38448         6.72556
     2013.73032         8.29619         6.72116
     2013.73305        14.19789         6.53076
     2013.73579         5.94960         6.55717
     2013.73853         6.75031         6.58909
     2013.74127         7.15102         6.76958
     2013.74401         8.48373         6.86863
     2013.74674        12.19043         6.95888
     2013.74948        -0.68286        10.03716
     2013.75222         0.42585         6.70685
     2013.75496        -2.96544         6.54176
     2013.75770        -9.08774         6.82351
     2013.76043        -4.72803         6.46252
     2013.76317         2.54968         6.48673
     2013.76591         2.85939         7.47724
     2013.76863         6.30214         6.66723
     2013.77138        -4.80120         6.63531
     2013.77412        -0.24449         6.76298
     2013.77686        -4.23778         6.78829
     2013.77960         3.27593         6.62871
     2013.78182        -4.83781         8.37310
     2013.78582        -4.99690        10.77564
     2013.78781        -4.71895         6.66833
     2013.79055        -0.41224         6.66613
     2013.79329        -3.59953         6.56267
     2013.79603        -7.18982         6.69034
     2013.79876        -2.95612         6.64962
     2013.80150         2.25559         6.65622
     2013.80424         7.30230         6.60009
     2013.80698         1.92901         6.48233
     2013.80971         6.63572         6.68153
     2013.81245         3.03642         6.47793
     2013.81519         3.32013         6.60119
     2013.81793        -1.31516         6.65512
     2013.82067         5.07455         6.65732
     2013.82340         2.04326         6.57588
     2013.82569         3.46235         9.68168
     2013.82888         5.64667         6.67823
     2013.83162        -0.62862         6.95227
     2013.83436         4.20809         6.73216
     2013.83709         4.75580         6.92146
     2013.83983         8.57050         6.87854
     2013.84257         2.33321         6.64412
     2013.84531         2.53292         6.87964
     2013.84804        -4.11237         6.57918
     2013.85078        -4.35767         6.80920
     2013.85352         8.49904         6.68153
     2013.85626         0.50975         6.48673
     2013.85900        -0.29254         6.56047
     2013.86173         5.31017         6.77288
     2013.86447         2.31787         6.94787
     2013.86721        -2.18742         6.60670
     2013.86995         1.10129         6.54727
     2013.87269         6.59100         6.61660
     2013.87542         9.20871         6.83121
     2013.87816         4.04241         6.55607
     2013.88090        13.27112         6.85983
     2013.88364         9.51483         6.94237
     2013.88637         2.59254         6.55167
     2013.88911        -0.40275         6.42180
     2013.89185        -2.23205         6.46252
     2013.89459         0.21366         6.58028
     2013.89733        -0.01663         6.51645
     2013.90006        -1.79392         6.55827
     2013.90280        -6.52021         6.68924
     2013.90554        -8.22651         6.84772
     2013.90828         4.29320         6.64632
     2013.91102        -3.84809         6.62541
     2013.91375        -2.33638         6.60450
     2013.91649         3.29833         6.61660
     2013.91923        -2.33397         7.07884
     2013.92197         2.40674         6.66943
     2013.92470         1.26245         6.40309
     2013.92744        -2.16784         6.55167
     2013.93018         5.06887        11.48660
     2013.93292        -3.05343         6.56047
     2013.93566        -1.23172         6.49664
     2013.93839         1.87999         6.29634
     2013.94113        -1.20530         6.41850
     2013.94301        -0.18500        10.68099
     2013.94661        -5.36889         6.75637
     2013.94935         0.26582         6.87744
     2013.95208         5.80153         6.45592
     2013.95482        -0.90876         7.21531
     2013.95756        -3.19106         6.44711
     2013.96030        -6.18135         6.84332
     2013.96303        -6.93064         6.71895
     2013.96577         1.04807         6.45372
     2013.96851         4.11878         6.70465
     2013.97125         5.44748         6.62541
     2013.97399        -3.20881         6.74097
     2013.97672        -6.02910         6.70134
     2013.97946        -5.86639         6.57808
     2013.98220        -3.11368         6.44932
     2013.98494        -6.14198         6.45702
     2013.98765       -11.95320         6.63971
     2013.99041        -7.75356         6.64742
     2013.99315       -12.68685         6.54947
     2013.99589       -10.54614         6.59129
     2013.99863        -3.67544         6.71345
     2014.00410        -6.42502         6.74757
     2014.00684       -10.67231         6.79159
     2014.00958       -10.48760         6.53626
     2014.01232        -5.61190         6.62871
     2014.01505        -5.57219         6.80150
     2014.01779        -3.11648         6.77949
     2014.02053        -4.49377         6.58028
     2014.02327         0.22094         6.84332
     2014.02600         0.02664         6.84772
     2014.02874        -4.98165         6.74867
     2014.03148         6.11206         6.53296
     2014.03422        -1.54723         6.63751
     2014.03696         0.87248         6.57368
     2014.03969        -6.15582         6.59459
     2014.04243        -7.60711         6.74647
     2014.04517         1.73360         6.65732
     2014.04789        -4.42964         6.79819
     2014.05063        -2.33193         6.47573
     2014.05336        -4.02922         6.56157
     2014.05612        -3.88957         6.65842
     2014.05886        -4.68386         6.64412
     2014.06160        -0.87415         6.59459
     2014.06433         1.37455         6.82461
     2014.06707         1.12926         6.80590
     2014.06981        -2.26803         6.55827
     2014.07252         2.85475         6.60339
     2014.07528        -1.95758         6.60009
     2014.07801        -5.90786         6.78939
     2014.08076         0.74680         6.89284
     2014.08350         2.07351         6.54396
     2014.08624        -3.16478         6.76628
     2014.09017        21.12030        25.57165
     2014.09171        -1.00737         7.25603
     2014.09445        -4.83666         6.84002
     2014.09709        -4.24065         6.89064
     2014.09995         2.56069         6.65292
     2014.10267        -2.92056         6.61330
     2014.10540        -0.85283         6.53186
     2014.10814         0.57888         6.76628
     2014.11088         2.91859         6.83671
     2014.11362        -3.10570         6.79599
     2014.11635        -4.47699         6.74867
     2014.11909        -4.18329         6.75747
     2014.12183        -2.24658         6.89615
     2014.12456        -0.79786         9.31189
     2014.12735         2.86771         6.85983
     2014.13004         0.42955         6.66503
     2014.13278         2.42425         6.90605
     2014.13536         8.65244         7.53227
     2014.13826        -3.11833         7.58290
     2014.14099         6.62638         6.54506
     2014.14373        -1.74491         6.49664
     2014.14647        -0.47321         6.75637
     2014.14921         0.54350         7.01281
     2014.15195        -1.69879         6.71565
     2014.15468         0.77993         6.88954
     2014.15741         3.04867         6.92476
     2014.16016        -1.57867         6.82791
     2014.16290        -4.11696         7.13937
     2014.16564        -4.03325         6.79709
     2014.16837        -5.03554         7.04582
     2014.17111        -1.38184         7.27584
     2014.17385        -2.55013         7.24502
     2014.17659         0.56258         7.06123
     2014.17936         3.52117         7.14267
     2014.18206         0.06800         7.02821
     2014.18480        -1.29030         7.47724
     2014.18754        -2.97759         7.43762
     2014.19028        -8.44088         6.94127
     2014.19301        -3.54517         6.94457
     2014.19575        -1.54946         6.82021
     2014.19849       -11.54976         7.36829
     2014.20123         0.82995         7.39030
     2014.20399       -12.18843         6.85983
     2014.20670        -5.31963         6.86313
     2014.20944         2.79008         6.78719
     2014.21218        -3.53122         6.92696
     2014.21492        -0.06951         6.90275
     2014.21765        -0.70880         6.72666
     2014.22039        -4.89009        10.63036
     2014.22313        -6.29238         6.87193
     2014.22587        -4.61668         7.16028
     2014.22861        -1.06297         6.83561
     2014.23134         5.69074         6.79819
     2014.23408        -0.60055         6.71455
     2014.23659        -6.44115         7.64123
     2014.24049        -4.94596        13.54796
     2014.24230         2.57857         6.82901
     2014.24501        -5.08665         7.26594
     2014.24777         3.84299         7.22191
     2014.25051       -11.95630         6.61330
     2014.25325        -7.11860         6.83011
     2014.25598        -0.88889         6.90935
     2014.25872        -3.61218         7.82392
     2014.26146        -0.76947         6.98419
     2014.26420        -8.84776         6.69914
     2014.26694        -2.28206         6.83341
     2014.26967        -5.41535         6.80590
     2014.27241        -4.73764         6.99850
     2014.27464        -2.40638         8.66365
     2014.28084        -8.07517         7.28354
     2014.28336        -0.94781         6.63641
     2014.28610         4.21890         6.80590
     2014.28884         5.13261         7.08764
     2014.29158        -4.15069         6.81360
     2014.29431         0.15802         6.66833
     2014.29705         2.93973         7.10635
     2014.29979        -6.08556         6.74757
     2014.30253        -1.72685         6.76298
     2014.30527         6.06785         6.61990
     2014.30800         0.28356         6.72886
     2014.31074         1.33527         6.94897
     2014.31348        -2.79102         6.80700
     2014.31622         0.29569         6.72556
     2014.31895        -0.76861         6.88954
     2014.32169        -7.27090         7.05022
     2014.32443       -11.51919         7.29125
     2014.32717        -7.88848         6.92916
     2014.32991         3.05923         6.67713
     2014.33264        -0.99507         6.79599
     2014.33538        -1.31736         6.71895
     2014.33812        -2.56765         6.88404
     2014.34086         1.34606         6.84332
     2014.34360        -7.98623         6.93577
     2014.34633        -5.86653         6.66723
     2014.34907        -7.70982         7.11516
     2014.35181         2.49189         7.07224
     2014.35455        -2.68940         6.75857
     2014.35728        -9.15069         6.84442
     2014.36002       -10.42199         6.91596
     2014.36276        -3.83928         6.78389
     2014.36550        -2.75557         6.85873
     2014.36824        -4.92586         6.99630
     2014.37097         0.23785         6.94677
     2014.37371        -6.96645         6.93907
     2014.37645        -0.64574         6.93246
     2014.37919        -3.38203         7.03812
     2014.38193        -9.81132         6.89174
     2014.38466         0.15538         7.15478
     2014.38740         1.53609         7.02161
     2014.39014        -7.99420         7.23732
     2014.39288        -3.68249         6.95227
     2014.39561        -5.81778         6.80920
     2014.39838        -7.55216         6.97098
     2014.40109        -3.95637         6.95337
     2014.40383       -10.71366         7.16688
     2014.40657        -6.91095         6.97539
     2014.40930        -6.73024         6.85542
     2014.41204        -7.75354         6.80590
     2014.41480        -2.30389         6.87744
     2014.41752         2.38988         6.97979
     2014.42026        -3.04643         7.11076
     2014.42299        -9.31770         6.89835
     2014.42573        -1.22400         6.87964
     2014.42847        -0.38129         6.82461
     2014.43121        -7.47958         6.86643
     2014.43394        -4.03087         6.87854
     2014.43668        -5.52916         7.09645
     2014.43942        -5.63046         6.88074
     2014.44216       -11.77975         6.81030
     2014.44490        -6.43704         7.04582
     2014.44763        -1.36933         7.13607
     2014.45037        -0.11662         6.79489
     2014.45311        -4.92292         6.85542
     2014.45585         2.35579         6.82021
     2014.45859        -7.05250         6.84772
     2014.46132        -2.65079         6.72005
     2014.46406        -5.94508         6.90055
     2014.46680         2.24562         7.10525
     2014.46954        -7.88167         6.90935
     2014.47227        -2.38696         6.71455
     2014.47501        -5.16725         7.04912
     2014.47775        -2.85655         6.74317
     2014.48049        -1.11084         6.91596
     2014.48323         0.21687         7.16138
     2014.48596        -3.44742         7.17899
     2014.48870         7.67829         6.79930
     2014.49144         3.41899         6.80920
     2014.49418         0.67470         6.62320
     2014.49692        -3.49760         6.68374
     2014.49965        -4.54288         6.96328
     2014.50239         1.56583         6.82131
     2014.50513         3.21353         7.06123
     2014.50787         3.94924         6.85322
     2014.51060         3.83895         6.84222
     2014.51334         4.72766         6.75857
     2014.51608        11.08437         6.85873
     2014.51882         3.71007         6.80700
     2014.52156        14.71778         6.90055
     2014.52429         4.66249         6.64852
     2014.52703         6.86620         6.77398
     2014.52977         0.35391         6.74207
     2014.53251        -1.00539         6.84552
     2014.53525         9.52832         6.70905
     2014.53798         9.17803         6.96768
     2014.54072         9.58474         6.82241
     2014.54346         3.67445         6.63201
     2014.54620         0.02715         6.74427
     2014.54893        -4.86114         6.76188
     2014.55169         3.71753         6.78389
     2014.55441         3.47128         6.83231
     2014.55715         0.97199         7.20761
     2014.55989        -0.42731         6.72336
     2014.56262         7.21640         6.78609
     2014.56536         3.74511         6.69694
     2014.56810         0.45782         6.68704
     2014.57084         1.57053         6.71455
     2014.57357         5.99023         6.62761
     2014.57631         0.53394         6.65512
     2014.57905        10.90365         6.61660
     2014.58179        -0.76864         6.97649
     2014.58453         1.40606         6.77728
     2014.58726         4.44477         7.06453
     2014.59000         5.59048         6.82681
     2014.59274         2.13719         6.65842
     2014.59548         2.05290         6.72116
     2014.59822         5.55760         6.84112
     2014.60095         0.49231         6.83231
     2014.60369         2.36802         6.94567
     2014.60643         0.92473         6.77068
     2014.60917        -0.99256         7.15148
     2014.61190         1.49414         7.19220
     2014.61464        -1.77515         7.20981
     2014.61739         7.89355         7.47944
     2014.62012        -2.40173         7.04912
     2014.62286         1.50598         6.76738
     2014.62559         7.01468         6.84112
     2014.62833        -1.59761         6.90825
     2014.63107        -1.59890         7.16798
     2014.63381         7.89181         6.77838
     2014.63655         4.70552         6.75747
     2014.63928         3.33422         6.95668
     2014.64202         1.53493         6.83892
     2014.64476         9.34264         6.91375
     2014.64750         2.32235         6.83892
     2014.65023         8.63906         6.92806
     2014.65297        14.30176         7.21641
     2014.65571         6.62747         7.03372
     2014.65845         6.91618         6.87523
     2014.66119         7.07989         6.99740
     2014.66392        11.54960         6.60229
     2014.66666         8.20530         6.68924
     2014.66940         8.54001         6.93687
     2014.67214         2.65772         6.89284
     2014.67488         4.35843         6.78389
     2014.67761         5.67814         6.77068
     2014.68035         1.88184         6.65732
     2014.68309        -2.05045         6.75747
     2014.68583         6.30726         7.10855
     2014.68856         4.25597         6.79709
     2014.69130         1.30767         6.81911
     2014.69404        -2.20662         6.67603
     2014.69678        -0.37391         6.77178
     2014.69952        15.25380         6.79819
     2014.70225         9.28451         6.84552
     2014.70499         4.34021         6.71895
     2014.70773         7.94592         7.16578
     2014.71047         4.02163         6.83451
     2014.71321        15.97734         6.88184
     2014.71594        -0.29195         6.95558
     2014.71868         7.12075         6.70905
     2014.72140        12.42851         6.97759
     2014.72416         4.70117         6.73546
     2014.72689        16.55688         7.52347
     2014.72963         1.64159         6.99299
     2014.73237        11.96929         6.79819
     2014.73511        -3.55000         6.78059
     2014.73785        -0.69529         6.65952
     2014.74058         0.43342         6.79930
     2014.74332         6.06013         7.16909
     2014.74606         9.10283         7.07003
     2014.74880        -1.47346         6.64081
     2014.75154         5.22225         6.79379
     2014.75427         0.84696         6.89835
     2014.75701         3.86567         7.16358
     2014.75975         2.07137         7.13607
     2014.76249        10.28808         6.91485
     2014.76522         4.64479         6.70024
     2014.76793        -3.97942         6.94457
     2014.77002         8.06928         9.35151
     2014.79072        -6.75343        12.09632
     2014.79260        10.66087         6.79599
     2014.79534        10.04258         6.85102
     2014.79808         1.44128         7.10965
     2014.80082         6.75499         6.88844
     2014.80355        13.06170         7.05022
     2014.80629        -0.12259         6.82791
     2014.80903         1.53212         7.22852
     2014.81177         7.56082         6.84772
     2014.81451        -2.51547         6.94677
     2014.81724         6.96724         7.00070
     2014.81998         5.51495         6.80040
     2014.82272         3.14066         7.29015
     2014.82546         6.89636         6.78939
     2014.82820        -0.89093         6.78829
     2014.83093         8.09778         6.96768
     2014.83367        -0.98451         6.84442
     2014.83641        -9.80880         6.83892
     2014.83915        -0.77110         7.59941
     2014.84190         5.53957         7.00070
     2014.84465        -0.71975         7.00180
     2014.84738        -9.14504         7.35068
     2014.85010        -0.47126         6.92916
     2014.85284        -0.32656         6.84772
     2014.85557        -3.14885         7.16138
     2014.85831         5.23486         6.89835
     2014.86105        -0.93043         6.81030
     2014.86377         1.46232         7.13277
     2014.86653         1.89398         7.04692
     2014.86926        -3.93131         6.82901
     2014.87200         4.54240         6.91265
     2014.87474        -1.14189         6.80260
     2014.87748        -1.30118         6.75747
     2014.88021        -0.10948         6.84772
     2014.88295        -4.89277         7.00290
     2014.88569         4.90594         7.26043
     2014.88843         3.21965         7.13827
     2014.89120        10.42725         7.33857
     2014.89390        -1.49394         7.30666
     2014.89664         2.44477         7.13057
     2014.89938         0.31148         7.02491
     2014.90212        -7.45581         7.27364
     2014.90485        -2.56011         7.17019
     2014.90759        -6.33640         7.26924
     2014.91033        -5.73669         7.19110
     2014.91306         4.19603         6.80590
     2014.91581         7.89573         6.74977
     2014.91854        -0.12457         6.92806
     2014.92127        -2.65881         6.73106
     2014.92402         3.46885         6.72776
     2014.92676         1.54356         7.45743
     2014.92950        -3.27073         7.04582
     2014.93223         0.99997         6.98089
     2014.93497        -4.65332         6.71895
     2014.93771        -3.35361         7.11406
     2014.94045        -6.37990         7.18009
     2014.94318         7.61082         7.70616
     2014.94592        -4.13949         6.54727
     2014.94865       -10.11173         6.86753
     2014.95140        -9.99808         6.61000
     2014.95414        -0.05436         6.83782
     2014.95687         0.58735         6.63861
     2014.95961         6.33705         6.62871
     2014.96235         2.96176         6.83231
     2014.96509        -6.00153         6.96438
     2014.96783       -11.59482         6.95668
     2014.97056        -3.17711         6.84222
     2014.97330        -5.86141         6.73656
     2014.97604        -2.95670         6.95337
     2014.97878        -8.52299         7.11626
     2014.98151         3.64372         6.90055
     2014.98425        -4.02057         6.92696
     2014.98699         3.64413         6.73106
     2014.98974        -1.93319         6.92036
     2014.99247        -2.06545         6.74537
     2014.99520        -7.77574         6.89615
     2014.99794         3.41097         6.68594
     2015.00068        -1.47033         6.55277
     2015.00342        -2.23162         6.49224
     2015.00616        -7.24691         6.58799
     2015.00889        -4.53020         7.20871
     2015.01162         4.16253         7.58290
     2015.01437        -7.00679         6.72996
     2015.01711         0.39792         7.42552
     2015.01984         5.35063         7.19770
     2015.02258         3.65334         7.37379
     2015.02531        -1.11391         7.43212
     2015.02806        -3.27025         7.28685
     2015.03080        -0.58954         6.73326
     2015.03353         0.36917         7.37159
     2015.03627         7.02688         7.25053
     2015.03900       -10.22139         7.56969
     2015.04175         7.43529         6.84112
     2015.04449         0.37000         6.90165
     2015.04722        10.20271         6.99740
     2015.04996         5.05342         7.02271
     2015.05270        -7.67588         7.20871
     2015.05544        -5.94417         6.95558
     2015.05817         2.35354         7.17239
     2015.06091         1.03825         7.18890
     2015.06365        10.25096         8.03413
     2015.06637         8.30971         7.33747
     2015.06913         0.19437         6.75527
     2015.07186        -8.76292         7.23512
     2015.07460        -5.68121         6.67053
     2015.07734        -3.28350         6.74207
     2015.08008        -5.98280         6.65292
     2015.08282        -6.52312         6.82901
     2015.08554        -2.10634         6.74427
     2015.08829        -0.57767         7.05353
     2015.09103         3.68804         6.66723
     2015.09377        11.37074         6.80920
     2015.09650         6.07345         7.00840
     2015.09924         2.22716         7.20430
     2015.10198         8.27587         6.96878
     2015.10472         0.46758         6.71565
     2015.10746         1.94128         6.68153
     2015.11018         0.09002         7.38039
     2015.11293        -0.23330         8.20142
     2015.11567        -4.39559         7.11186
     2015.11841       -10.66389         6.62210
     2015.12115        -5.61718         7.01501
     2015.12388         3.07353         6.86533
     2015.12662         3.28424         6.75197
     2015.12936         0.81995         6.95227
     2015.13210        -3.76335         7.32867
     2015.13484        -6.04567         6.63311
     2015.13757         5.01007         6.84882
     2015.14031         2.64978         6.78939
     2015.14305         4.98249         6.74537
     2015.14579         0.63919         6.70245
     2015.14852        -3.31910         7.27584
     2015.15126         0.26261         6.82241
     2015.15400        -3.58868         6.67603
     2015.15674         9.30703         7.13057
     2015.15948         8.51273         6.70465
     2015.16221        -3.64456         6.86423
     2015.16495         0.97915         6.72886
     2015.16769         2.74786         6.59349
     2015.17043        -0.79043         6.70245
     2015.17316        -0.50273         7.60381
     2015.17590        -4.43002         7.18339
     2015.17864        -4.46531         6.57698
     2015.18138         3.87840         6.87964
     2015.18412         8.21611         6.70575
     2015.18685         4.83881         7.27474
     2015.18959         8.23452         7.30115
     2015.19233        -0.64677         7.07994
     2015.19507         1.60494         6.62100
     2015.19780        -0.49035         6.74977
     2015.20054        10.26035         7.76669
     2015.20328        -6.05694         6.59239
     2015.20602        -9.26523         7.08434
     2015.20876        -4.40652         6.71675
     2015.21149        -0.59182         6.70905
     2015.21423        -1.15511         6.92256
     2015.21697        -0.40740         6.79159
     2015.21971        -2.10169         6.59569
     2015.22245        -0.29698         6.75527
     2015.22518         0.50972         6.80370
     2015.22792         3.13443         6.76738
     2015.23069        -3.19696         7.07884
     2015.23341        -2.07018         7.02381
     2015.23613         1.01256         7.06783
     2015.23887        -0.84874         7.12726
     2015.24161         6.22797         6.97979
     2015.24435        -0.20332         7.28134
     2015.24709         1.22339         6.91706
     2015.24982        -4.36690         6.87633
     2015.25256        -2.18620         6.70905
     2015.25530         9.47551         7.05022
     2015.25804        -2.33578         6.80260
     2015.26078         3.65793         6.77508
     2015.26351         4.82064         6.64522
     2015.26625        -5.12366         6.80920
     2015.26899         6.32005         6.61110
     2015.27173         5.48576         6.82351
     2015.27446        10.88647         7.04802
     2015.27720         5.28618         6.72776
     2015.27994        -2.12012         6.69474
     2015.28268         6.46959         6.79930
     2015.28542         2.32930         6.82351
     2015.28815        -7.35399         6.80260
     2015.29089        -0.93128         6.67933
     2015.29362         1.58447         6.59459
     2015.29635         1.39217         6.66062
     2015.29911         3.21384         6.83892
     2015.30184        -0.11045         6.76958
     2015.30458         3.73026         6.71235
     2015.30732         9.27396         6.49774
     2015.31006         1.24967         6.76628
     2015.31279        -3.27462         6.63861
     2015.31553        -1.25091         6.46692
     2015.31827        -5.13421         6.66283
     2015.32101        -5.42750         6.78719
     2015.32375         6.98321         6.90275
     2015.32648        -3.56508         6.74977
     2015.32921        -2.36033         6.80370
     2015.33194         6.06039         6.65512
     2015.33470        -0.98796         6.52966
     2015.33744        -2.00825         6.58909
     2015.34017         5.35446         6.85542
     2015.34289         1.20022         6.79489
     2015.34566        -4.38017         6.67823
     2015.34839         3.20558         6.58248
     2015.35112         0.84029         6.72226
     2015.35386        -0.99100         6.73986
     2015.35660        -1.36529         6.70245
     2015.35934        -4.85259         7.17789
     2015.36208        -1.76488         6.73546
     2015.36481         2.32183         6.66062
     2015.36755         5.77054         7.02601
     2015.37029         6.74225         6.77508
     2015.37303        -2.50305         6.58909
     2015.37577        -3.95634         6.73766
     2015.37850        -3.75863         7.22191
     2015.38124        -1.88592         6.80810
     2015.38398         1.67979         6.79049
     2015.38672        -2.77251         6.77508
     2015.38945        -0.51080         6.69804
     2015.39219        -0.63809         6.61880
     2015.39499         6.65943         7.08984
     2015.39767        -2.81767         6.93577
     2015.40041         5.53803         6.79599
     2015.40314        -0.58026         6.94897
     2015.40588        -2.62955         6.55827
     2015.40862        -0.46084         7.04362
     2015.41136         2.31687         7.02711
     2015.41410         2.29457         7.53557
     2015.41683         2.53528         7.45853
     2015.41960        -1.57410         7.40461
     2015.42231        -2.57432         7.12396
     2015.42505        -1.50660         6.88734
     2015.42778         4.25011         6.99740
     2015.43052         4.43282         7.34738
     2015.43326         4.20753         7.02821
     2015.43598        -0.72471         7.19110
     2015.43876         2.42587         6.94347
     2015.44147        -3.33335         7.36829
     2015.44421         1.39936         7.28464
     2015.44695         3.65007         6.92146
     2015.44969         1.60178         7.26483
     2015.45243         0.38448         7.07994
     2015.45516        -1.08781         6.72886
     2015.45790        -6.11210         7.18119
     2015.46066         5.41155         6.86753
     2015.46338         7.31932         6.84442
     2015.46611         7.30802         6.79489
     2015.46883         4.29679         7.15478
     2015.47159         2.20244         6.84992
     2015.47433        -1.31985         7.35838
     2015.47707         3.58886         7.67094
     2015.47980         2.44056         7.12176
     2015.48254         0.71227         7.03812
     2015.48528        -8.62602         7.96149
     2015.48802         0.55769         7.36829
     2015.49077        -7.04066         7.34187
     2015.49349         3.16010         7.14157
     2015.49623         5.51383         7.21531
     2015.49897        -0.14848         7.06233
     2015.50171         3.99023         6.78059
     2015.50444         8.09694         6.79269
     2015.50718         0.33364         6.84442
     2015.50992         4.86735         6.78279
     2015.51266         4.32506         6.86313
     2015.51540         0.77777         6.97318
     2015.51813        11.83848         6.84002
     2015.52087        12.33718         6.69144
     2015.52361         6.44689         7.06563
     2015.52635         0.04160         6.67493
     2015.52908         5.25731         6.83671
     2015.53182         1.01801         6.68814
     2015.53456         0.06272         6.61000
     2015.53730         2.57343         6.80590
     2015.54004         3.75314         7.19990
     2015.54277        14.16785         7.17239
     2015.54551         6.22655         6.84442
     2015.54825         4.22826         7.20981
     2015.55099        15.20697         7.70066
     2015.55373         4.22168         6.95007
     2015.55648        14.84934         7.08764
     2015.55920         2.25809         7.03702
     2015.56194         5.11280         7.02491
     2015.56468        11.41251         7.02711
     2015.56741         5.54822         6.96328
     2015.57014         7.99197         7.75349
     2015.57289         1.28863         7.70066
     2015.57563         9.59034         7.71497
     2015.57837         7.42305         7.97250
     2015.58110         9.14276         7.27034
     2015.58384         1.26647         7.05683
     2015.58658        -0.35983         7.59390
     2015.58932         1.06188         7.13277
     2015.59206        -2.67044         7.30446
     2015.59479         7.87530         7.61592
     2015.59753        13.83701         7.18339
     2015.60025        14.33177         7.79201
     2015.60301         8.53242         7.27914
     2015.60572        11.00820         8.11887
     2015.60848        15.29884         7.27364
     2015.61122         6.82955         7.30556
     2015.61396        15.19025         7.51686
     2015.61670         9.58296         7.00950
     2015.61943         6.87167         6.84002
     2015.62217         2.99038         7.10965
     2015.62491        12.59009         7.06563
     2015.62765         9.55379         6.92146
     2015.63039         6.26050         6.76298
     2015.63312        13.23821         7.21751
     2015.63587         2.68490         7.45633
     2015.63860         4.83562         6.93907
     2015.64134         7.40533         7.28024
     2015.64407        -4.78796         7.03702
     2015.64681         2.63075         7.14487
     2015.64955         5.46446         6.97979
     2015.65229        -0.31284         6.97098
     2015.65503        15.78187         7.17459
     2015.65776        -6.28642         7.99231
     2015.66050        17.63029         7.11406
     2015.66324        14.28800         7.29345
     2015.66598         7.95370         6.89394
     2015.66872         9.95341         7.40571
     2015.67145         8.39112         7.11186
     2015.67419         6.40783         6.98309
     2015.67693         5.95454         6.92696
     2015.67967         5.61124         7.55098
     2015.68240         9.15795         7.69185
     2015.68514         7.07866         7.64013
     2015.68788         5.53537         6.96328
     2015.69062        12.66908         8.17830
     2015.69336         4.04378         7.41121
     2015.69609         2.16049         7.30886
     2015.69883        19.15120         7.73588
     2015.70157         2.85391         7.31986
     2015.70431        12.18662         7.36168
     2015.70705        13.32332         8.02423
     2015.70981        11.02796         7.27144
     2015.71252         0.70474         7.15148
     2015.71526        -0.61655         7.07334
     2015.71800         9.75416         7.50696
     2015.72073        11.79586         7.03702
     2015.72347         3.30757         7.06673
     2015.72621         0.04228         7.64013
     2015.72895         2.20899         7.41561
     2015.73169         9.08470         6.99299
     2015.73442         5.32140         6.86313
     2015.73705        -1.42354         7.49155
     2015.73992        13.02575         7.42112
     2015.74264         1.91453         6.98309
     2015.74538         6.22323         7.13497
     2015.74811         0.38994         7.28464
     2015.75083        -2.86529         7.04032
     2015.75360         9.41033         7.74908
     2015.75633         7.13907         7.41891
     2015.75910        -2.07333         7.78100
     2015.76180        -4.43452         8.16840
     2015.76454         6.31519         7.62362
     2015.76729        14.13487         7.75459
     2015.77002        -7.65739         7.55098
     2015.77277         7.54827         7.47064
     2015.77549         3.50202         7.33967
     2015.77823        20.59773         8.02423
     2015.78097         7.71144         7.41341
     2015.78371        10.35015         7.24502
     2015.78644         9.54885         7.77550
     2015.78915         4.51266         8.04293
     2015.79193        12.17224         7.42332
     2015.79466         8.46998         6.93577
     2015.79739       -10.57731         8.86176
     2015.80013         3.49939         7.44863
     2015.80287        -3.12790         7.47724
     2015.80562        -3.52223         7.27034
     2015.80835         0.12352         7.18559
     2015.81108        12.15723         8.06605
     2015.81382        -6.70707         7.40241
     2015.81656         4.06964         7.14597
     2015.81930        -8.52765         7.42662
     2015.82202        -1.15389         7.26263
     2015.82477         8.81777         8.43253
     2015.82751        -8.27053         7.97580
     2015.83022         0.28528         7.54548
     2015.83299        -0.61311         7.94939
     2015.83572         5.91060         7.65003
     2015.83846        -3.72070         7.21311
     2015.84120        -2.28699         7.28905
     2015.84395         4.50569         7.93838
     2015.84668         6.75143         7.89326
     2015.84941        -8.86786         7.91087
     2015.85215         1.34384         7.50916
     2015.85489         7.05655         8.06605
     2015.85762        -0.45271         7.49595
     2015.86032        -0.18789         7.79311
     2015.86311        -7.86335         7.75899
     2015.86584         2.15038         7.36499
     2015.86858         0.35809         9.84896
     2015.87132        -0.06320         8.79902
     2015.87405         1.27951         8.01542
     2015.87678       -11.81975         9.05546
     2015.87953        -3.88008         7.38370
     2015.88227        -7.12037         8.22123
     2015.88501       -15.64866         9.68388
     2015.88777        -0.18604         7.41341
     2015.89048        -3.62224         7.58620
     2015.89322         1.26746         7.72157
     2015.89596        -2.21983         7.48055
     2015.89869        -6.09712         7.46404
     2015.90143        -0.75441         7.62252
     2015.90417         8.45430        11.66490
     2015.90691        -1.76800         7.86684
     2015.90965         4.22371         7.53998
     2015.91238        -7.48058         7.91747
     2015.91512       -11.29787         7.72047
     2015.91786         1.82484         8.05394
     2015.92060        -2.81446         8.35660
     2015.92334        -8.05275         8.29276
     2015.92607        -3.82104         7.62692
     2015.92880       -10.79429         7.91857
     2015.93155         0.66338         9.69819
     2015.93426        -3.06284         7.94388
     2015.93702         2.17879         7.59280
     2015.93976        -4.86450         7.69956
     2015.94250        -7.32779         8.37200
     2015.94524        -5.41509         7.76669
     2015.94798         6.46162         7.57629
     2015.95064        -7.66944        11.78486
     2015.95351        -9.58113         8.53159
     2015.95619        -4.91025         7.81402
     2015.95893        -0.68855         9.78293
     2015.96167         4.62716         7.56969
     2015.96440         6.77587         8.30927
     2015.96714         5.41258         9.37242
     2015.96988         4.93529         7.29015
     2015.97262         4.41499         7.82832
     2015.97533         7.20977         8.33789
     2015.97807         7.34148         8.39622
     2015.98088        -4.16003         7.28575
     2015.98357        -9.53217         8.08586
     2015.98631        -5.83047         8.64715
     2015.98905        -0.76279         8.91128
     2015.99178        -6.05105         7.77440
     2015.99451       -13.73830         7.90757
     2015.99726        -7.50363         7.43322
     2015.99996        -6.36781         8.13208
     2016.00278        -2.18636         8.28396
     2016.00547        -5.64551         8.24544
     2016.00821        -0.18080         7.62142
     2016.01095        -3.79609         8.80122
     2016.01368        -6.81539         7.39360
     2016.01642        -4.53468         8.51618
     2016.01916        -2.96097         8.43253
     2016.02188        -8.46120         9.05876
     2016.02463       -11.57353        10.47849
     2016.02741         1.31204         9.94691
     2016.03016        -2.62128         8.01432
     2016.03285        -4.50643         8.08035
     2016.03562       -15.02981         7.98901
     2016.03833         2.20499         7.25493
     2016.04106         8.68569         8.18821
     2016.04380         1.88840         8.97511
     2016.04654         4.35111         8.10237
     2016.04928         0.42482         9.06096
     2016.05200        -4.89142         8.29496
     2016.05475        -0.98577         8.34779
     2016.05749       -16.50206         9.93151
     2016.06022       -11.99334         9.15120
     2016.06298        -4.40367        12.03689
     2016.06572        -1.35599         8.08145
     2016.06844        -9.10223         8.30047
     2016.07118        -9.28052         8.86286
     2016.07392        -7.12081         8.07815
     2016.07665       -14.18809        11.92683
     2016.07941         0.16555         7.42882
     2016.08212        -1.90966         9.14130
     2016.08487        -6.54598         9.64866
     2016.08761       -11.32627         7.28685
     2016.09034       -15.28456         8.75830
     2016.09311       -15.53794         9.48578
     2016.09582        -8.70215         7.03702
     2016.09852         2.49368         8.68787
     2016.10116        -1.72233        11.50972
     2016.10405        -8.43107         7.40681
     2016.10677        -5.68232         7.82612
     2016.10951       -10.78061         8.49086
     2016.11230        -5.44806         8.76821
     2016.11500        -1.98924         7.87345
     2016.11772       -14.64148         6.77618
     2016.12046       -15.50878         8.51398
     2016.12320        -0.29007         7.55869
     2016.12594        -4.82936         7.17349
     2016.12867        -2.68365         6.99189
     2016.13138        -0.46686         7.36719
     2016.13415        -2.56725         6.99299
     2016.13689       -10.49953         7.99561
     2016.13957         0.79735         8.39512
     2016.14237       -13.23414         8.16180
     2016.14511       -12.87042         7.43762
     2016.14784       -14.02170         7.61702
     2016.15060        -5.89305         6.81470
     2016.15331        -3.32828         8.00331
     2016.15605        -7.27257         7.63793
     2016.15878       -19.13082         8.37971
     2016.16151        -2.90510         8.19371
     2016.16427         0.10255         8.18381
     2016.16700        -3.06574         8.67466
     2016.16974       -13.14003         8.06935
     2016.17247        -8.89928         8.25644
     2016.17524        -4.32468         8.49857
     2016.17796        -0.17691         7.25053
     2016.18069         0.81880         7.47174
     2016.18343        -3.74749         9.09618
     2016.18617        -3.14679         6.78389
     2016.18891        -8.20908         6.94457
     2016.19164        -5.53337         6.56928
     2016.19438        -6.74766         7.41231
     2016.19712         1.74805         7.23072
     2016.19986         2.27175         7.55648
     2016.20260       -10.61354         7.07554
     2016.20533        -8.60583         7.13057
     2016.20807       -11.18312         6.99520
     2016.21076        -7.43026         7.64893
     2016.21355         0.50928         7.10855
     2016.21629        -7.54900         8.45345
     2016.21902        -7.71629         7.00840
     2016.22172        -5.80947         7.15808
     2016.22450        -3.57587         6.61550
     2016.22724       -12.58217         7.95269
     2016.23000         2.36747         8.61523
     2016.23271        -7.78075         7.34297
     2016.23545        -7.61904         6.71015
     2016.23819        -5.25733         7.37929
     2016.24093        -6.49563         6.71015
     2016.24366        -8.47892         7.59390
     2016.24640        -3.48221         6.72336
     2016.24914        -8.16650         6.61880
     2016.25188        -9.28379         7.91197
     2016.25462       -17.06409         8.44244
     2016.25734        -3.73134         7.45413
     2016.26009         1.36733         7.46954
     2016.26283       -16.76598         8.04844
     2016.26557        -7.97226         7.04032
     2016.26830        -4.01955         6.96438
     2016.27103         0.42019         7.22852
     2016.27378        -0.02513         7.96149
     2016.27652        -5.63942         7.02271
     2016.27926       -12.46572         8.17390
     2016.28194       -13.49383        12.35165
     2016.28475        -1.09134         6.59899
     2016.28750        -9.70668         8.81443
     2016.29020        -7.94887         6.77398
     2016.29296        -4.57723         9.43735
     2016.29568        -8.05347         7.18890
     2016.29842        -5.61176         8.50297
     2016.30114       -10.79298         8.64054
     2016.30390        -4.91736         8.23333
     2016.30663        -0.83164         8.34339
     2016.30937        -3.64493         7.04032
     2016.31211       -12.17922         7.26263
     2016.31485        -2.06751         7.64013
     2016.31759        -6.99980         6.78389
     2016.32032        -9.06810         7.22301
     2016.32306       -11.51539         6.89394
     2016.32580       -11.61468         6.84882
     2016.32854        -7.13897         7.01501
     2016.33128        -1.35426         7.40461
     2016.33403        -0.11560         8.02643
     2016.33675       -10.58385         7.24833
     2016.33949       -10.35414         7.34408
     2016.34222        -1.05542         8.94980
     2016.34501       -13.61785         8.05174
     2016.34768        -4.80694         7.34187
     2016.35044        10.69669         7.85364
     2016.35318        -5.23060         6.60229
     2016.35592        -4.55389         6.71785
     2016.35865        -9.55618         7.91307
     2016.36139       -12.05248         8.10787
     2016.36413         5.11623         7.83163
     2016.36688         2.94890         8.12768
     2016.36961        10.04265         7.18890
     2016.37237         8.29627         7.25383
     2016.37508         1.22906         8.28506
     2016.37782       -18.81723         7.18009
     2016.37979        -0.79419        10.34972
     2016.39514        -3.12569        11.97856
     2016.39698         8.53773         6.99630
     2016.39972         5.83343         7.02601
     2016.40246        -5.28686         7.36609
     2016.40520         0.13485         8.98172
     2016.40794        -2.32446         6.84552
     2016.41067        -1.62073        12.37476
     2016.41342       -17.98807        10.72171
     2016.41614       -10.12230         6.76848
     2016.41893        -1.68274         8.89367
     2016.42162         0.25310         7.72377
     2016.42436        -9.74419         7.88775
     2016.42710        -3.67249         8.80453
     2016.42975       -18.38452        13.97058
     2016.43256         0.20799        13.21229
     2016.43535         1.51354         7.91087
     2016.43805         8.24435         7.96039
     2016.44079       -19.37295        14.09054
     2016.44352        -3.97822         9.45386
     2016.44626       -11.00953         6.77288
     2016.44900         6.12618         9.12259
     2016.45175        13.99086         9.85116
     2016.45448         9.05358         9.83466
     2016.45722        -4.37970         7.94388
     2016.45995        -9.21599        11.23458
     2016.46271         4.27467        10.40915
     2016.46545         4.63537        12.88983
     2016.46815         7.07018        10.94513
     2016.47090         7.88386        11.72323
     2016.47365       -10.96647        12.90413
     2016.47638        11.37527        15.08325
     2016.47913        12.80792        12.82930
     2016.48188        10.54062         7.69295
     2016.48459         3.18538         8.11007
     2016.48723        -6.14659         7.45193
     2016.49017        15.99549        12.84360
     2016.49285         3.51237         8.33458
     2016.49554         3.11423         7.71497
     2016.49828         8.09992        15.42223
     2016.50105         6.12854         7.12286
     2016.50375        -1.85562        13.03400
     2016.50651        -0.53598         9.58923
     2016.50924        -0.03425         7.45963
     2016.51206        -2.07880         7.55538
     2016.51471         4.98017         8.13098
     2016.51745        -1.65912         8.01322
     2016.52019        -0.28842         9.98323
     2016.52294        -1.47575        16.22234
     2016.52566        -2.91300         7.43212
     2016.52840         3.53771         7.93178
     2016.53102        -3.25124         6.96548
     2016.53388         1.36012         7.19880
     2016.53661         7.25983         7.47614
     2016.53935         4.89254         8.82214
     2016.54209        -0.60975         7.63683
     2016.54484       -11.03607        10.72061
     2016.54760       -14.99444        12.91074
     2016.55030         2.87837        10.42126
     2016.55303        28.68912        11.25659
     2016.55582        -1.31833         9.15120
     2016.55852         5.22150         7.86684
     2016.56125         3.65120        12.80508
     2016.56402        -8.66918        24.19704
     2016.56685         7.11424         7.78980
     2016.56947        -3.31367         8.80343
     2016.57221        10.88803         6.85763
     2016.57486        15.18400         9.80714
     2016.57768        -1.21955         6.79930
     2016.58042       -15.79384        14.89176
     2016.58311         3.09801         7.10635
     2016.58596        -8.90661         9.61564
     2016.58863         3.27828         7.28244
     2016.59137         1.06299         8.96851
     2016.59418         5.24147         7.54108
     2016.59685         7.71841         6.82351
     2016.59958         7.75511         8.47766
     2016.60229         3.62292         8.12658
     2016.60518         5.82217         9.36141
     2016.60780        -1.15976         6.99960
     2016.61054         6.96895         8.09246
     2016.61327         4.36867         7.18339
     2016.61602       -10.59965         9.20513
     2016.61875         6.79607         7.94939
     2016.62149        -3.24622         8.09356
     2016.62423         4.85649         6.84222
     2016.62696         4.01819         7.37489
     2016.62969         2.09893         7.69295
     2016.63252        -4.52765        10.68099
     2016.63518         2.29332         6.74867
     2016.63791         9.29003         7.35398
     2016.64064       -31.91322        14.41631
     2016.64339        -3.17756        10.29579
     2016.64608         4.98329         7.70836
     2016.64893        -4.94734         8.21792
     2016.65183        -3.42413         9.54301
     2016.65434        -6.60171         7.25713
     2016.65708        -7.67802         7.52457
     2016.65982         5.85269         9.65306
     2016.66256         2.47540         7.37049
     2016.66531         4.10906         8.46995
     2016.66803        -5.53819         8.90578
     2016.67078       -14.82652        14.72007
     2016.67351        11.53621         7.63683
     2016.67614         5.04625         8.91899
     2016.67900         2.07260        10.04817
     2016.68172        11.81235         6.65842
     2016.68443        -1.93285         9.43405
     2016.68719        -1.90622        10.34202
     2016.68993         8.23348         9.00813
     2016.69273         5.69601         8.07925
     2016.69538         1.31299         8.02312
     2016.69815        -2.29540         7.98020
     2016.70089         6.97731         7.06453
     2016.70362        -0.60598        10.01075
     2016.70615         2.96437        11.49321
     2016.70911         6.00140         9.76092
     2016.71184        14.50514         7.14267
     2016.71455        10.27092         7.72927
     2016.72005         4.25026         7.05243
     2016.72273         7.27816         6.61330
     2016.72554       -19.02836        34.42570
     2016.72824        -0.95155         7.02271
     2016.73100         4.60510         7.04252
     2016.73374         8.28880         7.12176
     2016.73643        -3.34136        12.21408
     2016.73939        18.33469         8.83424
     2016.74195         7.85893         9.87097
     2016.74469        -1.91236         6.90165
     2016.74743         9.06534         9.00263
     2016.75017        11.74005         7.15698
     2016.75290         4.90876         6.86203
     2016.75560        -3.49740         8.16840
     2016.75840         0.46710         7.43212
     2016.76112        14.38788        12.13264
     2016.76419         3.56857         7.69736
     2016.76659         1.69930         7.63793
     2016.76933         7.28801         7.94058
     2016.77205         3.08876         7.39360
     2016.77508        11.36759         8.55360
     2016.77754        -5.73787         6.61330
     2016.78028         3.46584         7.97580
     2016.78299         0.13363         7.73698
     2016.78576         0.42924         7.43762
     2016.78850         0.77796         7.12506
     2016.79123         1.67167         7.40351
     2016.79395         9.02745        13.41370
     2016.79668        -1.88481        27.16416
     2016.79945        -0.43122        17.63106
     2016.80229        -1.26083         7.30115
     2016.80492        -6.03979         7.14597
     2016.80766         4.53392         9.20843
     2016.81040        -3.73037         7.20430
     2016.81314         6.53633         8.00221
     2016.81578        -0.98968         7.57189
     2016.81869       -15.11149        10.01515
     2016.82135        -8.17554         6.66283
     2016.82400        -3.29556         8.81553
     2016.82703        -1.00973         7.06563
     2016.82956        -2.90042         7.07224
     2016.83230         5.24529         7.81072
     2016.83487        -5.71048         9.52980
     2016.83784         0.68852         6.74757
     2016.84052       -15.42059        17.13141
     2016.84322        -7.41076         6.97649
     2016.84602       -11.28826         6.76298
     2016.84873        -1.71746         9.09508
     2016.85147        -2.06275         6.80040
     2016.85420        18.71095        17.72901
     2016.85691        -5.38625         6.88294
     2016.85983        -2.32708         7.18559
     2016.86242        -1.59392         6.81250
     2016.86500       -13.36275        21.16168
     2016.86807        -9.06004         6.92916
     2016.87063        -4.04080         7.32647
     2016.87337        -9.66909        13.31024
     2016.87615        -4.24251         6.85322
     2016.87885        -6.13667         7.82942
     2016.88158       -10.85297         6.98859
     2016.88432        -9.42326         7.22301
     2016.88697       -14.65728         9.38562
     2016.88988        -4.51409         8.90138
     2016.89253        -3.59414         6.63201
     2016.89523       -15.41830         9.02684
     2016.89815         2.89486        10.08558
     2016.90075        -3.54901         7.11296
     2016.90345        -7.83819         7.60931
     2016.90635        -6.19998        33.04229
     2016.90896         3.13911         6.63751
     2016.91164        -8.74201         6.61330
     2016.91449        11.25136        11.95985
     2016.91718        -8.02676         8.17280
     2016.91985       -11.32787         8.13758
     2016.92270        -0.26951         9.18642
     2016.92506       -11.00563         9.19633
     2016.92819        -9.13413         7.11626
     2016.93086        -3.24222         7.42662
     2016.93360       -10.13752         6.58138
     2016.93634         3.15519         6.84882
     2016.93905         4.52099        11.19055
     2016.94186       -10.92554         7.01721
     2016.94455        -4.35568         7.90977
     2016.94729        -5.41398         7.16248
     2016.95002        -0.78823        11.68141
     2016.95368         2.19768        10.36293
     2016.95551        -4.65585         6.65182
     2016.95824         0.36086         7.10635
     2016.96098        -0.48144         6.87303
     2016.96372        -5.87573         8.29606
     2016.96621        -6.93127         7.35948
     2016.96964        30.09235        22.82133
     2016.97221        -3.05044        10.66888
     2016.97467        -6.18290         7.16468
     2016.97717        -1.90445         7.97800
     2017.05239         5.67270        19.19057
     2017.05407         5.47463         6.69804
     2017.05682         5.62531         9.10938
     2017.05954        -5.54395         8.41052
     2017.06228        -2.41924         6.78169
     2017.06503       -14.80358         6.69364
     2017.06776        -8.16383         7.72597
     2017.07049       -10.47612         7.25493
     2017.07323        -4.89841         7.24282
     2017.07597       -12.45970         7.00510
     2017.07872        -1.95004         8.24214
     2017.08145        -3.52729         7.50476
     2017.08418       -11.46758         7.96149
     2017.08692        -7.01887         8.19041
     2017.08968        -8.78023         6.63201
     2017.09240        -5.18446         7.62472
     2017.09514       -10.37175         9.90729
     2017.09792        -6.88017         7.21861
     2017.10061       -15.09733         6.90275
     2017.10335       -11.60962         6.80810
     2017.10609       -17.43692         7.30005
     2017.10882       -10.21921         6.81690
     2017.11156       -14.75450         9.96892
     2017.11430        -7.50679         6.95227
     2017.11704       -23.18108         6.88624
     2017.11976       -11.06132         8.28506
     2017.12248        -4.26457         7.95819
     2017.12526        -6.43797         6.84442
     2017.12797        -4.29319        11.94004
     2017.13078        -2.78472         8.81883
     2017.13347        -6.84984         7.60161
     2017.13620        -3.87313        13.01969
     2017.13894       -22.57342         9.65306
     2017.14168       -13.22771         7.24392
     2017.14442        -8.09700         6.67273
     2017.14715        -4.59130         7.73037
     2017.14989       -11.42557         7.06013
     2017.15263        -3.84688         7.16028
     2017.15537        -9.42417         6.80260
     2017.15813        -0.04852         8.94760
     2017.16084        -4.10276         6.75087
     2017.16361        -8.11012         7.36168
     2017.16632        -2.08634         8.16620
     2017.16906        -5.49663         7.99011
     2017.17179        -6.49390         6.78169
     2017.17454         9.31477         8.91788
     2017.17728        -7.19652        10.98475
     2017.18001       -10.23180         7.82392
     2017.18272        -2.03102         8.16290
     2017.18543       -10.47121         8.25644
     2017.18822       -16.11268         8.44354
     2017.19096       -12.67497         6.97649
     2017.19370        -6.69326         7.03702
     2017.19644        -7.90755         6.86093
     2017.19917        -5.28885         7.29675
     2017.20191        -3.70012         7.42992
     2017.20465        -8.71743         7.75789
     2017.20740         0.01225        41.13585
     2017.21009       -10.28090        10.26608
     2017.21286       -10.38431         6.53956
     2017.21560        -7.54460         7.12396
     2017.21834        -7.55089         6.94347
     2017.22108         3.15782         7.56749
     2017.22382        -7.68649         7.71827
     2017.22655        -3.91977         8.32028
     2017.22929        -2.41606         7.56969
     2017.23203       -16.13635        11.07719
     2017.23476        -7.64263         9.15120
     2017.23750       -12.00393         6.70575
     2017.24024       -10.86323         7.33857
     2017.24295        -3.37942         8.60973
     2017.24573        -5.31085         7.98791
     2017.24846        -8.68210         7.00290
     2017.25119        -7.44139         7.18339
     2017.25392        -5.04366         6.93907
     2017.25667        -7.80799         8.12768
     2017.25941       -15.24727         6.98309
     2017.26214        -5.75656         7.58730
     2017.26488        -0.73784         6.67383
     2017.26763        -0.42618         6.92476
     2017.27036        -8.72844         7.15478
     2017.27309       -10.45872         6.98969
     2017.27583        -6.45702         8.18381
     2017.27857       -10.90731         6.79489
     2017.28131        -5.62461         6.94787
     2017.28405       -11.89990         6.80370
     2017.28679        -9.98019         7.09425
     2017.28952        -8.54048         6.71785
     2017.29226        -4.78477        11.64068
     2017.29502        -3.95014         7.68965
     2017.29774        -9.86736         6.81140
     2017.30047       -12.72765         6.84442
     2017.30319        -8.29889         6.87303
     2017.30595        -8.90224         9.22934
     2017.30870       -10.11856         8.35439
     2017.31142        -8.49379         7.14707
     2017.31419       -10.22620         8.44024
     2017.31690       -10.38040         7.64673
     2017.31965       -14.60972         7.59500
     2017.32238       -10.73999         9.16881
     2017.32512       -12.23928         7.15148
     2017.32783       -10.79751         6.79379
     2017.33060       -10.24688         6.87083
     2017.33333       -11.22416         7.44093
     2017.33607       -13.77845         7.09095
     2017.33878       -10.08667         8.87826
     2017.34158        -9.69315         7.33637
     2017.34395         1.40867         8.52168
     2017.34708        -6.82180        11.26319
     2017.34975       -10.82689         6.81360
     2017.35248        -4.26117         7.11626
     2017.35523       -13.52449         7.83713
     2017.35797       -22.45678         8.02973
     2017.36071        -5.87208         8.46225
     2017.36344       -11.47637         6.61660
     2017.36618       -11.43266         6.69034
     2017.36892        -4.74895         8.04734
     2017.37166        -8.64424         6.86863
     2017.37440         0.47646         7.55759
     2017.37713        -5.01283         6.94567
     2017.37987        -9.77812         7.06013
     2017.38261        -3.51041         7.26263
     2017.38533        -4.84066         7.30556
     2017.38809        -7.83300         7.56529
     2017.39082        -5.50429         7.51356
     2017.39356         5.24742         7.76449
     2017.39630        -3.21087         6.74977
     2017.39904        -6.58016         7.54438
     2017.40177        -5.32244         7.69736
     2017.40449        -1.83669         8.44244
     2017.40725        -6.81404         8.12878
     2017.41001        -0.53939         7.65443
     2017.41273        -7.29463         8.00882
     2017.41546        -8.73292         8.69117
     2017.41818         0.07885         7.76449
     2017.42094        -3.34650         7.94829
     2017.42367        -6.23778         8.20692
     2017.42642        -8.91609         6.77618
     2017.42915        -3.11438         8.43143
     2017.43189        -8.03067         8.16620
     2017.43463        -8.29896         7.87565
     2017.43736        -3.17022         7.22411
     2017.44010         0.27045         7.19550
     2017.44284        -6.86082         7.11956
     2017.44557         7.50891         7.39690
     2017.44832         5.91458         7.89436
     2017.45106         4.63229         6.70134
     2017.45380         3.13998         8.77921
     2017.45655        -9.46834         8.78912
     2017.45927        -2.36159         7.35618
     2017.46200        -5.98787         7.44863
     2017.46475        -4.25319         7.48495
     2017.46748        -7.80347         6.90495
     2017.47022        -5.48876         6.88294
     2017.47296        -5.25505         7.26483
     2017.47568        -6.29928         7.67204
     2017.47817        -4.61883         8.61193
     2017.48171       -10.55057        23.34630
     2017.51511       -16.56870        18.72943
     2017.51676        -6.10272         7.05132
     2017.51950        -2.05402         6.98529
     2017.52224         0.90469         6.76628
     2017.52498        -3.55660         6.76628
     2017.52772         0.94811         7.16028
     2017.53045        -3.43518         6.78499
     2017.53319        -0.73248         6.84332
     2017.53593         5.22623         6.83671
     2017.53867        -2.67206         6.79269
     2017.54141         4.40065         6.77508
     2017.54414         0.99536         6.68594
     2017.54688        -4.68494         6.76628
     2017.54962        -3.39923         6.94457
     2017.55236        -3.50952         6.80810
     2017.55509         4.50919         6.69694
     2017.55783        -0.72410         6.82681
     2017.56057        -1.93240         6.75637
     2017.56331         3.49031         6.82131
     2017.56605         3.24602         6.79599
     2017.56878         0.44473         6.84442
     2017.57152         0.25044         6.79709
     2017.57426        -1.22286         6.78499
     2017.57700        -6.68215         6.71675
     2017.57974        -8.59244         6.73216
     2017.58247        -5.31773         6.84992
     2017.58521        -2.20802         6.80150
     2017.58795        -0.54332         6.93246
     2017.59069        -2.10861         7.04252
     2017.59342        -0.52190         6.66283
     2017.59616        -4.11419         6.83782
     2017.59890        -7.03248         6.66613
     2017.60164        -3.42778         6.67823
     2017.60438        -0.55907         6.63311
     2017.60711        -6.01436         6.80260
     2017.60985        -0.54265         6.85763
     2017.61259       -14.34494         6.96108
     2017.61533        -2.24624         6.97208
     2017.61807        -0.63453         6.93797
     2017.62080        -7.63382         6.92696
     2017.62354        -4.16711         6.89945
     2017.62628        -4.11241         6.92806
     2017.62902        -5.96670         7.45193
     2017.63175        -8.19899         6.91045
     2017.63449        -8.60328         6.96988
     2017.63723         0.16343         6.83451
     2017.63997        -5.44187         7.02711
     2017.64271         4.74484         6.93687
     2017.64544         0.34955         6.92146
     2017.64818        -2.95574         6.96658
     2017.65092        -2.20503         6.97869
     2017.65366        -2.73633         6.87633
     2017.65639        -0.73362         6.81690
     2017.65913        -0.76091         6.77728
     2017.66187         2.75680         6.86313
     2017.66461         2.34951         7.04362
     2017.66735        -3.41079         7.01501
     2017.67008         6.92392         6.73216
     2017.67282        -3.23637         7.06783
     2017.67556         4.19834         6.74427
     2017.67830         4.21305         6.83121
     2017.68104        -6.97125         6.84662
     2017.68377         2.44346         7.06123
     2017.68651        -0.63183         7.36719
     2017.68925        -3.70412         6.93136
     2017.69199         0.23259         6.87083
     2017.69472         3.98829         6.76078
     2017.69746        10.14900         6.92256
     2017.70020         2.81871         7.01391
     2017.70294        -1.37458         7.10635
     2017.70568        -0.70587         6.87633
     2017.70841         3.72183         6.68924
     2017.71115         4.57854         7.09315
     2017.71389        -2.04175         6.82791
     2017.71663         7.22996         6.95558
     2017.71937        -0.34833         7.01721
     2017.72210        -1.70263         6.74647
     2017.72484        -2.00592         6.73656
     2017.72758         1.83079         6.80590
     2017.73032         2.74350         6.79159
     2017.73305         3.73120         6.84772
     2017.73579         0.20691         6.86973
     2017.73853         1.91362         7.31106
     2017.74127         7.73333         6.69034
     2017.74401         7.99804         7.09755
     2017.74674        -2.64226         6.97759
     2017.74948         7.50545         6.82021
     2017.75222        -1.21684         6.72005
     2017.75496        -1.92613         6.75197
     2017.75770        -2.09742         6.87303
     2017.76043        -2.61572         6.79159
     2017.76317         4.73599         7.08544
     2017.76591        10.54970         7.02601
     2017.76865         3.76841         6.83782
     2017.77138        -2.88888         6.66172
     2017.77412         1.60782         6.95998
     2017.77686        -0.14847         6.97759
     2017.77960        -0.77576         6.95888
     2017.78234        -1.44305         6.97979
     2017.78507         2.35566         6.68374
     2017.78781        -7.30164         6.69254
     2017.79055        -1.25593         7.01060
     2017.79329        11.68578         7.14267
     2017.79603         3.57649         6.74977
     2017.79876         2.16920         7.13937
     2017.80150         2.64890         6.86753
     2017.80424         1.56361         6.73106
     2017.80698       -10.07968         7.28464
     2017.80971        -1.59097         6.81360
     2017.81245        -7.30126         6.67603
     2017.81519        -0.15756         6.75197
     2017.81793        -3.64585         6.78059
     2017.82067        -7.79214         6.64301
     2017.82340        -2.06743         6.68043
     2017.82614        -0.44373         6.71015
     2017.82888        -5.34702         6.58138
     2017.83162         0.44569         6.75197
     2017.83436         1.79140         6.82901
     2017.83709        -3.64289         7.05132
     2017.83983       -10.22419         6.80920
     2017.84257        -8.31548         6.76628
     2017.84531       -11.01777         6.90055
     2017.84804        -8.17406         6.73546
     2017.85078        -7.56635         6.84332
     2017.85352        -6.49165         6.93136
     2017.85626       -10.96894         7.31106
     2017.85900        -3.40723         7.12836
     2017.86173         4.59348         7.10635
     2017.86447        -7.86481         6.85652
     2017.86721         1.22089         7.13827
     2017.86995       -10.72640         7.00620
     2017.87269        -3.10869         6.86533
     2017.87542         7.57802         6.79159
     2017.87816         0.32073         6.81030
     2017.88090        -0.35957         6.67053
     2017.88364        -9.64586         6.65292
     2017.88637         1.56685         6.99960
     2017.88911        -0.47844         7.53777
     2017.89185        -0.27773         7.53447
     2017.89459         7.00297         6.94677
     2017.89733         0.31068         6.89945
     2017.90006        -1.06861         6.77178
     2017.90280        -1.32990         6.91485
     2017.90554         1.45681         6.75197
     2017.90828         1.02551         6.86423
     2017.91102         2.28422         6.83341
     2017.91375        -3.76207         6.90605
     2017.91649        -2.40936         6.71345
     2017.91923         4.04135         6.92476
     2017.92197        -1.93295         6.85763
     2017.92470        -1.11724         6.78609
     2017.92744       -10.70953         6.61770
     2017.93018        -4.70482         6.76078
     2017.93292        -2.80212         6.61990
     2017.93566         0.85859         6.68924
     2017.93839        -1.17170         6.53846
     2017.94113        -7.87599         6.75747
     2017.94387         0.78272         6.63091
     2017.94661        -0.67358         6.79049
     2017.94935         4.50813         6.69034
     2017.95208         3.75284         6.76408
     2017.95482       -13.21645         6.79709
     2017.95756        -0.86374         6.83892
     2017.96030        -1.73904         6.82681
     2017.96303        -0.39933         6.81690
     2017.96577         4.18838         7.01611
     2017.96851        -2.48891         6.85652
     2017.97125       -10.86820         6.74977
     2017.97399        -5.89950         6.77728
     2017.97672        -6.53679         6.71015
     2017.97946         2.83192         6.90605
     2017.98220        -1.80237         6.79930
     2017.98494        -7.84066         6.71125
     2017.98767       -10.98796         6.68374
     2017.99041        -7.61125         6.83011
     2017.99315        -1.15454         6.81250
     2017.99589        -3.87783         6.85102
     2017.99863       -11.17812         6.63531
     2018.00136       -15.98842         6.71785
     2018.00410       -14.79071         6.70024
     2018.00684        -7.63300         6.95117
     2018.00958        -5.73129         6.95888
     2018.01232        -5.26958         6.92696
     2018.01505        -6.35488         6.71345
     2018.01779        -1.50217         6.86753
     2018.02053        -1.98646         6.83231
     2018.02327         2.20625         6.90165
     2018.02600        -3.89304         6.81580
     2018.02874       -13.81234         7.06343
     2018.03148        -7.33663         6.81250
     2018.03422        -9.90192         6.76298
     2018.03696        -8.97421         6.63971
     2018.03969        -4.51651         6.84112
     2018.04243       -14.62980         6.79269
     2018.04517        -9.52009         6.80260
     2018.04791       -11.18038         6.81360
     2018.05065        -9.72767         6.75417
     2018.05338       -15.73697         6.75637
     2018.05612        -9.19626         6.77508
     2018.05886       -13.07255         6.61660
     2018.06160       -12.96984         6.74317
     2018.06433        -8.83613         6.99079
     2018.06707        -4.49443         6.75747
     2018.06981       -11.66472         6.93466
     2018.07255       -11.85401         7.02931
     2018.07529       -20.25330         6.92256
     2018.07802       -26.42459         6.92256
     2018.08076       -18.96589         7.06453
     2018.08350       -13.32118         7.00400
     2018.08624       -10.77647         6.83561
     2018.08898       -12.53376         7.37709
     2018.09171       -12.97305         7.00400
     2018.09445       -13.21735         7.03702
     2018.09719        -7.30964         7.07994
     2018.09993       -11.11893         6.97318
     2018.10266       -13.86022         6.81470
     2018.10540       -15.71950         7.15588
     2018.10814        -8.63281         6.93466
     2018.11088        -7.11510         6.66393
     2018.11362        -9.02739         6.85983
     2018.11635        -9.51868         6.75857
     2018.11909       -12.47097         6.80260
     2018.12183       -21.30027         7.30776
     2018.12457        -4.99056         6.91706
     2018.12731        -8.93185         6.82681
     2018.13004         3.66186         7.09205
     2018.13278        -0.40443         6.91045
     2018.13552        -4.77673         6.66172
     2018.13826       -22.89002         6.81140
     2018.14099       -14.21831         6.79379
     2018.14373       -15.29160         7.15808
     2018.14647        -4.83790         7.02711
     2018.14921        -3.32019         6.99520
     2018.15195        -5.66448         6.80150
     2018.15468       -10.73777         6.86753
     2018.15742        -4.48106         6.89615
     2018.16016        -3.45836         6.73436
     2018.16290       -13.82365         7.15368
     2018.16564        -9.72394         7.01831
     2018.16837       -12.89423         6.70905
     2018.17111       -11.32752         6.66723
     2018.17385       -13.55382         6.82351
     2018.17659        -6.40711         6.76628
     2018.17932       -11.37740         6.72996
     2018.18206         2.70431         6.91375
     2018.18480        -4.51798         6.81911
     2018.18754        -9.76428         6.77508
     2018.19028       -11.93957         6.69914
     2018.19301        -3.38186         6.72005
     2018.19575         1.70485         6.83011
     2018.19849        -2.71244         6.77288
     2018.20123         5.49326         6.78609
     2018.20397        -8.75703         6.78719
     2018.20670        -8.83832         6.76078
     2018.20944        -3.48661         6.62651
     2018.21218        -7.85990         6.75087
     2018.21492       -25.56820         6.73656
     2018.21765       -11.00849         6.66723
     2018.22039        -0.61578         6.79049
     2018.22313       -10.21707         6.71565
     2018.22587        -7.90936         6.53296
     2018.22861       -18.33266         6.51315
     2018.23134        -9.79295         6.73656
     2018.23408       -16.58424         7.31546
     2018.23682       -10.13353         6.81911
     2018.23956       -10.02382         6.52415
     2018.24230        -5.93012         6.47133
     2018.24503       -15.24641         6.59349
     2018.24777        -6.36870         6.61770
     2018.25051       -12.54099         6.53406
     2018.25325        -9.97129         6.60119
     2018.25598        -2.60258         6.51645
     2018.25872       -12.56587         6.88954
     2018.26146         0.89484         6.90605
     2018.26420       -14.23545         6.88624
     2018.26694        -8.70475         6.57478
     2018.26967        -8.83404         6.48453
     2018.27241       -12.06133         6.76738
     2018.27515        -2.18662         6.71785
     2018.27789        -1.04191         7.01941
     2018.28062       -10.20021         6.76628
     2018.28336        -9.10550         6.70355
     2018.28610        -1.81379         6.63971
     2018.28884        -5.55408         6.78829
     2018.29158        -6.32737         6.64632
     2018.29431        -8.70367         6.63751
     2018.29705       -14.51796         6.44601
     2018.29979        -6.62125         6.56157
     2018.30253        -2.95254         6.58579
     2018.30527       -10.65483         6.50324
     2018.30800       -11.93313         6.62431
     2018.31074        -7.77142         6.48894
     2018.31348        -9.41271         6.53846
     2018.31622        -3.38100         6.45482
     2018.31895        -5.63929         6.74207
     2018.32169        -5.67559         6.63971
     2018.32443        -8.31788         6.58799
     2018.32717        -9.59317         6.56047
     2018.32991        -2.89646         6.69144
     2018.33264        -5.56275         6.47903
     2018.33538        -8.18705         7.09975
     2018.33812        -5.29034         6.91265
     2018.34086       -11.77363         6.69254
     2018.34360       -12.06092         6.79159
     2018.34633        -6.40621         6.44271
     2018.34907        -3.91751         6.66613
     2018.35181         5.59820         6.80480
     2018.35455         0.07091         6.62761
     2018.35728         1.90762         6.65182
     2018.36002        -3.70668         6.60229
     2018.36276        -1.36397         6.65732
     2018.36550        -7.43626         6.78169
     2018.36824       -10.92955         6.98419
     2018.37097        -5.35284         6.85212
     2018.37371        -5.65514         6.61660
     2018.37645       -12.91043         6.63311
     2018.37919        -1.40872         6.58799
     2018.38193        -3.01901         6.64742
     2018.38466         0.29370         6.77508
     2018.38740         0.09640         6.58138
     2018.39014         4.83011         6.72336
     2018.39288         0.29482         6.69584
     2018.39561        -0.95347         6.70355
     2018.39835        -4.35376         6.81250
     2018.40109        -7.08306         6.81360
     2018.40383        -0.40435         6.62320
     2018.40657        -1.01864         6.68264
     2018.40930         7.87107         6.84552
     2018.41204        -2.24622         6.64962
     2018.41478        -5.10552         6.72996
     2018.42299        -1.64639         6.66503
     2018.42573        -1.15368         6.65842
     2018.42847        -3.68998         6.72666
     2018.43121        -3.65227         6.75197
     2018.43394         0.86244         6.90605
     2018.43668         0.03215         6.91706
     2018.43942        -1.40614         6.73986
     2018.44216        -3.85244         6.72886
     2018.44490        -1.41473         6.70795
     2018.44763         5.24998         7.07224
     2018.45037        -0.91531         6.64852
     2018.45311        -4.48661         6.60670
     2018.45585        -2.10690         6.71895
     2018.45859        -2.93819         6.65182
     2018.46132        -6.43448         6.77618
     2018.46406        -1.34777         6.69034
     2018.46680        -6.55507         6.75307
     2018.46954        -1.12836         6.73106
     2018.47227         4.99535         6.73766
     2018.47501         4.51406         6.75417
     2018.47775         2.22977         6.57808
     2018.48049         9.06047         7.11296
     2018.48323        -4.57082         6.78719
     2018.48596        -3.73111         6.73766
     2018.48870        -9.18640         6.58909
     2018.49144         2.59431         6.70245
     2018.49418         3.68101         6.89394
     2018.49692        -1.52828         7.27914
     2018.49965         2.57743         6.66062
     2018.50239         0.50214         6.75417
     2018.50513        -7.30315         6.65072
     2018.50787         4.49655         6.72116
     2018.51060       -13.20574         6.98859
     2018.51334        -1.53703         6.72446
     2018.51608        -8.54832         6.65842
     2018.51882        -8.62861         6.75087
     2018.52156         1.46209         6.49884
     2018.52429         1.18880         6.74867
     2018.52703        -2.82449         6.61110
     2018.52977        -4.54978         6.72116
     2018.53251        -4.94307         6.74537
     2018.53525         4.81863         6.84002
     2018.53798         0.55134         6.78609
     2018.54072        -2.69295         6.80700
     2018.54346        -0.19324         6.94127
     2018.54620         1.36647         6.73326
     2018.54893        -4.43783         6.70465
     2018.55167        -8.08212         6.66723
     2018.55441        -2.06241         6.62431
     2018.55715        -6.13370         6.85652
     2018.55989        -7.15300         6.88734
     2018.56262         3.11371         6.62210
     2018.56536        -1.12158         6.61330
     2018.56810         2.17113         6.72776
     2018.57084        -1.11116         6.77508
     2018.57357        -3.78746         6.95558
     2018.57631        -8.04875         7.14377
     2018.57905        -0.35804         7.07994
     2018.58179         0.49667         6.90935
     2018.58453         2.73938         6.84442
     2018.58726         3.55108         6.61220
     2018.59000        -1.29121         6.53736
     2018.59274         6.33950         6.75527
     2018.59548         1.93221         6.82461
     2018.59822         4.51492         6.66393
     2018.60095         3.20362         6.56157
     2018.60369         0.34433         6.57808
     2018.60643        -1.18896         6.70355
     2018.60917        -2.49425         6.89835
     2018.61190         3.80446         6.73656
     2018.61464        -0.29184         6.56267
     2018.61738        -1.83413         6.55717
     2018.62012         3.87458         6.60670
     2018.62286         9.20029         6.78279
     2018.62559        -1.35200         6.75967
     2018.62833         4.66170         6.67713
     2018.63107        -2.39459         6.57258
     2018.63381         2.17512         6.77618
     2018.63655        11.53883         6.68814
     2018.63928         6.71754         6.95998
     2018.64202         4.35024         7.02821
     2018.64476         2.44895         6.69364
     2018.64750        -1.49934         6.64522
     2018.65023         0.85437         6.82571
     2018.65297        15.28508         6.81360
     2018.65571         8.26578         6.84662
     2018.65845        -3.04851         6.72886
     2018.66119        11.76920         6.65402
     2018.66392         0.57091         6.71565
     2018.66666         1.82061         6.66393
     2018.66940         0.42432         6.68264
     2018.67214        -3.25397         7.01721
     2018.67488         3.11074         6.68814
     2018.67761         1.49745         6.71565
     2018.68035         4.21315         6.72446
     2018.68309        -5.33714         6.75637
     2018.68583         8.50257         6.82681
     2018.68856         3.58728         6.87523
     2018.69130        12.25799         6.91155
     2018.69404        10.00969         7.00620
     2018.69678         1.27940         6.98749
     2018.69952         8.38011         6.85212
     2018.70225         0.60082         6.93246
     2018.70499        -3.81347         6.71455
     2018.70773        -2.44077         6.95558
     2018.71047        -0.62606         6.74647
     2018.71321        -2.33335         6.79819
     2018.71594        -7.60464         6.71565
     2018.71868       -14.50893         7.05903
     2018.72142        -5.00223         6.81800
     2018.72416         2.99548         8.33458
     2018.72689        -5.68481         6.72776
     2018.72963        -8.69610         6.67163
     2018.73237        -8.36439         6.73986
     2018.73511        -7.91969         6.67383
     2018.73785        -2.60298         6.68374
     2018.74058        -1.60027         6.71345
     2018.74332         5.27444         6.86203
     2018.74606         0.71815         6.73326
     2018.74880        -2.29315         6.90165
     2018.75154        -5.20544         7.08324
     2018.75427        -2.16973         6.49774
     2018.75701        -5.37502         6.88514
     2018.75975         0.50869         7.08104
     2018.76249        -2.14261         6.89174
     2018.76522        -8.08190         6.73436
     2018.76796       -11.37719         6.83011
     2018.77070         3.94952         6.88074
     2018.77344        -5.71578         6.82461
     2018.77618         1.62793         6.77838
     2018.77891        -7.89636         6.73876
     2018.78165       -10.68165         6.79049
     2018.78439        -0.93794         6.65622
     2018.78713        -1.41024         6.60450
     2018.78987         2.19447         6.77508
     2018.79260        -1.14582         6.75967
     2018.79534         4.53489         6.68484
     2018.79808        -2.28640         6.73766
     2018.80082        -1.31570         6.62320
     2018.80355        -0.68699         6.59239
     2018.80629         3.32772         7.07774
     2018.80903        -5.76057         6.92586
     2018.81177        -0.95586         7.30556
     2018.81451         0.82484         7.18669
     2018.81724        -9.23645         7.25713
     2018.81998         3.66026         6.95227
     2018.82272         3.82097         7.10745
     2018.82546         3.06668         6.88184
     2018.82820        -7.20262         6.85763
     2018.83093        -6.94391         6.78829
     2018.83367        -2.44320         7.02161
     2018.83641         8.55751         7.31326
     2018.83915         0.33822         6.87523
     2018.84188        -8.80808         7.12947
     2018.84462         1.47363         6.78609
     2018.84736        -3.33066         6.69144
     2018.85010         5.24805         6.78059
     2018.85284        -9.11024         6.78939
     2018.85557       -17.66054         6.82241
     2018.85831       -10.52383         6.73106
     2018.86105        -8.70712         6.66943
     2018.86379         2.17259         6.74207
     2018.86653         0.33130         6.83231
     2018.86926        -9.35400         6.81580
     2018.87200        -4.99929         6.83892
     2018.87474        -1.31858         6.76078
     2018.87748        -0.75687         6.61330
     2018.88021         2.00183         7.02491
     2018.88295        -2.74646         6.68374
     2018.88569        -1.12275         6.70575
     2018.88843        -0.77704         6.92036
     2018.89117        -8.55933         6.85432
     2018.89390        -2.82163         6.78939
     2018.89664        -0.07892         6.97759
     2018.89938        -6.38021         6.87523
     2018.90212        -2.22350         6.80920
     2018.90485        -0.10079         6.88954
     2018.90759         1.30491         6.82791
     2018.91033        -0.78338         6.69584
     2018.91307        -4.16767         7.09535
     2018.91581         1.28104         6.81360
     2018.91854        11.25175         6.80480
     2018.92128        -1.74755         6.74427
     2018.92402        -2.25584         6.65732
     2018.92676         2.00987         6.63201
     2018.92950         2.09858         6.66172
     2018.93223        -2.78271         6.90495
     2018.93497        -0.38801         6.75747
     2018.93771         0.50370         6.82461
     2018.94045         0.13041         6.78939
     2018.94318        -0.57288         6.94567
     2018.94592         0.64483         6.82351
     2018.94866        -1.29847         6.78279
     2018.95140        -2.05476         7.25933
     2018.95414        10.60995         6.79819
     2018.95687        -2.38034         6.90275
     2018.95961         5.36237         6.80920
     2018.96235        -1.61693         7.06233
     2018.96509        -3.58022         6.86753
     2018.96783        -2.11751         6.83561
     2018.97056         5.47520         6.80150
     2018.97330        -5.69309         6.84332
     2018.97604        -4.32439         6.89835
     2018.97878         0.04832         6.82791
     2018.98151       -15.11997         6.61880
     2018.98425         1.44774         7.02821
     2018.98699        -5.38156         6.97429
     2018.98973        -7.72285         6.81030
     2018.99247        -2.51314         7.06013
     2018.99520        -4.53343         6.93797
     2018.99794       -11.94772         6.78169
     2019.00068       -21.03702         6.72666
     2019.00342       -14.98331         6.79269
     2019.00616       -15.59260         6.87303
     2019.00889        -6.84989         6.96768
     2019.01163         1.10382         6.84662
     2019.01437         2.12852         6.74427
     2019.01711         0.56823         6.77288
     2019.01984        -7.26306         6.77178
     2019.02258        -8.25535         6.85212
     2019.02532       -10.06764         6.90385
     2019.02806        -3.93294         6.77838
     2019.03080       -10.92623         6.81360
     2019.03353       -13.20452         6.65622
     2019.03627        -8.90381         6.79379
     2019.03901        -3.30510         6.64852
     2019.04175        -6.13240         6.72005
     2019.04449        -9.37369         6.72996
     2019.04722        -8.85398         6.74537
     2019.04996       -11.51127         7.07994
     2019.05270       -13.19956         6.81470
     2019.05544       -11.58886         6.92146
     2019.05817        -7.36215         7.06563
     2019.06091        -2.53444         6.99960
     2019.06365         0.86927         6.75857
     2019.06639        -6.94102         6.71015
     2019.06913        -7.76132         6.80700
     2019.07186       -14.53661         6.80260
     2019.07460        -6.33990         6.63311
     2019.07734        -2.37919         6.67053
     2019.08008         0.17851         6.69034
     2019.08282        -2.12278         6.79599
     2019.08555        -5.71207         6.74427
     2019.08829        -7.99836         6.84662
     2019.09103         4.11235         6.64081
     2019.09377       -13.99895         7.03922
     2019.09650         0.14676         6.62320
     2019.09924        -0.85253         6.62871
     2019.10198        -8.26382         6.67053
     2019.10472        -0.00711         6.62210
     2019.10746        -3.58641         6.81800
     2019.11019        -4.13770         6.64191
     2019.11293         2.20901         6.75747
     2019.11567         0.14672         7.10525
     2019.11841         3.31943         6.77838
     2019.12115         6.62613         6.86533
     2019.12388         6.31784         6.80920
     2019.12662        -0.48045         7.03922
     2019.12936        -3.87274         6.73216
     2019.13210        -2.07603         6.60119
     2019.13483        -8.90433         6.77508
     2019.13757        -1.15562         6.82241
     2019.14031         0.35709         6.61880
     2019.14305        -4.55520         6.64742
     2019.14579        -7.06349         6.73656
     2019.14852        -3.61679         6.65622
     2019.15126        -8.93108         6.70465
     2019.15400        -2.62037         6.70024
     2019.15674        -4.46266         6.68814
     2019.15948        -4.29495         6.75967
     2019.16221       -16.77425         6.81250
     2019.16495       -10.49154         6.70575
     2019.16769       -12.35383         6.62320
     2019.17043        -7.77012         6.90055
     2019.17316        -6.92641         6.62651
     2019.17590        -3.29471         6.74867
     2019.17864        -4.91200         6.77178
     2019.18138       -15.48829         6.87303
     2019.18412        -7.86558         6.93577
     2019.18685        -8.60388         6.71895
     2019.18959        -6.02617         6.94347
     2019.19233        -8.91546         6.93466
     2019.19507        -6.31575         6.86093
     2019.19780       -17.13604         6.65842
     2019.20054       -14.15734         6.97539
     2019.20328       -12.61763         6.62651
     2019.20602       -13.04692         6.97979
     2019.20876       -15.47221         6.68814
     2019.21149       -17.70350         6.67933
     2019.21423        -7.63680         6.72776
     2019.21697       -10.65709         6.69254
     2019.21971       -12.28438         6.90275
     2019.22245        -9.41467         6.63641
     2019.22518        -9.49596         6.62761
     2019.22792        -6.18326         6.74427
     2019.23066       -11.38555         7.03262
     2019.23340        -5.69384         6.68814
     2019.23613       -10.04213         6.72556
     2019.23887       -11.44242         6.64191
     2019.24161        -9.97972         6.79379
     2019.24435        -9.15101         6.80040
     2019.24709       -15.16230         6.83671
     2019.24982        -3.64559         6.70134
     2019.25256        -7.00988         6.91816
     2019.25530       -11.57418         6.63201
     2019.25804        -2.71147         6.80920
     2019.26078       -11.00576         6.86863
     2019.26351       -12.04205         6.88184
     2019.26625        -8.74334         6.76958
     2019.26899       -11.01964         6.95998
     2019.27173        -7.88793         6.92256
     2019.27446        -2.35722         6.81470
     2019.27720        -4.95951         6.96878
     2019.27994        -4.37980         6.97869
     2019.28268        -6.22310         6.63091
     2019.28542         1.73861         6.61220
     2019.28815        -7.36168         6.62651
     2019.29089        -4.21997         7.00180
     2019.29363       -10.46427         6.76078
     2019.29637       -10.76156         6.94017
     2019.29911         3.82315         6.63311
     2019.30184       -10.19614         6.82351
     2019.30458        -7.79843         6.80040
     2019.30732        -4.03073         6.82131
     2019.31006        -5.24802         6.91485
     2019.31279        -4.73331         6.87303
     2019.31553         3.49740         6.86973
     2019.31827        -2.15489         6.70024
     2019.32101        -7.95219         6.81580
     2019.32375       -22.14148         6.70134
     2019.32648        -9.69377         6.60560
     2019.32922        -8.44706         6.79269
     2019.33196        -8.11435         6.90825
     2019.33470        -1.50365         6.98419
     2019.33744        -7.92494         6.75747
     2019.34017        -9.41023         6.61330
     2019.34291        -4.52752         6.63641
     2019.34565        -2.57681         6.84442
     2019.34839        -8.60311         6.81800
     2019.35112        -4.09840         6.65842
     2019.35386        -5.33269         6.63861
     2019.35660        -1.91498         6.66943
     2019.35934        -8.16327         6.64301
     2019.36208        -1.29257         6.61000
     2019.36481         2.84414         6.77838
     2019.36755        -8.62515         6.73986
     2019.37029        -1.59844         6.68374
     2019.37303        -8.20173         6.82241
     2019.37577       -10.20103         6.87083
     2019.37850        -2.37132         6.73546
     2019.38124         1.04339         6.78829
     2019.38398         1.76310         6.76298
     2019.38672        -7.70819         6.79379
     2019.38945        -9.80649         6.76298
     2019.39219        -2.71378         6.74537
     2019.39493        -3.68007         6.74757
     2019.39767         4.00564         6.80590
     2019.40041        -3.28966         6.58138
     2019.40314        -8.31695         6.81250
     2019.40588         0.60976         6.80700
     2019.40862        -1.66553         6.74097
     2019.41136        -2.54282         6.75857
     2019.41410        -9.73112         6.78059
     2019.41683        -8.95941         6.97429
     2019.41957        -9.19470         6.75967
     2019.42231        -5.63099         6.82791
     2019.42505        -5.48828         6.67603
     2019.42778         1.12242         7.18669
     2019.43052         9.75413         7.45083
     2019.43326         5.22584         6.93136
     2019.43600        -6.82545         6.84442
     2019.43874        -7.56474         6.98749
     2019.44147        -8.68304         6.92586
     2019.44421        -4.21633         7.19440
     2019.44695        -7.30462         6.96548
     2019.44969        -8.08591         6.84002
     2019.45243        -2.99020         6.94347
     2019.45516        -4.43450         6.83892
     2019.45790        -9.74679         6.98529
     2019.46064       -11.16508         6.95668
     2019.46338        -5.58437         7.24613
     2019.46611        -0.94066         7.25603
     2019.46885         4.85204         7.01721
     2019.47159        -0.64225         7.07444
     2019.47433         1.21346         7.11076
     2019.47707        -2.60083         6.85983
     2019.47980         1.78688         6.96988
     2019.48254        -3.57242         6.95227
     2019.48528        -5.93071         6.86643
     2019.48802       -12.64100         6.97869
     2019.49076       -14.57029         6.69254
     2019.49349        -3.96358         6.77949
     2019.49623        -6.44988         6.77398
     2019.49897        -7.93617         6.69584
     2019.50171        -5.04346         6.81580
     2019.50444       -12.94075         7.01721
     2019.50718        -4.21705         6.88294
     2019.50992        -5.62634         6.87193
     2019.51266        -9.95563         6.60119
     2019.51540        -6.17592         6.77838
     2019.51813        -8.53721         6.94457
     2019.52087       -12.75251         7.09535
     2019.52361        -9.23580         7.00950
     2019.52635       -12.60609         6.83011
     2019.52908       -10.98238         7.02931
     2019.53182       -14.05867         6.88294
     2019.53456       -10.34197         7.10855
     2019.53730         2.23874         7.07334
     2019.54004        -3.82155         7.23182
     2019.54277         2.36916         7.13937
     2019.54551        -3.44313         7.17239
     2019.54825        -5.65743         6.81911
     2019.55099        -8.84872         6.95998
     2019.55373        -9.65101         6.95337
     2019.55646         4.94770         7.13057
     2019.55920       -13.44259         7.02491
     2019.56194        -3.06789         6.70795
     2019.56468        -7.56318         6.83561
     2019.56741       -11.35447         7.17019
     2019.57015        -5.00276         6.71455
     2019.57289        -3.86005         6.92146
     2019.57563        -2.65135         6.64191
     2019.57837        -6.02764         7.03262
     2019.58110        -3.82793         6.77838
     2019.58384        -8.41222         7.61922
     2019.58658        -9.82451         6.74977
     2019.58932         5.36719         6.66943
     2019.59206        -3.39610         6.82791
     2019.59479        -4.44739         6.60670
     2019.59753        -1.03068         7.04252
     2019.60027        -0.00297         7.07884
     2019.60301        -9.85127         6.74537
     2019.60574        -1.66156         7.15698
     2019.60848         3.93015         6.99630
     2019.61122       -13.06114         6.67603
     2019.61396        -7.64244         7.19880
     2019.61670         1.07127         6.92036
     2019.61943        -5.40102         6.89174
     2019.62217        -5.91031         6.92476
     2019.62491        -1.92660         6.72446
     2019.62765         3.46610         6.83671
     2019.63039         5.93681         6.92476
     2019.63312       -12.02248         6.83341
     2019.63586         2.94623         7.74358
     2019.63860        -4.08606         6.81250
     2019.64134        -9.86036         7.01611
     2019.64407         0.48435         7.21861
     2019.64681       -11.29494         6.73546
     2019.64955        -7.96323         6.85983
     2019.65229         3.62648         8.11117
     2019.65503        -1.12782         6.98089
     2019.65776        -6.00209         7.17899
     2019.66050        -4.44740         6.73436
     2019.66324        -8.84469         7.04692
     2019.66598        -6.34898         6.93907
     2019.66872         0.79572         6.95778
     2019.67145        -7.51557         6.77618
     2019.67695        -9.94621         7.08104
     2019.67967        -7.09144         7.06343
     2019.68240        -1.38674         6.70685
     2019.68514        -0.93303         6.97869
     2019.68788         2.44668         7.04142
     2019.69062        -7.34661         6.90165
     2019.69336        -3.77690         6.71235
     2019.69609        -6.36520         6.86863
     2019.69883         0.94651         7.18669
     2019.70157       -11.27378         6.77068
     2019.70431        -8.18507         7.00840
     2019.70705        -6.55237         7.03702
     2019.70978        -1.11166         7.01391
     2019.71252        -8.65495         6.76848
     2019.71526        -9.45024         6.73106
     2019.71800        -4.11653         6.99850
     2019.72073        -4.38983         7.15478
     2019.72347        -2.31812         6.86093
     2019.72621        -5.25941         6.82021
     2019.72895        -5.31770         6.74317
     2019.73169        -4.35799         6.67493
     2019.73442        -5.23729         7.44643
     2019.73716        -0.34558         6.79489
     2019.73990         1.79813         7.09645
     2019.74264       -11.98816         6.82241
     2019.74538       -12.03145         6.62210
     2019.74811        -3.64875         6.72556
     2019.75085        -0.94204         6.82901
     2019.75359         3.21767         7.18669
     2019.75633        -5.07262         7.00180
     2019.75906        -1.42991         6.86643
     2019.76180        -8.21921         6.73656
     2019.76454        -1.41750         6.89725
     2019.76728        -0.04679         7.38149
     2019.77002        -4.56808         6.95888
     2019.77275        -3.86337         7.06013
     2019.77549        -1.59167         6.89945
     2019.77823         0.44304         6.83341
     2019.78097         8.27575         6.79819
     2019.78371        -1.76954         6.83782
     2019.78644        -9.08583         7.09755
     2019.78918       -13.43013         7.30446
     2019.79192         2.00958         7.19660
     2019.79466        -0.03871         7.41121
     2019.79739         2.51100         7.02161
     2019.80013         5.33871         6.88844
     2019.80287        -9.20659         7.02051
     2019.80561         6.12012         7.39580
     2019.80835        -3.08617         6.79599
     2019.81108        -3.88646         6.91155
     2019.81382       -10.06676         7.08214
     2019.81656        -3.28805         6.78829
     2019.81930        -2.80734         6.82461
     2019.82203        -6.43063         6.98419
     2019.82477        -7.57192         6.95337
     2019.82751       -11.72322         6.85652
     2019.83025        -2.09551         7.00620
     2019.83299         0.07620         6.94787
     2019.83572         2.32891         6.78719
     2019.83846         0.23662         6.89725
     2019.84120         2.20232         6.73986
     2019.84394        -4.11397         7.01170
     2019.84668        -4.96726         6.84112
     2019.84941        -2.76155         6.84222
     2019.85215        -1.37984         6.88184
     2019.85489         0.22686         7.12066
     2019.85763         1.50557         7.02821
     2019.86036        -3.72972         6.75747
     2019.86310        -2.98101         6.76188
     2019.86584         8.36470         6.94127
     2019.86858         3.22340         7.03262
     2019.87132         1.37411         7.07554
     2019.87405         1.50582         6.85652
     2019.87679        -0.32047         7.33747
     2019.87953        10.96224         7.09645
     2019.88227        13.03694         6.89835
     2019.88501         4.70865         6.92146
     2019.88774         9.22436         6.88294
     2019.89048         4.10807         6.64522
     2019.89322         4.95178         6.90275
     2019.89596         2.57948         6.90495
     2019.89869         4.85019         6.94347
     2019.90143         4.67590         6.70905
     2019.90417         6.64761         6.70024
     2019.90691         0.88932         6.63641
     2019.90965        -0.84298         6.70905
     2019.91238         2.15273         6.82131
     2019.91512         5.32744         6.85322
     2019.91786         8.46615         6.68704
     2019.92060        -2.52215         6.73656
     2019.92607         0.70427         6.80700
     2019.92881        -1.15402         6.96218
     2019.93155         2.87869         6.89725
     2019.93429         3.31339         6.84662
     2019.93702        -6.57490         6.85763
     2019.93976        -9.26019         7.06453
     2019.94250        -1.42048         7.10965
     2019.94524        -7.76977         7.11516
     2019.94798        -6.83707         6.87083
     2019.95071         5.72864         7.10635
     2019.95345         2.80435         6.98749
     2019.95619         6.22206         6.99630
     2019.95893         4.71277         6.88514
     2019.96167        -3.42553         6.84112
     2019.96440         4.16718         7.15258
     2019.96714         0.31689         7.15698
     2019.96988        -7.42340         7.11186
     2019.97262        -5.73669         6.87303
     2019.97535        -0.13899         6.77398
     2019.97809       -11.97228         6.72556
     2019.98083        -8.87757         6.77178
     2019.98357       -14.22286         6.71895
     2019.98631        -5.04815         6.85873
     2019.98904       -10.42945         6.80810
     2019.99178         2.50226         6.84332
     2019.99452        -4.82403         6.94897
     2019.99726        -1.58532         6.85102
     2020.00000         0.72139         6.98859
     2020.00273         6.15409         6.88954
     2020.00547        -3.73820         7.20100
     2020.00821       -13.69549         6.94897
     2020.01095        -1.91278         6.96658
     2020.01368        -6.89507         7.00290
     2020.01642         1.29963         7.10965
     2020.01916         0.31934         6.90055
     2020.02190        -1.21595         7.00400
     2020.02464        -5.35424         7.20981
     2020.02737        -5.74654         6.96878
     2020.03011         0.92017         7.05573
     2020.03285       -12.41812         6.92586
     2020.03559        -5.74041         6.64962
     2020.03833        -0.93170         6.68814
     2020.04106        -8.29600         8.02423
     2020.04380       -10.28029         6.77288
     2020.04654        -1.00558         6.57478
     2020.04928        -4.25587         6.87523
     2020.05201        -2.13916         6.59569
     2020.05475        -1.90046         6.71015
     2020.05749        -6.09475         6.73216
     2020.06023        -1.28804         6.72226
     2020.06297        -2.35933         6.89504
     2020.06570        -0.07562         6.84552
     2020.06844        -3.48692         6.77728
     2020.07118        -2.16021         6.68924
     2020.07392        -5.45450         6.86753
     2020.07666         1.47221         6.77728
     2020.07939        -2.23608         6.61660
     2020.08213         0.70362         6.89945
     2020.08487         2.56333         7.04362
     2020.08761        -5.41596         6.65072
     2020.09034        -2.21325         6.44271
     2020.09308       -11.84354         6.61880
     2020.09582        -2.87984         6.89945
     2020.09856        -0.15313         6.89615
     2020.10130        -0.11442         6.86203
     2020.10403        -3.10071         6.82791
     2020.10677        -6.59300         6.61990
     2020.10951       -16.83930         6.61660
     2020.11225       -12.80259         6.70905
     2020.11498       -10.04188         6.69144
     2020.11772        -9.50117         6.72996
     2020.12046        -5.82946         6.74647
     2020.12320        -9.79076         6.42951
     2020.12594        -8.24005         6.56157
     2020.12867       -12.75834         6.65402
     2020.13141       -14.86563         6.83671
     2020.13415       -11.93393         6.58579
     2020.13689        -4.55122         6.72446
     2020.13963        -8.42751         6.70795
     2020.14236        -9.44680         6.71235
     2020.14510        -7.90909         6.89284
     2020.14784       -12.29139         6.68374
     2020.15058       -12.41568         6.78389
     2020.15331       -14.17997         6.59129
     2020.15605       -11.11426         6.63311
     2020.15879        -7.72355         6.61660
     2020.16153         1.22115         6.79489
     2020.16427        -1.72914         6.61440
     2020.16700        -5.94243         6.76518
     2020.16974        -4.00972         6.83561
     2020.17248        -8.48601         7.09205
     2020.17522        -8.96931         6.57808
     2020.17796         2.56540         6.71895
     2020.18069        -6.17289         6.53076
     2020.18343       -13.48618         6.41190
     2020.18617       -13.43147         6.60339
     2020.18891       -12.44477         6.77838
     2020.19164       -10.88706         6.77949
     2020.19438        -9.67835         6.67493
     2020.19712       -11.94964         6.70355
     2020.19986       -12.61593         6.61220
     2020.20260        -6.30723         6.70795
     2020.20533       -12.53552         6.79379
     2020.20807        -6.29381         6.77508
     2020.21081       -15.62810         6.79049
     2020.21355       -16.32139         7.23072
     2020.21629        -9.39869         6.97208
     2020.21902       -14.18498         6.85873
     2020.22179       -10.94736         6.75527
     2020.22450        -3.92356         6.81360
     2020.22724        -3.56285         6.69254
     2020.22997        -5.92415         6.57918
     2020.23271        -6.28444         6.62100
     2020.23545        -2.29273         6.62320
     2020.23819        -4.64102         6.81690
     2020.24093        -5.79832         6.86093
     2020.24366       -11.51161         6.91926
     2020.24640        -8.65990         6.72116
     2020.24914        -6.44919         6.72226
     2020.25188        -9.91248         6.61220
     2020.25462        -9.58278         6.60339
     2020.25735       -10.51607         6.72886
     2020.26009        -0.67936         6.59459
     2020.26283        -2.71365         6.65402
     2020.26557        -6.71994         6.58469
     2020.26830        -9.09024         6.54617
     2020.27104        -6.43153         6.62651
     2020.27378        -9.57082         6.69364
     2020.27652        -7.96611         6.64191
     2020.27929       -10.97750         6.80040
     2020.28199        -4.51870         9.99644
     2020.28473       -17.41799        10.07238
     2020.28747         2.42872        10.47188
     2020.29021        -8.65457         6.67383
     2020.29295        -6.08686         6.66393
     2020.29568        -4.74316         6.73436
     2020.29842        -3.63545         6.76628
     2020.30116        -9.48274         6.59129
     2020.30390        -8.04003         7.19000
     2020.30663       -10.90832         6.87523
     2020.30937        -9.75762         6.83121
     2020.31211       -10.77591         6.84442
     2020.31485       -14.40520         6.97759
     2020.31759       -10.66249         6.60450
     2020.32032         0.54122         6.95558
     2020.32306        -9.82408         6.56708
     2020.32580       -14.07737         6.90385
     2020.32854        -2.51466         6.72666
     2020.33128       -13.78595         6.58909
     2020.33401         1.37876         6.74537
     2020.33675        -8.49854         6.95778
     2020.33949        -7.86483         6.82681
     2020.34223       -10.23512         6.74097
     2020.34496       -15.87841         6.76518
     2020.34770       -12.42371         6.55607
     2020.35044        -1.49100         6.79930
     2020.35318       -13.88129         6.80150
     2020.35592        -8.40858         6.79159
     2020.35865        -7.09287         6.98639
     2020.36139        -3.85517         6.66723
     2020.36413        -0.67446         6.93687
     2020.36687        -3.04075         6.65182
     2020.36961       -13.90404         6.79599
     2020.37234        -5.38433         6.62761
     2020.37508         1.55937         6.84992
     2020.37782       -12.20792         6.61990
     2020.38056        -5.33921         6.65842
     2020.38329       -12.00650         6.75527
     2020.38603        -5.04979         6.80040
     2020.38877        -6.60709         6.78279
     2020.39151       -11.60438         6.83011
     2020.39425       -12.74067         6.66503
     2020.39698        -9.41896         7.07884
     2020.39972        -6.76125         6.81800
     2020.40234        -6.96817         7.06233
     2020.40794        -8.93013         6.81580
     2020.41067        -1.23342         6.82241
     2020.41341       -17.60271         6.78389
     2020.41615        -8.65301         6.75967
     2020.41889        -7.79330         6.81030
     2020.42162       -10.50659         6.84662
     2020.42314         2.33183        23.46957
     2020.42710       -12.11317         7.13387
     2020.42984       -12.79247         6.98859
     2020.43258        -4.53176         6.80150
     2020.76386        10.33190         6.72226
     2020.76659        13.89261         6.76188
     2020.76933        16.41532         6.97539
     2020.77207        17.17003         6.81030
     2020.77481        15.62373         7.23182
     2020.77754         8.80044         6.96658
     2020.78028        12.07215         7.05683
     2020.78302        14.43486         7.01721
     2020.78576        16.08757         6.83561
     2020.78850        14.81727         6.87083
     2020.79123        14.25298         6.83782
     2020.79397         9.80569         6.90935
     2020.79671        19.87540         6.94347
     2020.79945        12.13411         6.81030
     2020.80219        14.61981         6.98529
     2020.80492        19.10852         6.87413
     2020.80766        11.76323         6.82351
     2020.81040        20.09894         6.86313
     2020.81314        16.65765         6.89725
     2020.81587        13.79935         6.75417
     2020.81861        14.95006         6.70024
     2020.82135         5.82377         6.67823
     2020.82409         5.15248         6.79599
     2020.82683        15.77719         6.84332
     2020.82956        13.04789         7.17349
     2020.83230        16.93660         6.73766
     2020.83504        10.02131         6.84002
     2020.83778        17.33702         6.55607
     2020.84052        23.69273         7.49265
     2020.84325        16.74643         7.39580
     2020.84599        15.53614         7.43542
     2020.84873        20.13885         7.04032
     2020.85147        20.36756         6.78279
     2020.85420        23.46327         6.58248
     2020.85694        25.05997         6.90715
     2020.85968        23.91368         6.80150
     2020.86242        25.42539         6.86313
     2020.86516        21.33510         6.98639
     2020.86789        16.38680         7.23072
     2020.87063        27.95951         7.08874
     2020.87337        28.75422         7.09095
     2020.87611        23.98893         7.08214
     2020.87885        22.78264         7.10415
     2020.88158        18.51434         6.98749
     2020.88432        18.51905         6.75417
     2020.88706        16.57276         7.38590
     2020.88980        17.96747         6.70685
     2020.89253        20.16718         6.85873
     2020.89527        19.25888         7.93618
     2020.89801        18.90159         7.06013
     2020.90075        20.97430         6.93356
     2020.90349        23.55201         6.66503
     2020.90622        17.57772         6.84112
     2020.90896        19.71942         7.06013
     2020.91170        20.10713         7.22742
     2020.91444        17.03384         7.13277
     2020.91718        16.30955         6.65732
     2020.91991         8.82826         6.68704
     2020.92265         8.58696         6.75417
     2020.92539        12.49367         6.80810
     2020.92813        16.08838         6.93026
     2020.93086        12.76109         7.07664
     2020.93360        11.88380         6.74317
     2020.93634         4.70750         6.87083
     2020.93908         5.81821         6.83561
     2020.94182        10.37392         6.90495
     2020.94455         1.63963         6.76078
     2020.94729        11.44834         6.63861
     2020.95003         2.88604         6.97759
     2020.95277        -4.13825         6.58689
     2020.95551        -0.10454         6.80370
     2020.95824         7.15317         7.01391
     2020.96098         6.98288         7.85694
     2020.96372         1.44558         6.80810
     2020.96646         0.41929         6.86753
     2020.96919        10.10700         7.08654
     2020.97193         4.90771         6.89064
     2020.97467         1.43241         6.96988
     2020.97741        -4.92088         6.71015
     2020.98015         2.02683         6.91155
     2020.98288         2.43354         6.96658
     2020.98562        11.39825         6.80150
     2020.98836        21.92595         7.05793
     2020.99110         6.72366         6.48673
     2020.99384         8.10937         6.70575
     2020.99657        17.72908         6.95888
     2020.99931        10.29379         6.75747
     2021.00205        14.25649         6.79159
     2021.00479        13.88920         6.67823
     2021.00752        19.09091         6.91045
     2021.01026        14.99362         6.85983
     2021.01300         9.70633         6.74207
     2021.01574        12.00903         7.21971
     2021.01848         6.68074         6.68374
     2021.02121         9.01545         6.79049
     2021.02395         9.60116         6.62320
     2021.02669        -0.52213         7.04692
     2021.02943        12.45857         6.76518
     2021.03216        13.53128         6.98199
     2021.03490        -0.34301         6.87303
     2021.03764         5.89070         6.61220
     2021.04038         5.80941         6.79930
     2021.04312         9.96611         6.69804
     2021.04585        10.19582         6.98639
     2021.04859        13.17053         6.53186
     2021.05133        12.40924         6.68264
     2021.05407         8.47395         6.91926
     2021.05681        16.61465         6.97649
     2021.05954        14.69236         6.60450
     2021.06228         4.83407         6.59569
     2021.06502         4.45478         6.98859
     2021.06776         4.94948         6.74647
     2021.07049         9.53219         6.80260
     2021.07323        15.00390         6.58799
     2021.07597         4.69061         6.69364
     2021.07871         2.32432         6.69804
     2021.08145         8.63102         7.09315
     2021.08418        -1.62927         6.79049
     2021.08692         1.02644         6.88954
     2021.08966         2.90915         6.80920
     2021.09240        -2.58214         6.77068
     2021.09514         6.90556         6.73326
     2021.09787         8.97427         7.18559
     2021.10061         7.45198         6.85102
     2021.10335         1.36369         6.72776
     2021.10609        -0.34960         6.70575
     2021.10882         9.95010         6.71455
     2021.11156         1.83281         6.61440
     2021.11430         7.39052         6.80590
     2021.11704         8.33023         6.81580
     2021.11978         9.16494         6.86423
     2021.12251         3.78164         6.79599
     2021.12525         4.01035         7.16248
     2021.12799         9.37506         6.77508
     2021.13073         4.83577         6.68924
     2021.13347        -0.57552         7.08104
     2021.13620         5.96618         6.76298
     2021.13894         8.34389         6.71565
     2021.14168         4.66560         6.84332
     2021.14442         0.30231         7.17129
     2021.14715        -0.60198         6.81580
     2021.14989        -1.00928         6.66172
     2021.15263        -1.88957         6.89615
     2021.15537         8.35414         6.96988
     2021.15811        11.07585         7.08104
     2021.16084         1.30756         6.91816
     2021.16358         7.15926         7.02821
     2021.16632         4.32497         6.82351
     2021.16906        12.74968         6.92476
     2021.17180         0.47139         6.56157
     2021.17453        -2.33391         7.04472
     2021.17727         4.62780         7.05132
     2021.18001        -2.89849         7.01611
     2021.18275        -6.59278         6.95888
     2021.18548        -2.76807         6.56818
     2021.18822        -1.78837         6.71565
     2021.19096         0.26134         6.61770
     2021.19370         2.73305         6.71455
     2021.19644         2.47076         6.56157
     2021.19917        -0.94553         6.76738
     2021.20191         9.11617         6.70685
     2021.20465         8.07988         6.70245
     2021.20739         6.10159         6.75307
     2021.21013         5.76930         7.05683
     2021.21286         3.64901         7.05022
     2021.21560         2.77871         6.72556
     2021.21834        -2.25758         6.80810
     2021.22108         5.01513         6.80370
     2021.22381         3.95784         6.58579
     2021.22655         2.98255         6.81470
     2021.22929        12.03125         6.59789
     2021.23203         7.91296         6.69474
     2021.23477         0.66167         6.58138
     2021.23750         0.08738         6.83011
     2021.24024         4.90609         6.80370
     2021.24298         6.69379         6.50654
     2021.24572         4.03050         6.56047
     2021.24846         7.83421         6.73876
     2021.25119         5.77492         6.73326
     2021.25393         4.21363         6.67493
     2021.25667         5.46933         6.66613
     2021.25941         3.32704         6.57368
     2021.26214         7.05175         6.65842
     2021.26488         0.51646         6.65182
     2021.26762        15.67117         6.90165
     2021.27036         3.71087         6.81470
     2021.27310         5.78358         6.58248
     2021.27583         1.50529         6.59129
     2021.27857         0.77600         6.73326
     2021.28131         4.61970         6.83121
     2021.28405         1.37141         6.68594
     2021.28679         4.05412         6.69364
     2021.28952        11.91983         6.69694
     2021.29226         4.91354         6.83561
     2021.29500        16.04024         6.86643
     2021.29774         6.25395         6.98639
     2021.30047         2.97966         6.87964
     2021.30321        11.21737         6.62651
     2021.30595        11.78708         6.91706
     2021.30869        20.80978         6.93356
     2021.31143         6.44949         6.69804
     2021.31416        14.95820         6.78609
     2021.31690         7.39991         6.54837
     2021.32021         9.19489         9.69488
     2021.32295         9.90360         9.23595
     2021.32569         7.52330         8.79902
     2021.32842         8.31101         9.08407
     2021.33116        10.05872         8.88377
     2021.33390        16.56543         8.63394
     2021.33664        10.35114         9.02354
     2021.33937         7.78484         8.71538
     2021.34211        11.08655         8.97511
     2021.34485        14.08426         9.26456
     2021.34759         2.62197         9.14130
     2021.35033         1.12268         9.14790
     2021.35306         2.30138         8.83754
     2021.35580        -2.54991         8.95090
     2021.35854         3.26880         9.18532
     2021.36128        -4.03349         9.04335
     2021.36402        -0.91178         8.99382
     2021.36653       -15.46039         7.89546
     2021.36892         3.04936         6.66393
     2021.37166         5.72307         6.61110
     2021.37440         3.40678         6.71785
     2021.37770        -0.55424         9.44285
     2021.38044        -8.53654         9.18752
     2021.38318         7.38617         9.35481
     2021.38592         4.87588         9.30418
     2021.38866        -8.44041         9.11929
     2021.39214        14.17705       143.90228
     2021.39413        -0.75600         9.28988
     2021.39687         6.49071         9.24805
     2021.39938         9.80711         7.94829
     2021.40177        11.74985         7.27914
     2021.40451         5.83656         6.79599
     2021.40782         1.65254         9.21284
     2021.41056         2.53025         9.08407
     2021.41330        -0.48304         9.28107
     2021.41603        16.01867         9.19743
     2021.41877        -3.43263         9.04335
     2021.42151         8.64408         9.06316
     2021.42425         9.17779         8.99602
     2021.42699         1.96150         9.28107
     2021.42972        10.62521         9.35811
     2021.43246         7.10691         9.12809
     2021.43520         5.70262         9.10168
     2021.43794        -7.70367         9.11268
     2021.44068        -7.57496         9.21504
     2021.44341         4.92375         9.19303
     2021.44615         4.21445         9.03234
     2021.44889         3.88716         9.55731
     2021.45163        10.50787         9.75762
     2021.45436         0.80958         9.48798
     2021.45710        10.20929         9.49678
     2021.45984         2.80699         8.92339
     2021.46258         0.87770         8.99713
     2021.46527        -9.43046         9.63986
     2021.46805        -1.14288         8.93219
     2021.47079         2.69783         9.21834
     2021.47353         2.36753         9.35151
     2021.47627         4.63024         9.34160
     2021.47901        -4.86405         9.22054
     2021.48174        -8.87734         9.16221
     2021.48448        -0.89263         9.04115
     2021.48722        -4.04393         9.00813
     2021.48996        -4.23422         8.86286
     2021.49269         2.99849         9.18422
     2021.49520        -6.18911         8.08366
     2021.49817       -12.30609         9.85337
     2021.50091        -1.77239         9.05766
     2021.50365       -10.28868         8.94980
     2021.50638       -13.38897         8.76160
     2021.50912        -6.90026         9.06866
     2021.51186         8.00544         9.88638
     2021.51459        -3.28482         9.31409
     2021.51733         2.45986         9.05766
     2021.52007         6.42957         9.19193
     2021.52281         0.75728         8.75060
     2021.52555        -1.24202         8.85735
     2021.52829        -6.43831         8.82544
     2021.53102         3.73340         8.91128
     2021.53376        13.25211         8.98502
     2021.53650        -4.06218         8.98832
     2021.53924        13.03852         9.58813
     2021.54198         6.06323         8.99382
     2021.54471         2.06794         9.08627
     2021.54745         3.93165         8.93880
     2021.55019        -0.30264         8.95861
     2021.55293         0.18006         8.81113
     2021.55566         6.58977         9.12259
     2021.55840         6.88548         9.34270
     2021.56114        12.83319         8.87936
     2021.56388        11.18290         8.95310
     2021.56605         0.09833         6.95227
     2021.56878        -1.38896         6.82461
     2021.57152         7.98975         6.96218
     2021.57426         5.29346         6.87083
     2021.57700        13.37216         7.14597
     2021.57974         4.43687         6.81800
     2021.58247        -6.01042         6.86863
     2021.58521         4.22029         6.88954
     2021.58795         5.05100         6.89725
     2021.59069        -2.29830         7.00730
     2021.59342        -4.42159         6.83451
     2021.59616         5.52812         7.09755
     2021.59890         9.49783         7.10525
     2021.60164         2.42253         7.11296
     2021.60438         1.07624         6.88404
     2021.60711        16.24195         7.04912
     2021.60985        -2.15634         6.85322
     2021.61259        -0.33763         6.90275
     2021.61533        -4.06193         6.91706
     2021.61807         5.69678         7.08874
     2021.62080        -2.56051         6.84882
     2021.62354         1.33620         6.79709
     2021.62628         2.69991         6.99630
     2021.62902         3.57361         6.82131
     2021.63175         2.49932         7.30556
     2021.63449        -1.57397         7.34408
     2021.63723         5.96474         7.26483
     2021.63997         5.67445         6.89504
     2021.64271        -1.30485         6.86423
     2021.64544         6.61186         6.71015
     2021.64818        10.29357         7.03922
     2021.65092         3.73328         6.94787
     2021.65366         0.35899         6.88734
     2021.65639        -0.35131         6.86973
     2021.65913         1.06940         6.82351
     2021.66187         3.99511         6.90825
     2021.66461         6.32482         6.94897
     2021.66735        -1.77547         6.75417
     2021.67008         4.17223         6.82571
     2021.67282        12.20394         7.17899
     2021.67556         1.22265         7.23182
     2021.67830        10.37036         7.34738
     2021.68104        10.81207         7.04362
     2021.68377         1.00377         7.16578
     2021.68651        -4.21452         7.29345
     2021.68925        -0.21481         7.04252
     2021.69199         2.81490         7.04912
     2021.69472         4.28660         6.98529
     2021.69746         3.20831         7.04362
     2021.70020        -2.01798         6.96988
     2021.70294        -0.09827         7.06233
     2021.70568         4.52744         7.34077
     2021.70841         3.01814         6.97649
     2021.71115         5.15685         7.11626
     2021.71389        15.55856         7.97140
     2021.71663         7.17027         7.19110
     2021.71937         2.26998         7.05022
     2021.72210        -3.07132         7.00400
     2021.72484         3.83939         7.14487
     2021.72758         1.76410         6.88184
     2021.73032         2.69281         7.27914
     2021.73305         8.84852         6.92146
     2021.73579         9.49122         7.32977
     2021.73855        10.50687         7.85144
     2021.74127         3.09664         7.10305
     2021.74401         8.67335         7.07003
     2021.74674        -7.52994         7.30556
     2021.74948        -0.09324         6.91596
     2021.75222         2.51547         7.15918
     2021.75496        12.72118         7.18339
     2021.75706        11.19682         9.43185
     2021.76043        25.76860         7.60161
     2021.76317         0.43330         7.17679
     2021.76591        -0.39099         6.87964
     2021.76865         5.41572         7.07224
     2021.77138        10.85043         6.94017
     2021.77412         4.64014         7.32427
     2021.77686        12.44084         7.02711
     2021.77960        11.90955         6.88404
     2021.78234         4.02226         7.11626
     2021.78507        25.85997         7.07884
     2021.78781        13.93068         7.07003
     2021.79055        11.00838         6.88624
     2021.79329        13.39309         7.08764
     2021.79603         9.88080         7.03151
     2021.79876         0.87651         7.01281
     2021.80150         3.84921         7.36829
     2021.80424        20.79692         7.21091
     2021.80698        14.72463         7.30776
     2021.80971         3.48134         7.26704
     2021.81245        15.39005         7.43542
     2021.81519         9.98975         7.16468
     2021.81793        11.69146         7.30996
     2021.82067        15.52717         7.08214
     2021.82340        14.33988         7.54108
     2021.82614         8.79259         7.36829
     2021.82888         7.65929         6.95448
     2021.83162        16.50700         7.07224
     2021.83436        11.02971         7.22301
     2021.83709        15.72542         7.03482
     2021.83983         3.03413         7.18449
     2021.84257         7.27783         7.69736
     2021.84531         4.33854         7.38480
     2021.84804        13.49125         7.20100
     2021.85078        14.93096         7.27914
     2021.85352         6.63467         7.10745
     2021.85626        16.49237         7.26153
     2021.85900         7.63908         7.06893
     2021.86447         5.16350         7.53888
     2021.86721         6.91821         7.35508
     2021.86995         5.89091         7.68305
     2021.87269        21.88462         7.70286
     2021.87542         8.06233         7.25603
     2021.87816         9.69804         6.84552
     2021.88090        12.40075         7.01391
     2021.88364         2.33445         7.10415
     2021.88637         1.39916         6.91596
     2021.88911         0.48687         6.98419
     2021.89185         7.74358         7.37379
     2021.89459        16.02529         7.66654
     2021.89736         7.54789         7.18119
     2021.90006        -1.10030         7.36058
     2021.90280         0.27141         7.17239
     2021.90554         4.07512         7.06563
     2021.90828        -0.51018         7.30776
     2021.91102         1.74653         7.23952
     2021.91375         6.69124         6.95668
     2021.91649        12.92295         7.18009
     2021.91923        10.62366         7.35508
     2021.92197         2.32136         7.28134
     2021.92470        -2.00893         7.14597
     2021.92744        -1.92822         7.28795
     2021.93018         7.45149         7.27474
     2021.93292         9.42120         7.45193
     2021.93566         8.84590         7.31106
     2021.93839         1.46861         7.32757
     2021.94113        15.60932         7.40901
     2021.94387         7.79603         7.31986
     2021.94661         1.78374         7.19770
     2021.94935        11.20544         7.26263
     2021.95208        11.82515         7.23292
     2021.95482         7.39286         7.00290
     2021.95756         6.47357         7.05132
     2021.96030         9.59628         6.98419
     2021.96303         5.56598         7.26924
     2021.96577        11.32969         7.17789
     2021.96851        -4.89760         7.28354
     2021.97125         7.04911         7.18449
     2021.97399         5.78082         7.04582
     2021.97672         9.29852         7.46184
     2021.97946        13.08323         7.13057
     2021.98220        15.03194         7.15808
     2021.98494        15.59365         7.04802
     2021.98767        11.15536         6.87744
     2021.99041        19.33106         7.04582
     2021.99315         8.18877         6.97759
     2021.99589        20.90848         7.16578
     2021.99863        14.06619         7.09865
     2022.00136         9.35490         7.09975
     2022.00410         8.05060         7.11846
     2022.00684         1.61731         7.38039
     2022.00958         1.31002         7.26814
     2022.01232        -4.69427         7.16358
     2022.01505        10.68043         7.43542
     2022.01779         7.67014         7.72597
     2022.01937       -14.68664        20.77868
     2022.02345        13.28500         8.19811
     2022.02600       -12.49773         7.23512
     2022.02874         3.94197         7.31986
     2022.03148        -6.49432         7.28244
     2022.03422         1.99039         7.37489
     2022.03696         5.54710         7.31766
     2022.03969         1.09781         7.45633
     2022.04243        -1.60049         7.04802
     2022.04517         3.34122         7.12286
     2022.04791         0.69293         7.23952
     2022.05065        -3.03436         7.10965
     2022.05338         7.50035         7.57409
     2022.05612        -2.40695         7.17019
     2022.05886        -4.06524         7.09205
     2022.06160        -4.38253         7.08214
     2022.06433         2.75318         7.01831
     2022.06707         0.29689         7.07003
     2022.06981         9.25559         7.12286
     2022.07255        -6.72970         6.95007
     2022.07529        -1.67099         6.87633
     2022.07802         8.09172         6.93246
     2022.08076        11.92543         7.11516
     2022.08350        11.90613         7.18449
     2022.08624         5.54584         6.88514
     2022.08898         2.48355         7.07994
     2022.09171         3.52626         7.01060
     2022.09445         0.32497         7.18229
     2022.09719         3.91967         6.94127
     2022.09993         4.26538         6.97539
     2022.10266         0.93809         7.11846
     2022.10540        -1.65120         6.78389
     2022.10814         5.79851         6.86313
     2022.11088         8.07721         7.19330
     2022.11362         3.54992         7.06673
     2022.11635         7.58363         6.75857
     2022.11909         2.73234         6.78059
     2022.12183         1.85504         6.89174
     2022.12457         8.22375         6.99079
     2022.12731        -0.38454         6.92916
     2022.13004        -2.51683         6.91045
     2022.13278         0.85688         6.91155
     2022.13552         4.06458         7.03262
     2022.13826        17.09729         7.01281
     2022.14099        10.47300         7.11846
     2022.14373        -9.45929         6.90935
     2022.14647         3.60242         6.90055
     2022.14921         4.57112         7.16798
     2022.15195         8.18783         7.23842
     2022.15468         7.99754         7.12066
     2022.15742         9.52025         7.22081
     2022.16016         7.88496         7.20981
     2022.16290         1.40766         7.20540
     2022.16564         4.90937         7.16798
     2022.16837        10.15208         7.07774
     2022.17111        -1.37621         6.86643
     2022.17385         6.41350         6.96218
     2022.17659         8.76820         6.93907
     2022.17932         4.73991         6.89615
     2022.18206         1.51262         6.97979
     2022.18480        -7.74567         6.94127
     2022.18754        -0.07496         6.95337
     2022.19028         4.86674         6.98309
     2022.19301        -1.20255         7.14817
     2022.19575        11.22316         7.08764
     2022.19849         1.18687         7.07994
     2022.20123         1.37358         7.35068
     2022.20397        21.73328         7.02491
     2022.20670         1.82099         7.33857
     2022.20944         5.90070         7.16028
     2022.21218        12.84041         7.37599
     2022.21492         0.99612         6.90715
     2022.21765         7.72682         7.08654
     2022.22039         6.41953         7.30556
     2022.22313         9.00024         7.40461
     2022.22587        -6.53205         7.13497
     2022.22861        10.96365         7.04142
     2022.23134         4.28136         7.05903
     2022.23408        18.36407         7.04142
     2022.23682         7.85978         7.22411
     2022.23956        -2.96051         6.95558
     2022.24229        -0.61078         7.86794
     2022.24503         5.82790         8.56130
     2022.24778         7.20960         8.17610
     2022.25325         2.39403         8.13098
     2022.25598         7.26773         7.22742
     2022.25872         8.55344         6.96438
     2022.26146         1.87615         6.88514
     2022.26420         8.44886         6.89064
     2022.26694        10.42857         7.69736
     2022.26967         5.15027         6.95998
     2022.27241        10.93598         7.22852
     2022.27515        13.75969         7.51796
     2022.27789        10.80640         7.07334
     2022.28062        -4.94789         7.04252
     2022.28336         4.91281         7.04582
     2022.28610        -2.71648         7.02161
     2022.28884         1.55323         7.11516
     2022.29158         2.14294         6.95007
     2022.29431         3.96665         7.01281
     2022.29705        -0.46765         7.00180
     2022.29979         8.30506         6.95227
     2022.30253        13.18077         7.19220
     2022.30527         6.29248         7.09975
     2022.30800         1.74719         6.95117
     2022.31074        -0.62011         7.02051
     2022.31348        -2.27740         7.00510
     2022.31622        -0.77569         6.98309
     2022.31895       -12.94898         7.18669
     2022.32169         2.74672         7.39360
     2022.32443         7.71643         6.95448
     2022.32717         1.19114         7.15918
     2022.32991        -5.67815         6.84112
     2022.33264        -6.83844         7.42112
     2022.33538        -6.85174         7.23512
     2022.33812         2.28997         7.34297
     2022.34086         4.43268         7.08324
     2022.34360         0.64839         7.07114
     2022.34633         2.59710         7.09645
     2022.34907        -6.98520         7.19880
     2022.35181        -2.68149         7.01721
     2022.35455         0.69722         6.94677
     2022.35728        -3.20307         6.89394
     2022.36002         5.64664         6.97208
     2022.36276        -2.57366         6.89064
     2022.36550         0.93105         7.10855
     2022.36824        -2.47824         7.29015
     2022.37097        -1.77453         7.17349
     2022.37371        -9.31182         6.91596
     2022.37645        -5.71412         7.30225
     2022.37919        -2.52541         7.05903
     2022.38193        -8.64170         7.11956
     2022.38466        -0.04599         7.05243
     2022.38740       -18.09628         7.07884
     2022.39014        -6.82858         6.81911
     2022.39288        -2.51687         6.90055
     2022.39561        -8.26216         7.09095
     2022.39835         1.94055         6.98199
     2022.40109         1.16726         7.26483
     2022.40383         0.49096         6.98419
     2022.40657         7.18967         7.09755
     2022.40930        -8.83562         6.99520
     2022.41204        13.28809        19.39747
     2022.41478       -81.50520        29.35869
     2022.41752        -7.51350        27.49764
     2022.42026       -65.62079        32.18384
     2022.42299        17.17692        27.59449
     2022.42573       -27.74037        41.26241
     2022.42847        20.38233        28.34507
     2022.43121        14.77404        27.21699
     2022.43394         1.89475        27.67153
     2022.43669       -12.59556        29.19031
     2022.43942       -56.39783        30.56381
     2022.44216        -0.10613        30.06746
     2022.44490         8.06058        26.14064
     2022.44763        38.61329        34.12414
     2022.45038       -24.21202        33.33394
     2022.45315       -53.70842        31.64787
     2022.45589        60.93828        28.47274
     2022.45862       -35.73699        27.64841
     2022.46136        -0.38827        31.25277
     2022.46409        -8.06955        29.21452
     2022.46682      -116.23781        42.58749
     2022.46956      -102.88810        29.15509
     2022.47229        11.96762        25.71912
     2022.47502        23.33234        25.42857
     2022.47775        20.17906        26.09001
     2022.48049       -25.23221        37.01533
     2022.48322       -83.40349        41.98768
     2022.48596       -10.15578        30.76191
     2022.48870        12.69392        26.78447
     2022.49143        50.68663        27.71885
     2022.49417        36.66434        26.30242
     2022.49692         4.67303        26.55005
     2022.49965        -3.74326        26.25730
     2022.50239         2.23945        27.12124
     2022.50513        15.71316        26.39597
     2022.50787        27.05887        28.35718
     2022.51060        25.73657        27.36667
     2022.51334        22.06028        26.94515
     2022.51608        -7.76901        27.78708
     2022.51882        -5.38130        26.19457
     2022.52156       -46.24259        29.05053
     2022.52429        14.31811        37.69658
     2022.52703        11.56282        28.61691
     2022.52977        12.61153        29.63824
     2022.53251       -61.06476        46.72892
     2022.53525       -49.50106        63.87354
     2022.53798        32.74265        27.80910
     2022.54056        37.52885        29.85615
     2022.54359       -26.01332        32.84308
     2022.54620        18.61978        25.67840
     2022.54893        24.33148        26.93195
     2022.55167       -18.99381        24.80345
     2022.55441        -5.95210        25.38785
     2022.55715        15.35261        28.26913
     2022.55989        -9.12268        25.87980
     2022.56262         0.55502        29.55679
     2022.56536       -70.94927        26.45980
     2022.56810       -56.72956        44.72149
     2022.57084       -63.09685        40.56135
     2022.57357        12.96786        30.08727
     2022.57631        42.86956        27.23350
     2022.57905        13.44927        26.94955
     2022.58179        -8.77202        26.74045
     2022.58453        42.80269        26.12193
     2022.58726       -22.59860        28.22401
     2022.59000        72.26410        27.86743
     2022.59274        31.03881        26.41798
     2022.59548        12.15652        30.71019
     2022.59822        -6.16077        33.10282
     2022.60095         9.73094        26.60618
     2022.60369         8.22464        27.50864
     2022.60643        -1.61965        26.65680
     2022.60917        52.84906        25.91392
     2022.61190        35.81577        24.29499
     2022.61464        54.96048        25.13692
     2022.61738        38.23318        26.28371
     2022.62012        53.91889        24.56903
     2022.62286        37.92860        24.52281
     2022.62559        18.11131        24.71981
     2022.62833        39.34902        23.37272
     2022.63107        42.92872        23.86907
     2022.63381        61.30643        24.77814
     2022.63655       -12.51886        31.69519
     2022.63928        68.75585        25.31301
     2022.64202        28.66055        23.13609
     2022.64476        16.67126        24.19814
     2022.64750        36.33197        24.11560
     2022.65023        49.65368        24.86178
     2022.65297        25.29739        22.87526
     2022.65571        26.91009        22.01462
     2022.65845        50.20380        23.27587
     2022.66119        32.03951        23.18012
     2022.66392        61.47622        37.75491
     2022.66666        43.00493        23.06236
     2022.66940        25.96063        22.61663
     2022.67214        29.60134        23.40793
     2022.67488        28.38505        23.88998
     2022.67761        67.22076        23.45746
     2022.68035        61.38647        22.74759
     2022.68309        45.61517        30.50438
     2022.68583        57.63088        21.79891
     2022.68856        47.13159        22.31397
     2022.69131        23.21728        21.66464
     2022.69404        48.05101        23.42444
     2022.69678        12.41671        21.89355
     2022.69952        13.99442        21.25853
     2022.70225        41.44213        21.51606
     2022.70499        27.80684        21.87815
     2022.70773        36.63655        21.39280
     2022.71047        22.77725        21.59530
     2022.71321        45.93096        21.18259
     2022.71868        25.25038        21.95409
     2022.72142        41.71809        21.55678
     2022.72416       -10.11121        32.67470
     2022.72689        19.93850        21.58430
     2022.72963        36.65821        21.37189
     2022.73238       -19.17910        35.52736
     2022.73511        36.13263        22.74649
     2022.73785        31.84433        22.84554
     2022.74058        11.25104        38.94572
     2022.74332        25.41675        22.53518
     2022.74606        33.95546        22.78171
     2022.74880       -13.39484        34.31564
