# ================= DQRFIT RESULTS ================
# INPUT FILE: series/MADE.rad
# OUTPUT: LDETRENDED
# FILTER FUNCTION: f(t)
# f(t)=+line(t)
# line(t)=+P 1+P 2*t
# heav(t)=(t<0?0:1)
# TOTAL OBSERVATIONS MTOT=  296
# INITIAL TIME INTERVAL= 2018.6201 - 2006.4340 = 12.1862
# TOTAL OBSERVATIONS AFTER PREFILTER M=  295
# TIME-SPAN=    0.0000 -    0.0000 =  0.0000
# OBSERVATIONS: USED M=   295 REJECTED MTOT-M=     1 %USED=   99.6622
# N=  2 PARAMETERS
# MAXSIG= 175.00000
# MAXRES=  51.13607
# SCALE FACTOR FOR LENGTHS: SCL=  10.00000
# SCALE FACTOR FOR SIGMAS: SCLSIG=   1.00000
# CHI^2=    715.984 DOF=   293 CHI^2/DOF=   2.44363
# RMS=      9.175 SDEV=      9.189 MEAN=    0.15667
#  P #       PARAMETER +-    SIGMA %error PARAMETER NAME
# P 1 =       998.39151 +-  345.454  34.60 YZERO                              
# P 2 =        -0.49473 +-    0.172  34.68 SLOPE                              
#       T            LDETRENDED       SIG_OBS
     2006.43395        -4.69860         9.38396
     2006.43669        -1.66125         9.36677
     2006.43943        -2.39389         9.27454
     2006.44217         3.28846         9.15417
     2006.44491        -1.12019         9.20576
     2006.44764        -1.42683         9.33707
     2006.45038         1.09652         9.39021
     2006.45312         1.90888         9.17918
     2006.45586        -0.43177         9.23389
     2006.45859         8.61159         9.20107
     2006.46133         5.93994         9.44024
     2006.46407         0.39830         9.56373
     2006.46681         0.34465         9.41054
     2006.46955        -1.18000         9.40116
     2006.47228         1.39236         9.42304
     2006.47502        -4.67829         9.43086
     2006.47776         0.01107         9.50120
     2006.48050       -12.97158         9.50277
     2006.48324        -8.12422         9.47150
     2006.48597        -2.23887         9.56842
     2009.88365         0.49006         9.23233
     2009.88638         0.55342         9.29955
     2009.88912       -17.47623         9.28079
     2009.89186       -44.78487         9.49339
     2011.72896        -1.23001         8.90562
     2011.73170        -6.41065         9.05881
     2011.73443        -7.78830         8.99472
     2011.73717        -2.35594         8.96033
     2011.73991        -9.66359         8.91344
     2011.74265        -2.49523         8.92594
     2011.74538        -1.15388         9.18543
     2011.74812        -6.43753         9.30580
     2011.75086        -4.71517         9.20732
     2011.75360        -2.71882         9.16355
     2011.75634         0.62754         9.06194
     2011.75907        -0.82911         9.00879
     2011.76181        -3.49475         8.97596
     2011.76455        -2.24940         9.03068
     2011.76729        -4.61304         8.92594
     2011.77003        -6.89569         8.91812
     2011.77276        -1.54433         9.16668
     2011.77550        -3.79798         9.32925
     2011.77824        -9.59763         9.00098
     2011.78098        -4.25327         9.00254
     2011.78371        -2.75992         9.02599
     2011.78645        -2.33556         8.97284
     2011.78919        -4.49121         8.93688
     2011.79193        -8.31785         8.94783
     2011.79467        -9.33550         8.91656
     2011.79740        -1.89414         8.99160
     2011.80014        -0.08579         8.88842
     2011.80288        -4.28744         8.89937
     2011.80562        -7.31908         8.87748
     2011.80836        -3.11673         8.86498
     2011.81109        -2.62537         8.89780
     2011.81383        -4.73702         8.92750
     2011.81657        -2.22566         8.87748
     2011.81931        -2.31031         8.79776
     2011.82204        -3.22895         8.87123
     2011.82478        -4.99560         8.91656
     2011.82752        -3.99525         8.77587
     2011.83026        -6.15389         8.95721
     2011.83300        -4.63654         8.80088
     2011.83573        -8.24818         8.80088
     2011.83847        -4.30083         8.78213
     2011.84121         6.09753         8.78369
     2011.84395        -2.94012         8.87279
     2011.84669       -13.58476         8.88686
     2011.84942       -29.30241         8.90562
     2011.85216       -25.26005         8.80401
     2011.85490       -10.02570         8.90562
     2011.85764        -7.40335         8.94314
     2011.86037        -0.32099         8.79776
     2011.86311        -1.36464         8.83684
     2011.86585         3.46072         8.88530
     2011.86859        -1.90893         8.77118
     2011.87133         0.12143         8.78682
     2011.87406        -5.75122         8.78994
     2011.87680        -4.18186         8.86498
     2011.87954         0.29849         9.01348
     2011.88228         0.38684         8.82746
     2011.88502        -6.61680         8.90875
     2011.88775       -10.17245         8.87592
     2011.89049        -7.48109         8.92750
     2011.89323        -5.31974         8.99472
     2011.89597        -8.02238         8.94157
     2011.89870        -5.26803         8.99160
     2011.90144        -6.34167         8.90249
     2011.90418        -8.87432         8.85560
     2011.90692        -7.44596         8.83371
     2011.90966        -2.34061         8.79619
     2011.91239        -2.05326         9.09789
     2011.91513        -5.64490         8.89311
     2011.91787        -8.10355         9.02755
     2011.92061        -7.27419         8.92907
     2011.92334        -9.71884         8.92281
     2011.92608        -7.34948         8.99629
     2011.92882        -6.79613         8.99472
     2011.93156        -3.37077         8.95095
     2011.93430        -6.65842         8.98222
     2011.93703        -4.79707         9.00723
     2011.93977        -3.77071         8.98534
     2011.94251        -2.33436         9.01035
     2011.94525        -0.44000         8.99941
     2011.94799         3.53435         9.00098
     2011.95072        -0.79529         8.91812
     2011.95346        -5.21794         9.06819
     2011.95620        -5.91558         9.01192
     2011.95894        -2.43223         8.78213
     2011.96167         0.88713         8.82433
     2011.96441         0.53548         8.82121
     2011.96715        -2.58617         8.78369
     2011.96989         1.15719         8.68521
     2011.97263        -5.60846         8.69302
     2011.97536        -5.58010         8.79463
     2011.97810        -7.43175         8.73836
     2011.98084        -1.49839         8.75868
     2011.98358        -0.15204         8.72898
     2011.98632        -0.94868         8.65082
     2011.98905        -0.89933         8.78682
     2011.99179        -1.78998         8.75711
     2011.99453        -2.45362         9.01973
     2011.99727        -3.34227         8.64925
     2012.00274        -0.71656         8.73210
     2012.00548        -2.43720         8.69928
     2012.00822        -4.49585         8.73054
     2012.01096        -2.55649         8.75868
     2012.01369        -0.78214         8.73836
     2012.01643         4.88022         8.66801
     2012.01917         1.82857         8.67270
     2012.02191        -3.08308         8.64613
     2012.02465         2.30428         8.68990
     2014.04518        14.01790         9.12916
     2014.04792        10.06825         8.84465
     2014.05065        11.71061         8.82590
     2014.05339         3.69296         8.88686
     2014.05613         5.01432         8.85560
     2014.05887         6.38567         8.86654
     2014.06161        10.58302         8.87435
     2014.06434         6.74138         9.23077
     2014.06708        11.60773         9.21670
     2014.06982        12.70909         9.02286
     2014.07256         9.94844         8.87435
     2014.07530         4.56180         8.83684
     2014.07803         6.50115         8.88686
     2014.08077         8.30851         8.96033
     2014.08351        14.86086         9.01817
     2014.08625        11.89421         8.96658
     2014.08898         8.32957         9.08383
     2014.09172        12.84592         9.14166
     2014.09446         9.05928         8.86185
     2014.09720        10.64963         9.07601
     2014.09994        12.53199         8.84622
     2014.10267        14.60234         9.03224
     2014.10541         7.94070         8.88530
     2014.10815         2.06605         8.90406
     2014.11363        10.96576         9.03693
     2014.11636       -27.26089         9.18387
     2014.11910         1.11347         8.93219
     2014.12184         6.06882         9.15104
     2014.12458        10.55618         8.87435
     2014.12731        15.67953         9.07445
     2014.13005        12.00689         8.94314
     2014.13279        12.00524         9.29330
     2014.13553        10.41160         9.24796
     2014.13827         5.46295         8.83996
     2014.14100        12.03730         8.88061
     2014.14374        11.16566         9.07132
     2014.14648        12.85101         9.04943
     2014.14922        11.51537         8.93376
     2014.15196        10.20972         9.03537
     2014.15469        11.04008         9.10571
     2014.15743        12.43843         9.24796
     2014.16017        17.22879         9.44962
     2014.16291        -6.60986         9.34644
     2014.16564         2.59150         9.10415
     2014.16838        -3.43115         9.32925
     2014.17112        -2.09680         9.33238
     2014.17386         9.72056         9.49495
     2014.17660         7.59091         9.17605
     2014.17933        14.52027         9.59969
     2014.18207         9.82462         9.20107
     2014.18481         5.76698         9.04787
     2014.18755         7.50933         9.14010
     2014.19029        11.33569         8.98534
     2014.19302         6.98504         9.01192
     2014.19576        12.30139         9.07288
     2014.19850        10.75075         8.99316
     2014.20124         8.66910         9.02442
     2014.20397         6.32246         9.06038
     2014.20671        10.00181         9.09789
     2014.20945        14.81517         8.98222
     2014.21219        12.57252         8.97596
     2014.21493        11.62288         9.24953
     2014.21766         9.31023         9.11822
     2014.22040        10.18159         9.07132
     2014.22314         9.08794         9.03537
     2014.22588         9.00029         9.04631
     2014.22862         8.47465         9.05412
     2014.23135         9.57000         9.15261
     2014.23409        13.53236         9.18074
     2014.23683         7.33271         9.06819
     2014.23957        51.13607        10.17651
     2014.24230        51.00042         9.55748
     2014.24504         6.03178         9.09320
     2014.24778         6.86613         9.24484
     2014.25052         3.62648         9.01348
     2014.25326         4.19584         8.96346
     2014.25599         7.28219         8.98378
     2014.25873        -3.74445         9.06819
     2014.26147         7.36490         9.35582
     2014.26421         6.03126         9.09789
     2014.26695         6.56861         8.99316
     2014.26968         4.81397         9.05256
     2014.27242         8.11632         9.31831
     2014.27516         8.38167         9.18543
     2014.27790        12.59303         9.13541
     2014.28063        13.94238         9.09477
     2014.28337         6.71074         9.01192
     2014.28611        10.97109         9.33081
     2014.28885         6.90845         9.26203
     2015.71527         5.81714         8.75399
     2015.71801         4.60749         8.72429
     2015.72074         4.90485         8.84465
     2015.72348         6.07920         8.81808
     2015.72622         2.36956         8.80088
     2015.72896        -1.61109         8.78056
     2015.73170         5.64027         8.81495
     2015.73443        -0.09938         8.78213
     2015.73717         6.68898         8.79776
     2015.73991         8.58233         9.23546
     2015.74265        11.06869         9.17762
     2015.74538        12.15204         9.45900
     2015.74812        -5.23061         9.23858
     2015.75086        -9.15825         9.05256
     2015.75360         3.08710         8.89624
     2015.75634        -3.72654         8.92594
     2015.75907         8.43681         9.03693
     2015.76181        -1.26583         8.74461
     2015.76455         3.42352         8.76180
     2015.76729         0.01788         8.86810
     2015.77003         3.77523         8.97753
     2015.77276         0.08158         8.97440
     2015.77550         3.08294         8.93063
     2015.77791         6.57113        10.17964
     2018.48597       -13.37011         8.76649
     2018.48871       -11.03375         8.72429
     2018.49145        -3.15740         8.61799
     2018.49419        -6.88505         8.82277
     2018.49692        -2.88269         8.87592
     2018.49966        -1.38134         8.67426
     2018.50240        -6.37098         8.72741
     2018.50514        -6.73563         8.74461
     2018.50788        -5.31727         8.73367
     2018.51061        -7.64992         8.74930
     2018.51335       -10.50756         8.76024
     2018.51609        -8.02021         8.77587
     2018.51883       -11.36886         8.69615
     2018.52157       -10.36050         8.68052
     2018.52430        -7.32515         8.72429
     2018.52704        -4.66179         8.66645
     2018.52978        -6.22544         8.68521
     2018.53252        -1.55508         8.78994
     2018.53525        -6.62873         8.97596
     2018.53799       -10.47337         8.90718
     2018.54073        -9.01502         8.74930
     2018.54347        -3.66766         8.66176
     2018.54621         1.15769         8.83058
     2018.54894        -6.47696         8.77118
     2018.55168       -14.93660         8.81183
     2018.55442       -11.09925         8.83371
     2018.55716        -4.72389         8.83215
     2018.55990       -15.40954         9.01973
     2018.56263        -3.02118         8.95408
     2018.56537       -13.64383         8.81808
     2018.56811        -6.03147         8.67270
     2018.57085        -3.86512         8.71491
     2018.57358        -6.10777         8.89155
     2018.57632        -9.91741         9.12916
     2018.57906        -8.22306         9.24953
     2018.58180        -6.77070         8.87123
     2018.58454        -1.42635         8.90093
     2018.58727        -6.09399         8.64300
     2018.59001        -1.73364         8.76180
     2018.59275        -6.60928         8.82277
     2018.59549        -3.92993         8.66645
     2018.59823        -6.21257         8.58360
     2018.60096        -7.62222         8.58829
     2018.60370        -9.10487         8.56640
     2018.60644        -6.79951         8.66176
     2018.60918        -1.00616         8.71960
     2018.61191        -6.12280         8.72272
     2018.61465        -5.43645         8.54764
     2018.61739        -5.72309         8.58829
     2018.62013        -0.13174         8.67895
