# ================= DQRFIT RESULTS ================
# INPUT FILE: series/MAJU.rad
# OUTPUT: LDETRENDED
# FILTER FUNCTION: f(t)
# f(t)=+line(t)+annual(t)
# line(t)=+P 1+P 2*t
# annual(t)=+P 3*sin(2*pi*t+P 4)
# heav(t)=(t<0?0:1)
# TOTAL OBSERVATIONS MTOT= 1646
# INITIAL TIME INTERVAL= 2016.2136 - 2006.5161 =  9.6975
# TOTAL OBSERVATIONS AFTER PREFILTER M=  328
# TIME-SPAN= 2015.7591 - 2006.5161 =  9.2430
# OBSERVATIONS: USED M=   328 REJECTED MTOT-M=  1318 %USED=   19.9271
# N=  4 PARAMETERS
# MAXSIG= 175.00000
# MAXRES=  17.46404
# SCALE FACTOR FOR LENGTHS: SCL=  10.00000
# SCALE FACTOR FOR SIGMAS: SCLSIG=   1.00000
# CHI^2=    770.696 DOF=   324 CHI^2/DOF=   2.37869
# RMS=      5.697 SDEV=      5.684 MEAN=   -0.48529
#  P #       PARAMETER +-    SIGMA %error PARAMETER NAME
# P 1 =     -3657.09871 +-  353.191   9.66 YZERO                              
# P 2 =         1.82247 +-    0.176   9.65 SLOPE                              
# P 3 =         4.16518 +-    0.464  11.15 ANNUAL AMPLITUDE                   
# P 4 =        -2.27067 +-    0.095   4.20 ANNUAL PHASE                       
#       T            LDETRENDED       SIG_OBS
     2006.51608         4.10089         5.29782
     2006.51882         9.84381         5.30192
     2006.52156         2.14525         5.32264
     2006.52430         5.80335         5.37510
     2006.52704        -1.11416         5.35807
     2006.52977         0.25198         5.33790
     2006.53251         4.27807         5.43839
     2006.53525         4.86939         5.24028
     2006.53799        -2.12606         5.26790
     2006.54073         8.93816         5.47397
     2006.54346         4.57569         5.11009
     2006.54620        -1.04126         5.08648
     2006.54894        -1.08325         5.02174
     2006.55168         2.60791         5.05332
     2006.55441         1.99085         5.05985
     2006.55715         1.44464         5.11685
     2006.55989        -1.15137         5.18790
     2006.56263        -1.50897         5.68311
     2007.05270       -10.25693         5.14509
     2007.05544        -4.71270         4.85264
     2007.05818       -10.05450         4.89600
     2007.06092       -12.33958         4.92838
     2007.06366       -13.87000         4.95434
     2007.06639        -6.66311         4.97411
     2007.06913        -8.33841         4.85605
     2007.07187        -1.43892         4.93982
     2007.07461        -7.11070         4.87176
     2007.07734        -6.66636         4.91143
     2007.08008        -1.66253         4.88944
     2007.08282        -4.78130         4.85532
     2007.08556        -1.04018         5.01343
     2007.08830        -4.37428         4.96661
     2007.09103        -5.12570         5.01225
     2007.09377        -5.64220         4.87932
     2007.09651       -15.03566         4.89746
     2007.09925        -8.01111         4.93979
     2007.10198        -3.49711         4.84850
     2007.10472        -0.13926         5.08426
     2007.10746        -5.66791         5.05618
     2007.11020        -6.92624         4.88050
     2007.11294       -17.07703         4.87941
     2007.11567        -4.39997         4.83459
     2007.11841        -5.11447         4.86034
     2007.12115        -7.64151         4.87240
     2007.12389        -6.68481         4.91425
     2007.12663        -2.67599         4.89944
     2007.12936        -5.77577         4.95605
     2007.13210        -6.82125         4.83728
     2007.13484        -3.64210         4.86692
     2007.13758         4.01499         5.00776
     2007.14031       -18.94025         4.91868
     2007.14305        -6.00831         4.90708
     2007.14579       -11.75533         5.17477
     2007.14853        -4.15551         4.89586
     2007.15127       -19.99712         4.89808
     2007.15400        -9.33591         4.94956
     2007.15674       -10.13099         5.07986
     2007.15948        -2.81171         4.90142
     2007.16222        -7.20144         5.04120
     2007.16496       -11.87963         5.07621
     2007.16769        -7.38876         5.02684
     2007.17043        -4.62331         5.07018
     2007.17317        -0.99398         5.01687
     2007.17591       -12.64643         4.94953
     2007.17864       -12.34363         4.98980
     2007.18138       -11.21911         5.00398
     2007.18412        -9.66215         5.05985
     2007.18686        -3.53051         5.17120
     2007.18960        -6.55816         5.01748
     2007.19233        -7.76435         5.01345
     2007.19507        -4.10936         4.89236
     2007.72074         4.09207         5.01770
     2007.72348        12.04891         5.26851
     2007.72621         5.14610         4.93376
     2007.72895         6.67953         5.79088
     2007.73169         6.00786         5.11533
     2007.73443         7.88858         5.17897
     2007.73717        -9.83001         5.06214
     2007.73990         7.33695         5.23714
     2007.74264         8.90221         5.22581
     2007.74538        10.22553         5.39951
     2007.74812         5.81327         5.27294
     2007.75086        11.86222         5.32432
     2007.75359        -0.94419         5.36260
     2007.75633         2.15908         5.07186
     2007.75907        -1.74177         5.41441
     2007.76181         3.10803         5.01121
     2007.76454         4.19106         5.15557
     2007.76728        10.91736         5.53210
     2007.77002         4.82752         5.58607
     2007.77276        -0.95755         5.39758
     2007.77550         4.59030         5.03173
     2007.77823        10.77303         5.21962
     2007.78097        12.17059         5.20506
     2007.78371         4.00798         5.06726
     2007.78645         7.31588         5.06599
     2007.78919        10.06972         5.02985
     2007.79192        -4.64760         5.35435
     2007.79466        12.29176         5.18047
     2007.79740         6.05304         5.06405
     2007.80014         1.32996         5.32802
     2007.80287         7.19257         5.14098
     2007.80561         3.61977         4.92236
     2007.80835         2.79481         5.18906
     2007.81109         5.71162         5.23750
     2007.81383         1.12895         5.08427
     2007.81656         4.50521         5.16045
     2007.81930         5.87886         5.04099
     2007.82204         0.82153         5.07805
     2007.82478         3.48885         5.11580
     2007.82752         0.75175         5.09234
     2007.83025        -0.40229         5.09000
     2007.83299         1.44931         4.95299
     2007.83573         4.16907         4.92949
     2007.83847        -0.01662         4.93820
     2007.84120         2.84969         4.93812
     2007.84394        -2.97807         5.32945
     2007.84668        -0.96712         5.20800
     2007.84942        -4.03947         4.91838
     2007.85216         0.92177         5.02925
     2007.85489         2.74436         5.05354
     2007.85763         7.06313         5.07782
     2007.86037         2.92623         4.95358
     2007.86311         0.41567         4.95935
     2007.86585        12.63756         4.96728
     2007.86858         1.62058         5.22723
     2008.53662         4.34954         4.88562
     2008.53936         5.39421         4.92200
     2008.54209         1.45473         4.94233
     2008.54483        13.54783         5.25742
     2008.54757         5.59760         5.02227
     2008.55031        10.89883         4.90171
     2008.55305        13.70779         5.03611
     2008.55578         2.65702         5.25368
     2008.55852         3.60255         5.00067
     2008.56126        -1.88863         5.27594
     2008.56400        -0.91499         4.92041
     2008.56674        -2.31025         4.88315
     2008.56947         1.50747         4.87064
     2008.57221         4.79634         4.99839
     2008.57495         0.99772         5.09297
     2008.57769         6.91816         5.05855
     2008.58042         7.17796         5.00530
     2008.58316         6.47753         4.86367
     2008.58590        -3.70064         4.87246
     2008.58864        -4.05684         5.08702
     2008.59138         4.07632         4.91245
     2008.59411         0.17775         4.91897
     2008.59685        -1.41575         4.90824
     2008.59959        20.71857         5.14267
     2008.60233        -0.41066         5.15020
     2008.60507        -4.59580         5.17701
     2008.60780         1.18495         4.99589
     2008.61054         2.62908         5.30394
     2009.92471         4.96887         4.90692
     2009.92745         6.82051         4.90167
     2009.93018         3.33806         4.94535
     2009.93292         5.51212         4.93758
     2009.93566         1.31717         4.98278
     2009.93840         1.52954         5.14097
     2009.94114         2.95297         5.17181
     2009.94387         1.20489         5.15358
     2009.94661        -8.11293         5.04161
     2009.94935         0.53369         4.94377
     2009.95209        -0.90669         4.94612
     2009.95483        -6.40296         4.94867
     2009.95756       -11.32410         4.92496
     2009.96030        -0.92110         5.13797
     2009.96304        -5.37583         4.93465
     2009.96578        -2.38957         5.05396
     2009.96851        -4.50081         5.05956
     2009.97399        -6.06405         5.72867
     2009.97673        -7.36132         4.93116
     2009.97947        -6.35735         4.94888
     2009.98220        -6.06430         4.96360
     2009.98494        -2.00483         4.90948
     2009.98768        -3.78807         4.99215
     2009.99042         1.60876         4.91793
     2009.99316         0.32396         4.90564
     2009.99589        -2.19639         4.98286
     2009.99863         4.78595         4.96907
     2010.00684        -7.34640         5.02230
     2010.00958        -4.11478         4.94722
     2010.01232        -1.87426         4.91682
     2010.01506        -7.44911         4.93793
     2010.01780       -11.12685         4.88801
     2010.02601        -6.66592         4.92910
     2010.02875        -6.14362         4.96134
     2010.03149       -17.96597         5.08335
     2010.03422        -5.83448         5.01372
     2010.03696        -5.93269         5.21253
     2010.03970        -2.50099         5.19252
     2010.04244        -1.62794         5.06306
     2010.04517         0.34521         4.97909
     2010.05886        -5.29567         4.91687
     2010.06160        -0.56076         4.92479
     2010.06434        -2.89833         4.93965
     2010.06708        -4.38510         4.91568
     2010.07255        -3.87900         4.97289
     2010.07529        -4.40567         5.40198
     2010.07803        -5.77968         5.01008
     2010.08077        -6.74948         4.93391
     2010.08350        -3.33045         4.87261
     2010.08624        -2.16793         4.89423
     2010.08898        -2.02042         5.07686
     2010.09172        -3.69497         5.22134
     2010.09446        -5.45348         5.13112
     2010.09993       -11.30211         5.12502
     2010.10267        -5.99826         5.08541
     2010.10815         3.85498         6.05271
     2010.11088        -2.66806         5.09900
     2010.11362         0.44390         5.03107
     2010.11636        -3.99020         4.99809
     2010.11910        -8.60291         4.86927
     2010.12183       -10.32346         5.17825
     2010.12457        -1.26219         5.00800
     2010.12731        -5.33280         5.17546
     2010.13005        -4.22187         5.23134
     2010.13279        -0.63492         4.98117
     2010.13552        -5.24114         5.06711
     2010.13826        -1.20758         4.92462
     2010.14100        -4.76027         5.21681
     2010.14374        -2.72843         5.23345
     2010.14648        -6.92233         5.28361
     2010.14921        -9.93577         5.13684
     2010.15195        -6.66786         4.95473
     2010.15469        -2.93712         4.92784
     2010.15743        -4.41712         5.02492
     2010.16016        -0.98115         5.01792
     2010.16290        -4.87484         5.17755
     2010.16564         2.22000         5.23176
     2010.16838         0.14791         5.19110
     2010.17112         4.09043         5.00899
     2010.17385         1.65110         4.92688
     2010.17659         1.87643         4.89590
     2010.17933         2.90811         4.88380
     2010.18207         1.15839         4.90045
     2010.18480         0.38657         5.32338
     2010.18754         5.74772         4.97344
     2010.19028        -0.61772         5.05389
     2010.19302        -1.20939         4.92188
     2010.19576         0.94305         4.96492
     2010.19849        -5.04031         4.90127
     2010.20123        -3.62494         4.91703
     2010.20397         3.56250         5.02630
     2010.20671         3.96281         5.04355
     2010.20945         2.90115         4.90463
     2010.21218         0.29109         5.07254
     2010.21492        -2.82202         4.92564
     2010.21766        -7.55186         4.96222
     2010.22040        -5.81576         4.95200
     2010.22313        -7.61267         4.89006
     2010.22587        -0.46421         5.09213
     2010.22861        -8.23814         5.00300
     2010.23135        -2.16280         4.98471
     2010.23409        -9.94751         5.08112
     2010.23682        -5.88247         5.00770
     2010.23956         7.62703         4.97866
     2010.24230        14.63127         5.19450
     2010.24504        -2.25122         5.04951
     2010.24778         1.73883         5.09124
     2010.25051        -3.20124         5.24533
     2010.25325         4.27867         4.99998
     2010.25599         5.09518         5.00889
     2010.25873         6.26087         5.01152
     2010.26146         0.37124         5.04495
     2010.26420         7.17217         5.43797
     2010.26694         2.09859         5.12551
     2010.26968         5.29982         5.11975
     2010.27242         5.31820         5.10085
     2010.27515         0.04853         5.20169
     2010.27789        -1.64780         5.15258
     2010.28063        -0.93234         5.02124
     2010.28337         2.52837         5.25126
     2010.28611         2.69580         5.12659
     2010.28884         5.15490         5.07274
     2010.29158         0.45606         5.68147
     2010.29432         0.41298         5.06384
     2010.29706         2.85945         5.67150
     2011.92882        -4.62503         8.76605
     2011.93155        -3.74685         8.69578
     2011.93429        -3.02052         8.71718
     2011.93703        -5.31786         8.69828
     2011.93977        -5.21917         8.76371
     2011.94251        -2.18677         9.20694
     2011.94524        -0.95896         8.66524
     2011.94798         3.74462         8.67467
     2011.95072        -1.62256         8.70214
     2011.95346        -0.83017         8.89354
     2011.95619        -0.35493         9.12814
     2011.95893        -4.37291         8.51851
     2011.96988         7.63965        10.43796
     2011.97536        -5.54929         9.99967
     2011.98084        -0.68603        10.61079
     2012.00821        -1.99108        10.14831
     2012.01916         0.86943         9.89268
     2013.61533        -4.31147         8.64031
     2013.61807        -3.77697         8.53711
     2013.62081        -8.50330         8.47434
     2013.62355        -2.20515         8.47172
     2013.62628        -6.08988         8.55307
     2013.62902        -7.74897         8.46074
     2013.63176        -9.68279         8.65476
     2013.63450        -0.26808         9.00306
     2013.63723        -0.65434         9.92735
     2013.63997         2.81735         8.51907
     2013.64271        -0.85424         8.46226
     2013.64545        -5.77622         8.62786
     2013.64819         1.57627         8.64169
     2013.65092        -0.12582         8.45074
     2013.65366        -6.61013         8.63522
     2013.65640        -2.65822         8.73841
     2013.65914        -7.24962         8.75853
     2013.66188         2.47585         8.49246
     2013.66461        -5.55546         8.64111
     2013.66735        -1.36142         8.78942
     2013.67009        -7.88423         8.58420
     2013.67283        -3.43243         8.88241
     2013.67556        -7.97649         9.38366
     2013.67830         5.73166         8.80537
     2013.68378        -2.97968         8.49152
     2013.68652         0.27152         8.51406
     2013.69199        -0.20743         8.51180
     2015.74812       -12.53623         9.22246
     2015.75086       -17.20875         9.82930
     2015.75359       -18.52593         9.65874
     2015.75633        -7.63413         9.31321
     2015.75907       -11.16111        10.64062
