# ================= DQRFIT RESULTS ================
# INPUT FILE: series/MDRS.rad
# OUTPUT: LDETRENDED
# FILTER FUNCTION: f(t)
# f(t)=+line(t)+annual(t)
# line(t)=+P 1+P 2*t
# annual(t)=+P 3*sin(2*pi*t+P 4)
# heav(t)=(t<0?0:1)
# TOTAL OBSERVATIONS MTOT= 4031
# INITIAL TIME INTERVAL= 2021.4317 - 2009.7440 = 11.6877
# TOTAL OBSERVATIONS AFTER PREFILTER M= 4018
# TIME-SPAN= 2021.4317 - 2009.7440 = 11.6877
# OBSERVATIONS: USED M=  4018 REJECTED MTOT-M=    13 %USED=   99.6775
# N=  4 PARAMETERS
# MAXSIG= 175.00000
# MAXRES=  23.66224
# SCALE FACTOR FOR LENGTHS: SCL=  10.00000
# SCALE FACTOR FOR SIGMAS: SCLSIG=   1.00000
# CHI^2=   3476.347 DOF=  4014 CHI^2/DOF=   0.86606
# RMS=      5.340 SDEV=      5.340 MEAN=    0.10449
#  P #       PARAMETER +-    SIGMA %error PARAMETER NAME
# P 1 =      4804.60025 +-   49.380   1.03 YZERO                              
# P 2 =        -2.38448 +-    0.024   1.03 SLOPE                              
# P 3 =         3.83895 +-    0.115   2.99 ANNUAL AMPLITUDE                   
# P 4 =        -2.97177 +-    0.042   1.40 ANNUAL PHASE                       
#       T            LDETRENDED       SIG_OBS
     2009.74401         9.63527         5.45158
     2009.74674         3.15879         5.25894
     2009.74948         1.34332         5.27569
     2009.75222         0.54885         5.30454
     2009.75496         1.16338         5.39946
     2009.75770         3.33191         5.43762
     2009.76043         3.95744         5.21985
     2009.76317         5.06196         5.27941
     2009.76591         3.36849         5.31105
     2009.76865        -0.06098         5.36503
     2009.77138        -1.20445         5.24219
     2009.77412         0.85408         5.23195
     2009.77686         0.09761         5.20682
     2009.77960         4.12513         5.59024
     2009.78234         6.80366         5.22637
     2009.78507         4.03919         5.32594
     2009.78781        -1.10728         5.37713
     2009.79055        -4.89175         5.38457
     2009.79329        -0.49922         5.41994
     2009.79603        -3.77870         5.48229
     2009.79882         0.10297         5.44692
     2009.80150        -4.46664         5.51951
     2009.80424         1.87489         5.45251
     2009.80698        -0.59258         5.43948
     2009.80971         2.94695         5.37806
     2009.81245         0.74747         5.50742
     2009.81519         1.88600         5.44599
     2009.81793        -1.09347         5.56418
     2009.82067        -1.66594         5.44786
     2009.82340         3.63759         5.33153
     2009.82614         6.59912         5.32315
     2009.82888         3.40364         5.42924
     2009.83162         9.27517         5.62095
     2009.83436        -4.27330         5.34828
     2009.83709        -4.60777         5.42366
     2009.83983        -0.81924         5.42273
     2009.84257         2.88429         5.34270
     2009.84525         6.10468         5.59582
     2009.84804         0.90234         5.86384
     2009.85078        14.58287         5.42831
     2009.85352         4.41440         5.38643
     2009.85626        -1.53507         5.38457
     2009.85905        -0.48341         5.55767
     2009.86173        -8.11602         5.46461
     2009.86447         2.44351         5.72053
     2009.86721         2.79504         5.54650
     2009.86995         1.32657         5.35107
     2009.87269         3.50710         5.72704
     2009.87548        -2.82924         5.53813
     2009.87816         6.64815         5.59862
     2009.88090        -1.30132         5.69354
     2009.88364         3.97621         5.35293
     2009.88626         4.88747         5.58466
     2009.88911         0.33827         5.63026
     2009.89185         2.66080         5.51114
     2009.89459        -3.37767         5.34549
     2009.89733        -8.02215         5.31292
     2009.90006        -5.37262         5.24033
     2009.90280        -2.75009         5.20869
     2009.90554        -6.57556         5.23847
     2009.90828        -5.38403         5.21241
     2009.91102        -8.30450         5.38830
     2009.91375        -2.48198         5.20589
     2009.91649        -5.81745         5.25149
     2009.91929        -9.81678         5.27755
     2009.92197        -7.86939         5.14447
     2009.92470        -8.16786         5.17798
     2009.92744        -5.55433         5.22451
     2009.93018        -4.12581         5.20031
     2009.93292        -2.55028         5.20124
     2009.93566        -5.46375         5.44879
     2009.93839        -3.72122         5.33153
     2009.94113        -2.31669         5.21613
     2009.94387        -4.05716         5.30268
     2009.94661         0.05636         5.32408
     2009.94935        -0.74911         5.17053
     2009.95208        -2.94158         5.15843
     2009.95482       -12.47005         5.19287
     2009.95756         0.88648         5.37899
     2009.96030       -10.32499         5.23195
     2009.96303        -8.88947         5.20869
     2009.96577        -9.79694         5.25429
     2009.96851        -9.23841         5.31012
     2009.97125        -2.93388         5.32781
     2009.97399        -3.73235         5.23567
     2009.97672       -11.12182         5.15099
     2009.97952       -11.86316         5.24963
     2009.98220       -10.78577         5.12679
     2009.98494        -6.81524         5.40319
     2009.98767        -7.41871         5.08864
     2009.99041       -11.14118         5.15099
     2009.99315        -7.80065         5.16960
     2009.99589       -11.85813         5.13889
     2009.99863        -7.59460         5.12307
     2010.00410        -7.63254         5.19380
     2010.00684       -13.99301         5.37527
     2010.00958       -10.63648         5.15099
     2010.01232         0.01404         5.28500
     2010.01505       -12.42243         5.16588
     2010.02059        -4.02224         5.25987
     2010.02327        -7.43184         5.18635
     2010.02600        -9.33731         5.17984
     2010.02874        -5.01679         5.25894
     2010.03148        -6.35226         5.33060
     2010.03422        -5.47873         5.24870
     2010.03696        -2.86420         5.74938
     2010.03969        -3.00767         6.01553
     2010.04243        -2.89714         7.70182
     2010.04514         8.20732        11.15722
     2010.04796         7.67205         6.86519
     2010.05067         1.83650         6.58787
     2010.05339         4.64199         5.92619
     2010.05612        10.53850         6.74421
     2010.05885         8.03000         9.57423
     2010.06160        -1.60945         6.92475
     2010.06433        -5.15392         5.32222
     2010.06707        -5.71839         5.20217
     2010.06981       -10.55786         5.90386
     2010.07255        -2.32233         6.52551
     2010.07529        -8.10680         6.19049
     2010.07797         0.56659         7.17416
     2010.08076        -6.03975         6.27611
     2010.08350        -3.93122         5.94015
     2010.08629        -0.29056         6.75166
     2010.08898        11.91684         6.74049
     2010.09171         4.60437         5.87408
     2010.09445         2.65189         5.94295
     2010.09719         2.52942         6.62230
     2010.09993         2.92395         9.40858
     2010.10266        -1.27152         7.98194
     2010.10540        -2.66799         7.60504
     2010.10814         1.41754         7.41705
     2010.11088        10.54606        10.08700
     2010.11362         6.12259         7.87305
     2010.11635         8.39212         7.77441
     2010.11909         2.14865         6.81587
     2010.12183         2.44518         6.47154
     2010.12457         5.55771         7.18346
     2010.12731         1.84623         7.84327
     2010.13004        -5.69724         7.40495
     2010.13278        -3.58071         7.72136
     2010.13552        -0.51718         7.53803
     2010.13716        -3.22426        19.56072
     2010.14117        -2.78871        12.77091
     2010.14373        -7.61360         8.11688
     2010.14647        -3.01607         6.86705
     2010.14915         0.01032         7.93820
     2010.15200         2.50012         7.40402
     2010.15468        -1.18048         7.12204
     2010.15748        10.69518         6.52645
     2010.16016         2.50557         5.97738
     2010.16290        -4.75590         5.91875
     2010.16564         3.10463         5.92806
     2010.16837         5.20716         6.51342
     2010.17111         0.00969         5.87966
     2010.17385        -1.04678         6.33660
     2010.17659        -3.90626         5.87966
     2010.17932        -1.35273         5.67400
     2010.18206         5.41580         5.62374
     2010.18480         1.32533         5.71401
     2010.18754         0.76186         5.81266
     2010.19028         2.66639         6.02949
     2010.19301         6.76891         5.74938
     2010.19564         1.11917         6.72653
     2010.19849         2.05997         6.88660
     2010.20123        -6.82350         6.52179
     2010.20397        -6.50797         5.94667
     2010.20670        -7.34544         6.02484
     2010.20944        -3.30092         5.69726
     2010.21218        -2.95839         5.63584
     2010.21492         2.72214         5.87780
     2010.21765        -3.02033         6.04811
     2010.22039        -1.05980         6.26680
     2010.22313        -7.83827         5.72704
     2010.23408       -11.11816         5.49346
     2010.24503        -1.02705         5.60048
     2010.24777        -3.95952         5.29710
     2010.25051        -0.21799         5.52882
     2010.25325         0.05654         5.38737
     2010.25598         4.28507         5.27383
     2010.25872         6.95359         5.39574
     2010.26146        -0.54188         5.37992
     2010.26420         0.74065         5.48880
     2010.26694         5.03318         5.65352
     2010.26967         0.27071         5.33153
     2010.27241        -0.46376         5.30454
     2010.27515        -1.02824         5.20403
     2010.27789        -4.27571         5.27848
     2010.28062        -1.65118         5.20589
     2010.28336        -2.84265         5.31385
     2010.28610        -2.55212         5.26732
     2010.28884        -1.33659         5.46088
     2010.29158        -3.24207         5.22451
     2010.29437         0.78660         5.36503
     2010.29705        -4.83501         5.14727
     2010.29985         0.62665         5.38178
     2010.30253         4.03805         5.23940
     2010.30527         3.57158         5.41435
     2010.30800         3.94510         5.18635
     2010.31074         1.58663         5.96249
     2010.31348         3.65616         5.59582
     2010.31622         2.88669         5.51765
     2010.31895         2.27722         5.45437
     2010.32169         2.69975         5.14727
     2010.32443         2.52027         5.23009
     2010.32723        -3.11706         5.24870
     2010.32991         2.86133         5.17704
     2010.33264         2.44086         5.15471
     2010.33538         7.03639         5.91968
     2010.33812        -5.15308         5.14261
     2010.34086        -6.88756         5.07095
     2010.34360        -6.78503         5.09887
     2010.34639        -2.86536         5.33525
     2010.34913        -7.71484         5.20124
     2010.35187        -3.20931         5.18635
     2010.35455        -3.31491         5.07840
     2010.35728        -5.43339         6.15885
     2010.36002        -3.76086         5.40970
     2010.36276        -5.55133         5.12586
     2010.36550        -4.64980         5.32315
     2010.36824        -1.79027         5.27941
     2010.37097        -1.73374         5.18542
     2010.37371         2.71878         5.13517
     2010.37645         0.77331         5.11562
     2010.37919        -1.16316         5.56604
     2010.38193        -7.84363         5.52789
     2010.38466        -1.97110         5.25056
     2010.38746         0.78856         5.25243
     2010.39014        -2.63705         5.16029
     2010.39288        -3.89152         5.14633
     2010.39561        -6.07299         5.20962
     2010.39835        -3.91146         5.08677
     2010.40109        -4.18893         5.60792
     2010.40383       -10.46440         5.06723
     2010.40657         0.57512         5.06258
     2010.40930        -1.75635         5.05048
     2010.41204        -6.74482         5.07095
     2010.41478         2.08271         5.07747
     2010.41752        -5.14076         5.08398
     2010.42026         2.12977         5.21613
     2010.42299        -4.33271         5.22171
     2010.42573       -10.20518         5.06444
     2010.42847       -12.41565         5.15471
     2010.43121       -11.13612         5.16588
     2010.43394        -8.48559         5.07282
     2010.43668        -8.45106         5.16588
     2010.43942        -2.82654         5.04676
     2010.44216       -11.18501         5.00674
     2010.44490        -9.36648         5.02070
     2010.44769        -4.57281         5.19659
     2010.45037        -4.69442         5.09422
     2010.45311        -8.46689         5.05420
     2010.45585        -7.66437         5.03373
     2010.45859        -8.59084         5.16495
     2010.46132        -6.35131         5.16122
     2010.46406        -7.15678         5.13610
     2010.46680        -3.32325         5.02070
     2010.46954        -6.48972         5.15936
     2010.47227       -11.80620         5.09515
     2010.47501        -9.59567         5.08584
     2010.47775        -0.52114         5.19473
     2010.48049        -1.35361         5.25243
     2010.48323        -1.23708         5.10166
     2010.48596         8.61845         5.08957
     2010.48899         2.66465         5.57349
     2010.49144        -1.97650         5.12121
     2010.49418        -2.34097         5.48601
     2010.49692         1.75056         6.57391
     2010.49965        -9.34991         8.75901
     2010.50214         6.76803        15.11049
     2010.52977         0.26190         5.48694
     2010.53251        -6.08757         5.09794
     2010.53525        -1.03304         5.09329
     2010.53798        -2.67552         5.10539
     2010.54072       -10.76499         5.04583
     2010.54346        -2.14446         5.11935
     2010.54620        -3.86393         5.23102
     2010.54893        -5.41040         5.08677
     2010.55167        -8.15187         5.02908
     2010.55441        -0.09535         5.15471
     2010.55715        -4.21982         5.08677
     2010.55989        -4.46229         5.04117
     2010.56262        -4.94576         5.11190
     2010.56536        -3.31223         5.47857
     2010.56810        -4.80570         5.11655
     2010.57084        -1.56118         5.07468
     2010.57357        -3.42065         5.21148
     2010.57631        -3.40812         5.25149
     2010.57905         0.50241         5.29244
     2010.58179        -4.57406         5.51579
     2010.58453        -6.53253         5.08026
     2010.58726        -0.62501         5.15099
     2010.59000        -2.23148         5.20217
     2010.59274        -0.06695         5.10166
     2010.59548        -0.77742         5.15750
     2010.59822        -2.61289         5.03466
     2010.60095        -0.29436         5.55860
     2010.60369        -3.23884         5.15006
     2010.60643         0.01469         5.16867
     2010.60917        -0.91178         5.11562
     2010.61190        -1.30925         4.98906
     2010.61464         1.48328         5.02721
     2010.61738         1.35081         5.72425
     2010.62012        -5.05367         5.09329
     2010.62286        -4.09814         5.12121
     2010.62559        -0.76261         5.04490
     2010.62833         5.60292         5.09701
     2010.63107         2.38345         5.24219
     2010.63381         6.01398         5.10539
     2010.63655         5.16750         5.37713
     2010.63928        -1.48197         5.06351
     2010.64202        -4.72244         5.07468
     2010.64476        -4.69991         5.11562
     2010.64750        -3.90738         5.07002
     2010.65023         2.26015         5.26173
     2010.65297        -9.26633         5.27569
     2010.65571         0.41420         4.99092
     2010.65845         2.60573         5.03931
     2010.66119        -0.96474         5.09980
     2010.66392         1.97679         5.07188
     2010.66666         5.44632         5.13889
     2010.66940         1.02984         4.98813
     2010.67214         1.22637         5.37154
     2010.67488        -3.65910         5.15378
     2010.67761         5.78543         5.16774
     2010.68035        -2.12704         5.04676
     2010.68309         7.09849         5.08119
     2010.68583         2.21601         5.08305
     2010.68856        -5.13846         5.04862
     2010.69130        -1.69793         4.99557
     2010.69404        -3.68040         5.11842
     2010.69678        -8.22287         5.00116
     2010.69952        -8.15934         5.05979
     2010.70225        -0.96782         5.14075
     2010.70499        -2.71029         5.06630
     2010.70773        -3.48276         5.03931
     2010.71047         2.39177         5.05327
     2010.71321        -6.76970         5.07747
     2010.71594        -1.60317         5.15192
     2010.71868        -0.28265         5.04583
     2010.72142         2.51388         5.16867
     2010.72416         2.25341         5.62840
     2010.72689        -0.56606         5.36038
     2010.72963         2.25547         5.09980
     2010.73237        -3.32900         5.06537
     2010.73511        -1.76948         5.10725
     2010.73785         0.33805         5.27011
     2010.74058        -1.31442         5.16215
     2010.74332        -2.80189         5.07282
     2010.74606         0.76664         5.13889
     2010.74880        -2.96083         5.10166
     2010.75154         1.21669         5.04397
     2010.75427         3.10922         5.21241
     2010.75701         2.22775         5.23940
     2010.75975        -6.44772         5.10166
     2010.76249        -0.50619         5.11097
     2010.76522         0.16934         5.00488
     2010.76796        -4.86114         5.06537
     2010.77070        -6.55461         5.07654
     2010.77344        -1.98008         5.25243
     2010.77618        -3.66555         5.38830
     2010.77891        -7.78902         5.02628
     2010.78165        -1.19549         4.98999
     2010.78439        -2.42897         5.10539
     2010.78713         9.43556         5.36317
     2010.78987         1.44509         5.03094
     2010.79260        -2.40038         5.35293
     2010.79534        -2.83985         4.98068
     2010.79808         1.50768         5.04490
     2010.80082         0.80720         5.02535
     2010.80355         1.55473         5.03652
     2010.80629         4.35526         5.08119
     2010.80903         2.92579         5.04304
     2010.81177         5.46832         5.45902
     2010.81451        10.10585         5.08957
     2010.81724         2.69837         5.07561
     2010.81998         0.88090         5.09980
     2010.82272        -0.15357         5.19845
     2010.82546         1.20596         5.09422
     2010.82820         2.07149         5.11655
     2010.83093        -1.94498         5.39295
     2010.83367         4.94554         5.41715
     2010.83641       -10.14793         5.15936
     2010.83915        -6.10140         5.11004
     2010.84188        -4.39387         5.13889
     2010.84462        -0.40634         5.10353
     2010.84736         0.24619         5.10911
     2010.85010         5.88371         5.19938
     2010.85284         3.66324         5.13889
     2010.85557         3.66377         5.10446
     2010.85831        -1.41870         5.04117
     2010.86105        -4.26617         5.04955
     2010.86379        -6.08464         5.15936
     2010.86653       -10.97412         5.14633
     2010.86926        -0.75759         5.09236
     2010.87200        -4.47906         5.03559
     2010.87474        -3.83053         5.39016
     2010.87748        -0.01500         5.17704
     2010.88021         6.26353         5.07375
     2010.88295        -0.73395         5.10725
     2010.88569         2.05858         5.11935
     2010.88843         1.42211         5.26080
     2010.89117         3.66664         5.28500
     2010.89390         6.06017         5.00302
     2010.89664         3.90170         5.02721
     2010.89938         2.82322         5.12028
     2010.90212         1.98875         5.15750
     2010.90485         1.70628         5.23381
     2010.90759         3.97581         4.99744
     2010.91033         1.32234         4.98720
     2010.91307        -6.55613         5.01232
     2010.91581        -0.20961         5.02256
     2010.91769         5.91088         8.30672
     2010.92402        -2.48602         5.03745
     2010.92676        -3.58349         5.06444
     2010.92950       -12.94296         5.06816
     2010.93223        -7.18244         5.08864
     2010.93497        -6.43091         5.11190
     2010.93771        -1.14738         5.11283
     2010.94045        -0.41585         5.20217
     2010.94318        -3.09532         5.09422
     2010.94592         0.91521         5.18449
     2010.94866         5.18273         5.07282
     2010.95140         6.97326         5.33897
     2010.95414         3.76279         5.09701
     2010.95687        -2.83468         5.05513
     2010.95961        -4.03215         5.33246
     2010.96235        -9.11162         5.04769
     2010.96509        -6.61310         5.10818
     2010.96783        -9.52357         5.12493
     2010.97056        -6.00104         5.09701
     2010.97330         1.46949         5.13424
     2010.97604        -0.39498         5.07002
     2010.97878         0.18655         5.08398
     2010.98151        -0.70093         5.16215
     2010.98425         3.65060         5.11842
     2010.98699        -1.92387         5.06630
     2010.98973         3.90566         5.05513
     2010.99247         9.25519         5.25056
     2010.99520         8.10872         5.31385
     2010.99794        -4.18676         4.94346
     2011.00342         2.78430         5.08305
     2011.00616         2.55783         5.03466
     2011.00889        -0.56364         5.11655
     2011.01163        -3.61811         4.98161
     2011.01437        -4.22059         5.23940
     2011.01711        -1.51506         5.15285
     2011.01984         3.50347         5.07282
     2011.02258        -3.85700         4.99744
     2011.02532        -5.36447         5.15099
     2011.02806        -4.20994         5.22637
     2011.03080        -3.83542         5.03838
     2011.03353        -4.71189         5.18635
     2011.03627        -2.21936         5.15006
     2011.03901        -6.85083         5.06537
     2011.04175        -5.71630         5.04955
     2011.04449        -2.07577         5.16960
     2011.04722        -3.07425         5.12679
     2011.04996        -8.37972         5.06723
     2011.05270        -8.25319         4.95742
     2011.05544        -4.95566         4.95928
     2011.05817        -5.22013         4.98627
     2011.06091        -0.16060         4.96300
     2011.06365        -4.94508         4.97696
     2011.06639        -6.12755         4.96393
     2011.06913       -11.24602         5.43110
     2011.07186        -7.44449         4.96021
     2011.07460        -5.27096         4.98534
     2011.07734        -2.77043         5.03838
     2011.08008        -5.47191         4.94718
     2011.08282       -13.63338         5.01977
     2011.08555       -15.21885         4.98534
     2011.08835       -10.95718         5.01326
     2011.09103       -11.34879         4.96766
     2011.09377        -4.57026         5.06444
     2011.09650       -13.09474         5.03931
     2011.09924         0.77179         5.04769
     2011.10198        -7.60368         5.09794
     2011.10472        -5.52915         5.08026
     2011.10717        -9.91530         5.78009
     2011.11025        -6.17396         5.10818
     2011.11293        -2.78357         6.01740
     2011.11567         0.82796         7.15834
     2011.11841        -3.62651         7.61806
     2011.12115        -4.58498         7.24023
     2011.12385        -6.09952        14.32226
     2011.13826         0.73382        18.15828
     2011.14015         2.76634        13.27717
     2011.14388        12.58624        22.53406
     2011.14579        16.69978        13.32091
     2011.14852        12.48030        13.32556
     2011.15126         8.69083        13.46329
     2011.15400         7.97236        13.63732
     2011.15674        11.90689        18.75946
     2011.15948        13.22942        23.08033
     2011.16203         5.00350        23.59590
     2011.16867       -18.44966        41.37355
     2011.17043        -2.75046        21.53364
     2011.17316       -23.22294        23.60613
     2011.18206       -23.60174        15.63723
     2011.18808        16.74462        18.94744
     2011.18959        -3.05877         4.93974
     2011.19233        -7.65224         4.97789
     2011.19507        -0.19071         5.14447
     2011.19780         3.81181         5.24033
     2011.20054        -1.24666         5.03187
     2011.20328        -1.77213         5.09980
     2011.20602         1.88140         5.13144
     2011.20876        -2.85907         5.08119
     2011.21149       -11.43954         5.10353
     2011.21423        -4.10902         5.04304
     2011.21697        -2.87249         5.13424
     2011.21971         0.15404         5.07933
     2011.22245        -6.65643         5.01698
     2011.22518         0.95710         5.05048
     2011.22792        -2.29537         5.05141
     2011.23066        -4.50285         5.07002
     2011.23340         1.75468         5.08398
     2011.23613        -4.16679         4.98068
     2011.23887        -6.07826         4.96300
     2011.24161        -6.99473         5.11469
     2011.24435       -21.69920         5.25149
     2011.24709        -7.90768         5.01326
     2011.24982        -4.94815         5.03745
     2011.25256        -3.50062         4.98161
     2011.25530        -7.37909         5.37341
     2011.25804         3.87144         5.21892
     2011.26078         1.10497         5.32408
     2011.26351         0.12549         4.97138
     2011.26625        -3.11898         4.95742
     2011.26899        -0.97345         4.96672
     2011.27173        -4.51092         5.07561
     2011.27446         0.21961         5.21520
     2011.27720        -6.81086         5.15750
     2011.27994        -2.99234         5.02721
     2011.28268       -12.00281         5.00953
     2011.28542       -12.81728         4.97138
     2011.28815        -8.96975         5.01512
     2011.29089        -5.34122         4.98161
     2011.29363        -4.26569         5.00209
     2011.29637        -8.43117         5.34735
     2011.29911        -2.81564         4.94625
     2011.30184        -1.94511         5.15285
     2011.30458        -6.95058         4.96766
     2011.30732        -0.81605         4.95183
     2011.31006         2.17148         5.01139
     2011.31279        -2.37900         5.15006
     2011.31553        -2.13247         5.85547
     2011.31827         0.23306         5.05048
     2011.32101        -4.33441         5.01139
     2011.32375        -6.32488         4.98627
     2011.32648        -9.27235         4.94253
     2011.32922        -9.37783         4.96859
     2011.33196        -5.29530         5.04862
     2011.33470       -11.38777         5.08491
     2011.33744        -7.83024         5.06165
     2011.34017        -5.39471         5.19566
     2011.34291        -3.11218         5.17984
     2011.34565        -3.10666         5.11842
     2011.34839        -3.22413         5.07468
     2011.35112        -9.45460         5.07188
     2011.35386       -12.42607         5.04304
     2011.35660        -8.31354         4.96766
     2011.35934       -13.76701         4.96859
     2011.36208       -11.23649         4.98441
     2011.36481        -8.25196         5.09143
     2011.36755        -5.07643         5.11469
     2011.37029        -7.23190         5.08398
     2011.37303        -1.51737         5.07188
     2011.37577        -7.16684         5.08864
     2011.37850        -8.30832         5.08398
     2011.38124        -8.92379         5.08119
     2011.38386       -13.87753         5.48601
     2011.38672        -8.79073         5.07747
     2011.38945        -7.17820         5.05513
     2011.39219        -8.03167         5.10166
     2011.39493        -7.30915         5.06816
     2011.39767       -10.26762         5.08305
     2011.40041        -8.98409         5.29151
     2011.40314        -9.96756         5.11842
     2011.40588        -4.44003         5.07002
     2011.40862        -6.60650         5.06072
     2011.41136        -8.71198         5.11842
     2011.41410        -9.41545         5.08957
     2011.41683        -6.26292         5.08491
     2011.41957        -8.46939         5.07654
     2011.42231       -10.38786         5.06816
     2011.42505        -7.56633         5.09515
     2011.42778        -8.33181         5.09515
     2011.43052       -10.93028         5.05606
     2011.43326       -16.45975         5.08398
     2011.43600       -10.56322         5.46554
     2011.43874       -12.50569         5.08026
     2011.44147        -8.31916         5.08771
     2011.44421        -3.45964         5.08026
     2011.44695        -6.87511         5.13610
     2011.44969        -6.44458         6.32078
     2011.45243        -8.05705         5.04955
     2011.45516       -11.94652         5.08305
     2011.45790        -6.54399         5.43948
     2011.46064        -8.80647         5.19287
     2011.46338       -13.63494         5.18728
     2011.46611        -8.02841         5.21799
     2011.46885        -6.56788         5.11469
     2011.47159        -0.86735         5.16774
     2011.47433        -6.75782         5.15657
     2011.47707        -6.16630         5.08491
     2011.47980        -3.37377         5.13238
     2011.48254        -0.46424         5.11935
     2011.48528       -12.19071         5.13238
     2011.48802         1.12382         5.13238
     2011.49076        -2.30865         5.12493
     2011.49349        -2.39613         5.18821
     2011.49623        -4.01760         5.09422
     2011.49897         2.13693         5.16309
     2011.50171         1.00946         5.20031
     2011.50444        -7.87301         5.14447
     2011.50718        -4.70648         5.10911
     2011.50992        -5.01896         5.10539
     2011.51266        -1.01943         5.20031
     2011.51545        -3.71376         5.20124
     2011.51819        -0.48124         5.17704
     2011.52093         2.17629         5.61258
     2011.52361        -4.04331         5.13610
     2011.52635        -1.49679         5.11655
     2011.52908         6.39074         5.09608
     2011.53182        -1.86573         5.09701
     2011.53456        -0.55120         5.09608
     2011.53730         7.43833         5.22171
     2011.54004        -5.82714         5.16774
     2011.54277        -6.85962         5.07468
     2011.54551        -1.44809         5.16774
     2011.54825        -8.67856         5.13889
     2011.55099        -1.65203         5.11190
     2011.55373        -2.28050         5.23009
     2011.55646        -5.44097         5.13331
     2011.55926        -2.42831         5.15378
     2011.56194         1.91608         5.20869
     2011.56468        -0.01439         5.07468
     2011.56741         4.35914         5.15285
     2011.57015        -3.32333         5.75961
     2011.57289        -3.01080         5.08119
     2011.57563         2.56572         5.15657
     2011.57837         3.77825         5.21985
     2011.58110        -5.01122         5.13051
     2011.58384        -3.35569         5.27755
     2011.58658        -0.05516         5.39574
     2011.58932        -0.10263         5.05234
     2011.59206         0.57089         5.09329
     2011.59485         5.95256         5.14354
     2011.59753         4.63295         5.07095
     2011.60027         2.30748         5.16774
     2011.60306        -2.21386         5.44879
     2011.60574        -2.37146         5.10073
     2011.60848         5.37206         5.32501
     2011.61128        -4.17327         5.48415
     2011.61396         3.44112         5.22544
     2011.61670         5.25965         5.25149
     2011.61949         6.97731         5.49904
     2011.62223        -0.37816         5.34456
     2011.62491        -2.43677         5.73821
     2011.62765         1.82076         5.16029
     2011.63039         0.77629         5.17239
     2011.63312         3.73582         5.13238
     2011.63586         4.88635         5.17146
     2011.63860         2.20788         5.19752
     2011.64134         5.06440         5.43017
     2011.64407         5.94093         5.20217
     2011.64681         6.54546         5.64887
     2011.64955         1.65999         5.28221
     2011.65229        -0.91748         5.20310
     2011.65503         0.25305         5.45437
     2011.65776        -0.07143         5.24870
     2011.66050         5.86410         5.48601
     2011.66324         4.17963         5.17053
     2011.66598         2.42816         5.22265
     2011.66872         3.43569         5.26452
     2011.67145         5.52622         5.10446
     2011.67425         4.80688         5.19380
     2011.67693         7.55327         5.12772
     2011.67967         5.48980         5.15471
     2011.68240         1.55233         5.18077
     2011.68446         2.16623         7.42449
     2011.69678         4.46760        11.11162
     2011.69883         2.97150         6.18863
     2011.70157         6.53003         5.18635
     2011.70431         5.93956         5.24684
     2011.70705         0.82008         5.29523
     2011.70978         1.79161         5.26732
     2011.71252         0.69314         5.23474
     2011.71526         1.63967         5.38923
     2011.71800         3.78320         5.31664
     2011.72073         3.40473         5.14261
     2011.72347         6.16525         5.26638
     2011.72621         2.57778         5.16588
     2011.72895        10.60731         5.12214
     2011.73169         3.39284         5.30175
     2011.73442        10.16937         5.23660
     2011.73648        27.48726         7.30910
     2011.73921         6.67879         7.31189
     2011.74195         7.32232         7.18253
     2011.74469        16.14485         7.24582
     2011.74743        14.05338         7.37238
     2011.75017        11.10291         7.26629
     2011.75290        10.70843         7.30631
     2011.75564         7.24996         7.25419
     2011.75838        12.01249         7.23372
     2011.76112         8.67002         7.22255
     2011.76386         3.02455         7.28769
     2011.76659         0.74608         7.26071
     2011.76933         5.81560         7.46451
     2011.77207        13.04013         7.43566
     2011.77481         8.06766         7.59108
     2011.77754         7.42519         7.64133
     2011.78028         0.75772         7.37889
     2011.78302         4.70825         7.21883
     2011.78576         6.16377         7.09692
     2011.78845         7.48719         7.60410
     2011.79123        -5.91117         7.19835
     2011.79397        -7.61064         7.25698
     2011.79671         0.71689         7.29886
     2011.79945        10.33742         7.11367
     2011.80219        -3.49406         7.08203
     2011.80492        -9.99153         7.16299
     2011.80766        -4.21300         7.43845
     2011.81040         6.25353         7.22627
     2011.81314        -1.17994         7.42449
     2011.81587        -1.69941         6.99641
     2011.81861         3.10911         7.02898
     2011.82135         2.15364         7.03270
     2011.82409        -3.07283         7.25977
     2011.82683         1.70270         6.95081
     2011.82956         8.65023         7.26164
     2011.83230        -1.50124         6.91824
     2011.83504         0.63128         7.01316
     2011.83778         5.09481         6.96477
     2011.84052         6.41834         6.95174
     2011.84325         9.42187         6.96942
     2011.84599         7.04640         6.98989
     2011.84873         2.34093         6.99362
     2011.85147        -0.93755         7.05969
     2011.85420        -1.72102         7.18533
     2011.85694         0.95151         7.24395
     2011.85968         8.64204         7.02433
     2011.86242        14.12457         7.80140
     2011.86516        10.02710         7.27653
     2011.86789        12.90062         7.12390
     2011.87063         0.05915         7.13321
     2011.87337         2.53368         7.03829
     2011.87611        12.30221         7.39285
     2011.87885        13.21074         7.42729
     2011.88158         6.85827         7.21976
     2011.88432         7.70379         7.10715
     2011.88706         3.58532         7.12111
     2011.88980         0.31485         7.17788
     2011.89253        13.14938         7.52035
     2011.89527         8.91991         7.11646
     2011.89801         4.67944         7.28769
     2011.90075        -1.70704         7.14438
     2011.90349        10.22249         7.40960
     2011.90622         8.54402         7.34353
     2011.90965         1.66118         5.12214
     2011.91238         0.50771         5.27569
     2011.91786        -1.45323         5.26359
     2011.92054        -7.49084         5.25987
     2011.92613        -5.98951         5.30268
     2011.92881        -5.31212         5.50742
     2011.93155         2.53541         5.16681
     2011.93702        -0.76454         5.14820
     2011.93976         1.02599         5.18263
     2011.94250         2.44252         5.16029
     2011.94524         1.54505         5.12214
     2011.94798         6.02758         5.14075
     2011.95071         4.05811         5.07188
     2012.05201         8.15165         5.04583
     2012.05475        16.71418         5.09701
     2012.05749         3.83371         5.01605
     2012.06023        10.17824         5.09515
     2012.06297         2.08677         5.04955
     2012.06570        -3.26470         5.13982
     2012.07118        -3.72765         5.01139
     2012.07392        -0.42212         5.00488
     2012.07666         0.76341         5.04862
     2012.07939         4.50394         5.21427
     2012.08213         5.76747         5.02349
     2012.08458         4.11431         5.64608
     2012.09034        -2.90395         5.03280
     2012.09308        -0.02342         5.00209
     2012.09582         0.88711         5.13424
     2012.09856         0.25864         5.03466
     2012.10130         0.17716         5.15471
     2012.10392        -4.67158         5.14447
     2012.10951        -0.65625         5.17332
     2012.11225         2.07328         5.27290
     2012.11498        -1.53919         5.07654
     2012.11772         3.78633         5.02815
     2012.12046         4.08086         5.04769
     2012.12320         2.07539         5.08026
     2012.12867        -4.17955         5.21613
     2012.13141        -3.77302         5.13889
     2012.13415        -1.15050         5.07282
     2012.13689         3.32703         5.10725
     2012.13963         9.68656         5.35945
     2012.14236       -14.43191         5.42831
     2012.14784        -3.58585         4.98999
     2012.15058        -0.80433         5.07188
     2012.15331        -1.93980         5.03280
     2012.15600        -3.93740         5.22544
     2012.15879        -3.15674         5.11376
     2012.16153         4.40779         5.00674
     2012.16700        -1.36016         5.09236
     2012.16974        -4.59563         5.05141
     2012.17248        -3.13810         5.02908
     2012.17522        -4.94357         5.57070
     2012.17796         1.81096         5.05513
     2012.18069        -2.29151         5.00767
     2012.18617        -4.92046         5.04583
     2012.18891        -0.50593         5.08212
     2012.19164         5.92360         5.95970
     2012.19438        -1.65987         5.09143
     2012.19712         3.15566         5.12865
     2012.19986         2.46118         5.08677
     2012.20533         3.49624         5.32315
     2012.20807         6.88677         5.04490
     2012.21081         3.67930         5.03280
     2012.21343        -0.14145         5.29523
     2012.21862        -3.63007         5.94388
     2012.22262        -1.04655         8.36349
     2012.22450        -6.97006         5.05420
     2012.22724        -2.38853         5.05513
     2012.22997         2.76400         5.04955
     2012.23260         3.28725         5.32874
     2012.23545         4.34205         5.05606
     2012.23813         3.19345         5.15843
     2012.24366        -0.60336         5.12493
     2012.24640         1.25617         5.11562
     2012.24914         4.66069         5.07933
     2012.25188        -6.87078         5.06630
     2012.25462        -2.56925         5.05606
     2012.25735        -5.69372         5.16774
     2012.26283        -2.60566         4.98906
     2012.26557        -7.54214         5.00674
     2012.26819       -14.28188         7.94657
     2012.27110        -1.35394         5.33990
     2012.27378        -0.59755         5.04583
     2012.27658         1.83211         5.08864
     2012.28199        -1.92497         4.96114
     2012.28473         1.57656         5.05606
     2012.28747        -2.04591         5.11562
     2012.29021        -7.19138         5.00023
     2012.29295        -6.92685         5.06816
     2012.29568        -1.21032         5.03559
     2012.30116        -9.79627         5.13796
     2012.30390        -7.81874         5.07002
     2012.30663        -6.76221         5.02349
     2012.30937        -5.70368         5.06537
     2012.31211         2.13385         5.20589
     2012.31485        -0.09263         5.17053
     2012.32032         0.19543         5.12493
     2012.32306        -8.84404         4.98255
     2012.32580        -5.93151         4.96486
     2012.32854         1.71202         5.62560
     2012.33128        -2.50446         5.14261
     2012.33401        -7.47193         5.12586
     2012.33949        -6.69287         5.01977
     2012.34223       -11.72034         4.98534
     2012.34496       -12.26981         4.99464
     2012.34770        -8.85629         5.05234
     2012.35044        -5.11076         5.01791
     2012.35318        -7.17623         5.09329
     2012.35843       -10.57772         7.88143
     2012.36145        -4.20151         6.99176
     2012.36413        -6.46412         5.53533
     2012.36692        -6.20545         5.10260
     2012.36961        -3.85406         4.99837
     2012.37234        -1.65153         5.08864
     2012.37782         1.31753         5.12493
     2012.38056        -6.24594         5.11376
     2012.38329        -1.29142         5.09608
     2012.38603        -2.13989         5.13051
     2012.38877         3.96664         5.42924
     2012.39151         3.28517         5.08957
     2012.39698        -4.80377         5.07282
     2012.39972        -4.86225         4.99278
     2012.40246        -5.69772         5.02349
     2012.40520        -2.49519         5.00488
     2012.40794        -5.97966         4.99837
     2012.41067        -2.69913         5.04490
     2012.41615        -0.74508         5.11283
     2012.41889        -2.02555         5.16960
     2012.42162        -4.01302         5.61444
     2012.42442        -3.66336         5.12028
     2012.42710        -5.95796         5.00395
     2012.42989        -5.93530         5.08212
     2012.43531         0.94662         5.04304
     2012.43805        -5.94785         5.00116
     2012.44079        -9.35832         5.15099
     2012.44353        -8.69779         4.99092
     2012.44626         0.25874         5.10818
     2012.44900        -7.02174         4.99371
     2012.45448         3.46832         6.01740
     2012.45722        -1.86415         5.07375
     2012.45995        -8.74962         5.16402
     2012.46269         2.09191         5.27848
     2012.46543        -4.62757         5.11376
     2012.46817        -2.54004         5.09050
     2012.47364         1.46802         5.20962
     2012.47638         2.44155         5.05979
     2012.47912         1.76008         5.04117
     2012.49384        -1.24684         9.99301
     2012.49555        -1.61375         5.04676
     2012.49828        -6.03923         5.01046
     2012.50102         2.75030         5.03373
     2012.50376        -5.79217         5.23288
     2012.50650        -1.83764         4.96952
     2012.51197         0.38542         5.15843
     2012.51471         0.47194         4.99092
     2012.51745        -2.02753         4.98720
     2012.52019         1.51300         5.19193
     2012.52287        -2.05561         6.05462
     2012.52566        -4.35294         4.99930
     2012.53114         4.23711         5.07002
     2012.53388        -2.01836         5.09329
     2012.53661         6.51617         5.68516
     2012.53935         4.13770         5.86664
     2012.54209         9.90823         5.50648
     2012.54483        10.04776         5.12214
     2012.55030         6.22681         5.07561
     2012.55304        -0.23766         5.00953
     2012.55578         2.31587         5.06816
     2012.55852         2.07640         4.99744
     2012.56125         0.85593         5.10539
     2012.56399         3.80145         4.99557
     2012.56947        12.69651         5.10446
     2012.57221         8.22404         4.96952
     2012.57494         7.18757         5.03559
     2012.57768         1.41210         5.00767
     2012.58042         6.23062         5.01139
     2012.58316        -3.62785         5.01139
     2012.58863         7.27521         4.97696
     2012.59137         3.57074         6.35800
     2012.59411         3.94327         5.02349
     2012.59685        -6.33021         5.64794
     2012.59964         6.72746         5.28593
     2012.60238         5.85399         5.51114
     2012.60780         5.36491         4.98255
     2012.61054         2.57444         4.98720
     2012.61327         4.74896         5.00395
     2012.61601         8.50949         4.92857
     2012.61875        10.51002         5.06537
     2012.62149         7.92755         5.00302
     2012.62696         3.45661         5.83592
     2012.62970         7.93513         5.04862
     2012.63244         8.64266         5.05048
     2012.63518        14.34619         5.20310
     2012.63752        10.19277         5.92433
     2012.64025         8.71329         5.85361
     2012.64961         7.57160         7.59108
     2012.65166        13.03250         5.18821
     2012.65434        13.30689         5.02349
     2012.65708        13.46342         7.33609
     2012.65982        11.67395        10.22008
     2012.66529         9.00100         5.06258
     2012.66803         8.35953         5.09422
     2012.67077        14.28706         5.07188
     2012.67351        10.60259         5.04024
     2012.67613         9.68384         5.33060
     2012.67898        13.73464         5.05886
     2012.68446         9.15270         4.97789
     2012.68720        10.26923         4.99837
     2012.68993         7.83576         5.03373
     2012.69273        12.06242         6.24261
     2012.69541         5.39181         5.23195
     2012.69815         7.28734         5.06351
     2012.70362         0.74240         5.07747
     2012.70568        22.96430         7.14066
     2012.70910         4.99846         5.01419
     2012.71184         7.95598         4.96952
     2012.71457         8.87051         4.94625
     2012.71731         9.65304         4.98068
     2012.72279        10.69510         4.99371
     2012.72553         6.31163         5.05793
     2012.72826        12.05915         5.04676
     2012.73100         6.73568         5.09515
     2012.73374         7.68821         5.14261
     2012.73648        11.33374         5.01512
     2012.74195         7.12480         5.14354
     2012.74469         4.23232         5.03559
     2012.74743         7.49785         5.01232
     2012.75017         7.36038         5.58838
     2012.75290        12.31291         5.01884
     2012.75564         5.12644         4.98068
     2012.76112         7.25849         5.00209
     2012.76386         8.12602         4.99464
     2012.76659         8.64255         5.02815
     2012.76933         9.69608         5.06909
     2012.77207         8.94661         5.04397
     2012.77481         8.14114         5.06537
     2012.79397         4.48283         5.09608
     2012.79671         5.25936         5.05606
     2012.79945        11.18089         5.12772
     2012.80201        13.94201         5.76892
     2012.80555         2.79644         7.29979
     2012.80732         7.89666         5.91689
     2012.81040         7.03800         5.12400
     2012.81314         4.20853         5.08212
     2012.81587        -2.90894         5.07282
     2012.81861        -3.78841         5.22265
     2012.82135        -1.54188         5.13517
     2012.82409        -3.97535         5.27569
     2012.82683         2.33417         5.24870
     2012.82956         5.74670         5.06909
     2012.83230         3.90223         5.11469
     2012.83504         6.38976         5.25708
     2012.83778         1.20029         5.10353
     2012.84052         6.81282         5.23102
     2012.84257         4.69171         7.29979
     2012.85968         6.12851         5.08398
     2012.86242         1.82804         5.12400
     2012.86516         5.61557         5.12400
     2012.86789        -5.23590         5.55302
     2012.87063        -0.35337         5.07561
     2012.87337        -1.68384         5.07747
     2012.87611         2.54968         5.08119
     2012.87885         7.62421         5.08677
     2012.88158         5.58974         5.06816
     2012.88432         5.49027         5.08584
     2012.88706         5.70080         5.22637
     2012.88980         8.26633         5.15657
     2012.89253         6.19685         5.08491
     2012.89527         2.62738         5.12772
     2012.89801         1.24491         5.07840
     2012.90075         5.47444         5.07095
     2012.90349        -2.31203         6.44362
     2012.90622         3.02150         5.03187
     2012.90896         6.76802         5.15099
     2012.91170         6.29955         5.10166
     2012.91444         6.06308         5.14540
     2012.91718         7.01461         5.08305
     2012.91991         9.36214         5.05420
     2012.92265         3.68267         5.25336
     2012.92539         5.16819         5.05793
     2012.92813        -0.44028         5.06816
     2012.93086        -2.28775         5.13703
     2012.93360         1.68878         5.08119
     2012.93634         0.42631         5.03559
     2012.93908         0.65984         5.00767
     2012.94182        -3.29864         5.01791
     2012.94455        11.39989         5.26173
     2012.94729         9.50942         5.09050
     2012.95003         6.03895         5.08584
     2012.95277         9.36648         5.10911
     2012.95551        13.35101         4.95463
     2012.95824        12.29753         5.00953
     2012.96098        14.91206         5.21427
     2012.96372        10.25959         5.08398
     2012.96646         7.62112         5.08957
     2012.96919         5.99265         5.05793
     2012.97193         2.87918         5.07933
     2012.97467         7.77970         5.04955
     2012.97741         7.64623         5.00767
     2012.98015        10.57376         4.98906
     2012.98288         6.22229         4.97045
     2012.98562         4.54182         5.17425
     2012.98830         5.85421         5.67679
     2012.99657         2.44993         5.00488
     2012.99931         0.65946         4.99464
     2013.00205         5.53699         5.01791
     2013.00359        14.02366        17.05270
     2013.01026        -1.39843         4.98255
     2013.01300        -1.00290         4.98627
     2013.01574         0.60163         5.00953
     2013.01848         3.25416         5.07468
     2013.02053        15.66505         7.07086
     2013.02395         3.31921         5.17611
     2013.02561         3.90616        10.71703
     2013.02977        -0.43691         5.93085
     2013.03216        -0.48120         5.09608
     2013.03490        -1.20567         5.09701
     2013.03764        -1.05514         5.06723
     2013.04038        -5.48862         5.07561
     2013.04300        -7.91336         5.23102
     2013.04585        -3.58756         5.24498
     2013.04825        -8.50285         6.08812
     2013.05076         0.35714         6.63254
     2013.05407        -0.31697         5.07468
     2013.05681         2.12455         5.07840
     2013.05954        -1.24392         5.10353
     2013.06125        -1.87784        10.44994
     2013.06525        -5.47332         5.72425
     2013.06776         5.55467         5.39760
     2013.07049         2.92620         5.16960
     2013.07323         1.95472         5.08677
     2013.07597        -0.18375         5.06537
     2013.07871         2.57978         5.08119
     2013.08145         1.27331         5.06258
     2013.08418        -1.02916         5.08677
     2013.08692        -1.95563         5.04117
     2013.08966        -7.56611         4.99371
     2013.09240        -2.97758         5.06072
     2013.09514         3.80795         5.09143
     2013.09787         2.79348         5.26545
     2013.10061        -1.43099         5.37806
     2013.10335        -0.56646         5.06165
     2013.10609        -2.54994         4.99278
     2013.10882        -0.45541         4.98441
     2013.11156        -4.77588         5.15099
     2013.11430        -0.22135         5.03931
     2013.11704        -8.77282         5.09236
     2013.11978        -5.27229         6.32543
     2013.12251        -6.55577         5.02908
     2013.12525       -10.81624         5.51579
     2013.12799        -7.60171         5.10818
     2013.13073        -0.69418         5.07933
     2013.13347         0.82935         5.05420
     2013.13620         3.97288         5.04490
     2013.13894         3.63640         5.06537
     2013.14168         2.04193         5.12121
     2013.14442         1.88146         5.21892
     2013.14715         2.09999         5.32687
     2013.14989        -7.61248         5.08305
     2013.15263        -3.92795         5.11655
     2013.15537       -10.79443         5.02442
     2013.15811        -7.28690         5.02256
     2013.16084        -9.89037         5.08026
     2013.16358        -9.31384         5.06351
     2013.16632        -2.71431         5.01512
     2013.16906        -2.65978         5.02721
     2013.17180        -0.01426         5.04676
     2013.17453         0.68527         4.99650
     2013.17727        -1.70720         5.12772
     2013.18001        -2.85267         5.16122
     2013.18275        -0.96614         5.04024
     2013.18548        -3.50561         4.99092
     2013.18822        -0.74309         5.06537
     2013.19096        -5.82056         5.01605
     2013.19370        -3.58903         5.07840
     2013.19644        -5.11850         5.17332
     2013.19917        -2.37297         5.05793
     2013.20191        -1.77944         5.09422
     2013.20465         1.58108         5.02908
     2013.20739        -3.45039         5.07375
     2013.21013         2.76814         4.98999
     2013.21286        -1.94833         4.98720
     2013.21560        -6.59580         5.03280
     2013.21834         4.95373         5.02721
     2013.22108        -6.89975         4.97138
     2013.22381        -3.33622         5.01512
     2013.22655        -6.91769         4.97417
     2013.22929        -4.56316         4.98348
     2013.23203        -2.54463         4.95928
     2013.23477        -3.75310         4.95277
     2013.23750        -8.58558         5.11935
     2013.24024        -5.02305         5.09050
     2013.24298        -3.53252         5.07561
     2013.24572         1.92501         5.10632
     2013.24846         3.37254         5.08677
     2013.25119        -2.26093         5.10073
     2013.25393        -0.22741         5.09701
     2013.25667        -4.50588         5.33897
     2013.25941         3.06665         5.17611
     2013.26214        -1.72882         5.13703
     2013.26488        -2.02029         5.13796
     2013.26762        -0.73676         5.17984
     2013.27036        -3.62924         5.09143
     2013.27310        -4.58671         5.24033
     2013.27583        -2.42718         5.34549
     2013.27857         3.12535         5.20217
     2013.28131        -5.46212         5.28127
     2013.28405         2.59141         5.14820
     2013.28679         0.30793         5.04676
     2013.28952        -1.55854         5.09701
     2013.29226        -2.90401         5.15471
     2013.29500        -3.52048         5.14168
     2013.29774        -6.27195         5.15936
     2013.30047       -10.31042         5.17146
     2013.30321        -6.95090         5.10166
     2013.30595        -4.87037         5.21334
     2013.30869        -7.86684         5.12028
     2013.31143        -5.59331         5.09329
     2013.31416         1.98122         5.15936
     2013.31690        -2.59025         5.08491
     2013.31964         0.61527         5.17611
     2013.32238        -1.50120         5.18077
     2013.32512        -4.41667         5.24405
     2013.32785        -6.37714         5.13144
     2013.33059        -6.15261         5.09794
     2013.33333        -7.81308         5.12400
     2013.33607        -6.05256         5.13796
     2013.33880        -1.44303         5.13517
     2013.34154        -4.76550         5.14447
     2013.34428         0.80503         5.15099
     2013.34702        -2.92744         5.11562
     2013.34976        -1.04691         5.25987
     2013.35249        -6.38639         5.16215
     2013.35523        -7.46586         5.32315
     2013.35797        -3.72033         5.19566
     2013.36076         3.98434         5.26266
     2013.36344         6.16173         5.30268
     2013.36618        -2.17774         5.18635
     2013.36892         5.30878         5.14168
     2013.37166        -1.84469         5.08864
     2013.37440        -0.22416         5.12400
     2013.37713        -3.28063         5.13424
     2013.37987        -3.97510         5.11376
     2013.38261        -4.31157         5.12679
     2013.38535        -0.65305         5.33618
     2013.38809         0.22748         5.08957
     2013.39082        -3.19899         5.28034
     2013.39356        -2.79746         5.11749
     2013.39630        -2.89993         5.11935
     2013.39904        -0.11640         5.16495
     2013.40177        -0.80188         5.15378
     2013.40451         0.02765         5.15657
     2013.40725        -3.65282         5.59862
     2013.40999        -0.76929         5.18170
     2013.41273         1.41924         5.35386
     2013.41546        -2.01823         5.28034
     2013.41820        -2.92771         5.21520
     2013.42094         0.04182         5.15285
     2013.42368        -2.94865         5.17146
     2013.42642         1.07088         5.13331
     2013.42915         6.91241         5.16122
     2013.43189        -4.09106         5.25987
     2013.43463         3.42546         5.26452
     2013.43737         4.52699         5.17611
     2013.44010         7.58552         5.19193
     2013.44284         9.61105         5.14447
     2013.44558         0.81858         5.16960
     2013.44832        -0.97089         5.12028
     2013.45106        -1.43637         5.32781
     2013.45379        -0.03584         5.14447
     2013.45653         5.29669         5.25056
     2013.45927         5.73422         5.42645
     2013.46201         2.54075         5.19566
     2013.46475         0.29528         5.16588
     2013.46748        -2.45520         5.28965
     2013.47022        -3.60467         5.14168
     2013.47296        -0.85214         5.01139
     2013.47570         1.33339         5.03652
     2013.47843         1.49192         5.16122
     2013.48117        -5.49555         5.07933
     2013.48391         6.33097         5.13517
     2013.48648        -1.20390         5.38271
     2013.49037         2.49137         9.60401
     2013.49212         1.42056         5.08584
     2013.49486         3.28509         5.11190
     2013.49760         1.73262         5.20496
     2013.50034         5.41014         5.72425
     2013.50308         5.64267         5.08864
     2013.50581         6.65920         5.09515
     2013.50855         1.60773         5.02349
     2013.51129         3.24626         5.05606
     2013.51403         3.76679         5.12679
     2013.51676         7.22631         5.20589
     2013.51950         2.36584         5.27476
     2013.52224         6.89637         5.11562
     2013.52498         0.62390         5.22265
     2013.52772         2.48043         5.17425
     2013.53045        -2.07704         5.07188
     2013.53319         2.04048         5.22171
     2013.53593         2.40401         5.17239
     2013.53867         6.33954         5.10446
     2013.54141         7.56107         5.12400
     2013.54414         1.53360         5.09980
     2013.54688         4.52313         5.04955
     2013.54962         7.37165         5.08026
     2013.55236         6.76418         5.06630
     2013.55509         4.93471         5.11097
     2013.55675         2.22966        11.83843
     2013.57529        10.86686        11.51178
     2013.57700         5.78194         5.10260
     2013.57968         7.72033         5.26638
     2013.58247        16.06599         5.29616
     2013.58521         6.24552         5.05979
     2013.58795         7.02105         5.13238
     2013.59069        10.38358         5.07654
     2013.59342         8.10711         5.12493
     2013.59616         8.95364         5.13331
     2013.59890         9.81816         5.12400
     2013.60164         5.78669         5.16309
     2013.60438        14.06422         5.17798
     2013.60711         7.16375         5.10260
     2013.60985        10.37128         5.20403
     2013.61259         8.98081         5.18077
     2013.61533        13.38633         5.28686
     2013.61807        11.73186         5.39574
     2013.62080        12.33339         5.13051
     2013.62263        11.33474         8.57009
     2013.63529        12.34794         8.27880
     2013.63723        11.33056         5.06072
     2013.63997        17.73809         5.78381
     2013.64271        15.12962         5.27755
     2013.64544        14.77215         5.12307
     2013.64818        14.73968         5.14540
     2013.65092         4.31520         5.14540
     2013.65366         8.45773         5.09329
     2013.65639        10.24326         5.09422
     2013.65913        12.93879         5.22916
     2013.66187         8.91732         5.04490
     2013.66461         4.67985         5.03838
     2013.66735        15.89337         5.07375
     2013.67008        16.15890         5.14261
     2013.67282        13.19643         5.28407
     2013.67556         9.88196         5.16029
     2013.67830        14.61849         5.08584
     2013.68104        14.00702         5.14075
     2013.68377        12.70054         5.00116
     2013.68651         8.46907         5.01884
     2013.68925        10.59060         5.02721
     2013.69199        12.50113         5.01977
     2013.69472        12.62266         5.10911
     2013.69746        11.03419         5.01046
     2013.70020        18.45371         5.07002
     2013.70294        20.37824         5.09980
     2013.70568        22.61077         5.10446
     2013.70841        17.89130         5.08771
     2013.71115         6.08483         5.07002
     2013.71389         3.97836         4.98813
     2013.71663         9.19988         5.03187
     2013.71937        13.66441         5.02349
     2013.72210        18.84694         5.07654
     2013.72484        11.94547         5.17146
     2013.72758         8.25600         5.16122
     2013.73032        15.27853         5.04304
     2013.73305        11.26905         5.01419
     2013.73579         8.69658         5.01605
     2013.73853         6.33711         4.99185
     2013.74127        13.04264         5.09515
     2013.74401        12.06917         5.17332
     2013.74674        23.12970         5.22265
     2013.74948         4.46022         5.19845
     2013.75222         3.91675         5.03652
     2013.75496         4.14928         4.97510
     2013.75770        -1.64819         4.99557
     2013.76043        -0.47366         5.05886
     2013.76317         5.21987         5.04862
     2013.76591         8.36339         5.14727
     2013.76865         6.86492         4.98999
     2013.77138         4.22445         5.01884
     2013.77412         8.15298         5.06351
     2013.77686         1.87551         5.06909
     2013.77960         2.02204         5.10911
     2013.78234         2.38956         5.06072
     2013.78507        -2.85891         5.01419
     2013.78781        -2.39838         4.98627
     2013.79055         1.93715         5.05979
     2013.79329         1.83568         5.05606
     2013.79603         1.65821         5.03187
     2013.79876         2.34673         4.99278
     2013.80150         7.90826         5.07095
     2013.80424         4.87079         5.11190
     2013.80698         5.65932         5.05048
     2013.80971         7.64085         5.03559
     2013.81245         8.06138         5.01791
     2013.81519         4.65390         4.99464
     2013.81793         4.17543         5.01605
     2013.82067         6.92596         5.25708
     2013.82329         1.30422         8.46214
     2013.82727        -0.28530        12.20696
     2013.82888        10.03355         5.01232
     2013.83162         5.43107         5.11655
     2013.83436         6.67260         5.20776
     2013.83709         2.13513         5.19100
     2013.83983         5.66166         5.14075
     2013.84188        14.90455         6.90893
     2013.84621         0.88786         9.25130
     2013.84804         6.04924         5.10911
     2013.85078        -2.36723         5.14727
     2013.85352        10.49230         5.09236
     2013.85626         1.84883         5.01512
     2013.85900         5.24736         4.97882
     2013.86173         0.89189         5.03559
     2013.86447        -0.07759         5.09701
     2013.86721         1.00094         5.05699
     2013.86995         4.89947         5.00209
     2013.87269         7.44600         5.00674
     2013.87542        11.65753         5.08305
     2013.87816        10.05706         5.03745
     2013.88090        13.96558         5.14447
     2013.88347        10.46570         5.83220
     2013.88540        15.08433        10.22287
     2013.88911         0.40517         4.96859
     2013.89168        -5.08371         5.47670
     2013.89459        -4.08877         5.03001
     2013.89733         2.30375         5.04862
     2013.89961         2.74419         6.42035
     2013.90280        -2.23419         5.05606
     2013.90457         8.76103        10.86593
     2013.90828         4.44287         5.21985
     2013.91102         5.18740         5.03931
     2013.91347         3.70424         5.95784
     2013.91649        -1.34755         5.08771
     2013.91923         7.16898         5.21985
     2013.92197         2.20051         5.08677
     2013.92470         5.36004         4.99744
     2013.92744         3.00457         5.13051
     2013.93018         6.09109         5.08864
     2013.93292         5.71562         5.00023
     2013.93566         3.66515         4.99464
     2013.93839         5.10968         5.00116
     2013.94113         3.01921         5.04024
     2013.94387         2.67274         5.04210
     2013.94661         2.33326         5.11190
     2013.94935         4.49079         5.03280
     2013.95208         3.41332         4.99650
     2013.95482         9.01285         5.10260
     2013.95756         4.60738         5.01512
     2013.96030         0.91491         5.01791
     2013.96303         2.73743         5.01698
     2013.96577         7.25796         5.03652
     2013.96851         7.60149         5.08212
     2013.97125        15.77102         5.08771
     2013.97399         3.41955         5.11469
     2013.97672        -2.00092         5.05234
     2013.97946        -1.29540         5.04210
     2013.98220         0.27113         5.19193
     2013.98494        -0.49034         5.01419
     2013.98767        -0.84181         5.04210
     2013.99041        -2.73228         5.05048
     2013.99315        -6.77875         4.99557
     2013.99589         1.61177         5.05606
     2013.99863        -4.05770         5.09143
     2014.00410        -4.00064         5.09050
     2014.00684         0.17789         5.23567
     2014.00958        -1.82758         5.02163
     2014.01232        -4.55706         5.12772
     2014.01505        -2.54353         5.18356
     2014.01779         1.73900         5.05327
     2014.02053         1.82053         5.05141
     2014.02327        -2.24194         5.23102
     2014.02600         4.27459         5.25429
     2014.02874         7.28611         5.15099
     2014.03148         8.26164         5.10818
     2014.03422         1.99717         5.03838
     2014.03696        -1.06430         5.06537
     2014.03969        -0.82777         5.03559
     2014.04249         2.12589         5.51300
     2014.04517         1.81328         5.39109
     2014.04791         2.12481         4.98441
     2014.05065         2.18934         4.97789
     2014.05338        -0.16413         5.00116
     2014.05612        -3.18460         5.02628
     2014.05886        -1.97407         5.02721
     2014.06160         1.87545         4.98627
     2014.06433         1.40196         5.17611
     2014.06707         4.15151         5.19473
     2014.06981         2.53804         5.05513
     2014.07255         3.16857         5.07095
     2014.07529         3.84410         5.04862
     2014.07791         5.40335         5.28407
     2014.08076         3.18615         5.09887
     2014.08310         7.79573         5.95132
     2014.08555        -3.45742         8.47610
     2014.08955         8.03710        14.08123
     2014.09491        -2.02812         7.08854
     2014.09690         0.59264         8.62220
     2014.10261         3.12924         7.47289
     2014.10540        -3.94609         5.27848
     2014.10814       -22.63056         5.07654
     2014.11088       -12.68304         5.16309
     2014.11362         1.76949         5.05420
     2014.11635         6.67902         5.00953
     2014.11909         6.24855         5.11283
     2014.12183         3.52508         5.14168
     2014.12457         5.16361         5.08677
     2014.12731         5.05713         5.01977
     2014.13278         7.94819         5.26918
     2014.13552         3.07072         5.18914
     2014.13826         4.55925         5.04490
     2014.14099         7.14078         5.04397
     2014.14372        -0.32072         5.07002
     2014.14647         2.56883         5.09701
     2014.14921         5.45336         5.13610
     2014.15195         1.30589         5.12865
     2014.15468         3.23642         5.12679
     2014.15742         6.69195         5.06165
     2014.16016         8.36747         5.25149
     2014.16290         7.82800         5.14820
     2014.16564        -2.81147         5.31664
     2014.16837         2.29006         5.32501
     2014.17111         1.26759         5.22265
     2014.17385         8.33212         5.25615
     2014.17659         4.44064         5.30454
     2014.17932         4.78517         5.41063
     2014.18206         2.33570         5.22451
     2014.18480         5.38423         6.38592
     2014.18754        -3.23624         5.07840
     2014.19028        -2.45871         5.07282
     2014.19301         0.54481         5.09329
     2014.19575         3.04934         5.07747
     2014.19849        -3.25513         5.20310
     2014.20123         0.10240         5.09050
     2014.20397        -1.44807         5.10725
     2014.20670        -3.71554         5.16960
     2014.20944         0.65998         5.10353
     2014.21218         1.88551         5.09422
     2014.21492         6.86504         5.19938
     2014.21765         2.72557         5.06072
     2014.22039         2.66510         5.06072
     2014.22313        -0.68837         5.07468
     2014.22587         3.05515         5.11935
     2014.22861         6.24968         5.30547
     2014.23134         4.38821         5.06072
     2014.23408        10.06674         5.14075
     2014.23682         1.88727         5.08864
     2014.23956        -2.69920         5.21334
     2014.24230         1.85232         5.18542
     2014.24503        -1.55615         5.08119
     2014.24777         6.33638         5.27197
     2014.25051        -1.94409         5.06537
     2014.25325         0.70244         5.10911
     2014.25598         6.77097         5.26452
     2014.25872         3.72049         5.12214
     2014.26146         4.23202         5.23288
     2014.26420        -4.81045         5.06351
     2014.26694        -6.42492         5.14820
     2014.26967         3.96061         5.18356
     2014.27241        -1.04786         5.19193
     2014.27515        -3.55234         5.23288
     2014.27789         3.36619         5.17518
     2014.28062         0.66072         5.10818
     2014.28336         3.31825         5.13238
     2014.28610         4.83278         5.25801
     2014.28884         3.84031         5.36689
     2014.29158        -2.25917         5.11655
     2014.29431         3.03636         5.16681
     2014.29705         5.04589         5.33525
     2014.29979        -3.75758         5.19193
     2014.30253         1.48495         5.14168
     2014.30527         2.14548         5.10539
     2014.30800         1.22300         5.08677
     2014.31074         3.18253         5.14447
     2014.31348         0.05806         5.12772
     2014.31622         3.02359         5.08584
     2014.31895         2.08012         5.09794
     2014.32169        -7.74235         5.12772
     2014.32443       -11.68883         5.15006
     2014.32717       -10.35730         5.19845
     2014.32991        -0.59977         5.21520
     2014.33264        -1.76024         5.16215
     2014.33538         2.49729         5.12307
     2014.33812         2.30082         5.26918
     2014.34086         0.49634         5.15192
     2014.34360        -1.42713         5.04490
     2014.34633        -3.05760         5.06723
     2014.34907        -3.92507         5.30547
     2014.35181        -4.68354         5.29523
     2014.35455         0.97299         5.09980
     2014.35728        -4.03649         5.08398
     2014.36002        -7.79996         5.05793
     2014.36276        -7.81743         5.06816
     2014.36550        -2.19790         5.03373
     2014.36824        -4.09437         5.13051
     2014.37097         5.83016         5.42273
     2014.37371        -1.49932         5.16867
     2014.37645         3.16221         5.12679
     2014.37919         1.92374         5.13889
     2014.38193        -4.17573         5.13982
     2014.38466         1.40080         5.14727
     2014.38740         0.60033         5.14633
     2014.39014        -0.24715         5.22451
     2014.39288         0.24838         5.13144
     2014.39561         0.02291         5.20124
     2014.39835         8.57544         5.25708
     2014.40109        -0.78803         5.10632
     2014.40383        -4.92450         5.17332
     2014.40657        -6.57898         5.13517
     2014.40930        -0.97945         5.11004
     2014.41198        -1.47105         5.23009
     2014.41478        -2.31739         5.10353
     2014.41752         3.61814         5.10818
     2014.42026         0.78167         5.11842
     2014.42299        -0.49381         5.08398
     2014.42573        -2.35928         5.09515
     2014.42847         4.56125         5.17053
     2014.43121         0.87178         5.10166
     2014.43394         1.80031         5.08677
     2014.43668         4.78884         5.20403
     2014.43942         1.82336         5.14075
     2014.44216        -4.85511         5.08677
     2014.44490        -1.10758         5.29058
     2014.44763        -0.94205         5.59489
     2014.45037        -6.74552         5.06351
     2014.45311         3.66901         5.11376
     2014.45585         6.06153         5.10725
     2014.45859        -2.49094         5.02908
     2014.46132        -0.94441         5.06444
     2014.46406        -5.93288         5.11842
     2014.46680         5.47865         5.25056
     2014.46954        -4.40682         5.05141
     2014.47227         1.54370         5.09794
     2014.47501         5.14123         5.12028
     2014.47775         3.79976         5.11004
     2014.48049         0.07329         5.12865
     2014.48323         3.98582         5.11097
     2014.48596         4.65135         5.45065
     2014.48870         4.69887         5.17798
     2014.49144         5.52640         5.03466
     2014.49418        -0.82507         5.04955
     2014.49692        -2.62054         5.03652
     2014.49965         1.75699         5.06723
     2014.50239         0.24552         5.09050
     2014.50513         0.98404         5.14075
     2014.50787        -0.39543         5.18263
     2014.51060         0.99810         5.12307
     2014.51334         6.70663         5.04490
     2014.51608        12.72316         5.12214
     2014.51882         0.45269         5.18728
     2014.52156         8.16721         5.16774
     2014.52429         3.88674         5.14913
     2014.52703         5.33327         5.07095
     2014.52977         6.45180         5.10073
     2014.53251        -1.86467         5.12493
     2014.53525         0.15586         5.03001
     2014.53798        12.89938         5.12028
     2014.54072         5.50791         5.20869
     2014.54346         3.71644         5.05606
     2014.54620         3.51097         5.16122
     2014.54893         5.41550         5.21427
     2014.55167         2.64303         5.20124
     2014.55441         2.15855         5.10446
     2014.55715         4.03108         5.32408
     2014.55989        -2.50839         5.12586
     2014.56262         2.99614         5.00860
     2014.56536         1.70567         5.03652
     2014.56810         6.60420         5.06537
     2014.57084         4.74172         5.09794
     2014.57357         3.49225         5.11004
     2014.57631         5.94778         5.10073
     2014.57905        -1.19069         5.37061
     2014.58179         7.03484         5.27197
     2014.58453         6.85637         5.19100
     2014.58726         3.85389         5.50648
     2014.59000        10.24442         5.18542
     2014.59274         5.57395         5.18728
     2014.59548         2.27348         5.24498
     2014.59822        13.39301         5.32036
     2014.60095         2.90954         5.22078
     2014.60369         3.32506         5.11283
     2014.60643         0.55059         5.12493
     2014.60917         9.40512         5.26825
     2014.61190         7.36465         5.34828
     2014.61464         9.77618         5.62747
     2014.61738         5.68471         5.31385
     2014.62012         4.97223         5.20869
     2014.62286         4.11376         5.17425
     2014.62559         9.20429         5.21520
     2014.62833         6.62782         5.13424
     2014.63107        11.93735         5.22823
     2014.63381         1.04588         5.27848
     2014.63655         9.22640         5.21241
     2014.63928        -1.70807         5.16215
     2014.64208         3.92660         5.21706
     2014.64476         3.27199         5.19659
     2014.64750         2.26952         5.15471
     2014.65023         2.90405         5.11190
     2014.65252        11.78849         6.17281
     2014.65942        14.25094        10.57186
     2014.66119         5.84416         5.16960
     2014.66392        12.71369         5.09980
     2014.66666         9.91422         5.05979
     2014.66940         9.92774         5.08398
     2014.67214         8.86827         5.17425
     2014.67488         4.61380         5.04210
     2014.67761         2.41933         5.07188
     2014.68035         8.53986         5.05420
     2014.68309         2.72039         5.05606
     2014.68583         6.53491         5.05513
     2014.68856         4.07044         5.06630
     2014.69130         1.40197         5.05141
     2014.69404         2.10250         5.04397
     2014.69678         1.35103         5.03745
     2014.69952         9.25856         5.04117
     2014.70225         7.74608         5.04117
     2014.70499         4.99561         5.08957
     2014.70773         7.43414         5.08305
     2014.71047         2.26467         5.16309
     2014.71321         7.58320         5.00767
     2014.71594         8.65373         5.07468
     2014.71868         6.02225         5.09887
     2014.72142         9.49878         5.01884
     2014.72416         9.48331         5.06723
     2014.72689         3.98484         5.07933
     2014.72963         8.59837         5.05699
     2014.73237        10.30490         5.04955
     2014.73511         1.77242         5.11190
     2014.73785         1.51795         5.08398
     2014.74058         1.73548         5.05327
     2014.74332        12.46801         5.09422
     2014.74606        13.87054         5.12121
     2014.74880         2.50607         5.05606
     2014.75154         4.61259         5.22823
     2014.75427         5.84412         5.06537
     2014.75701         2.48165         5.05234
     2014.75975         6.15418         5.05234
     2014.76249        11.83771         5.04210
     2014.76522         9.60424         5.04490
     2014.76796         7.37976         5.03652
     2014.77070         6.55029         5.05699
     2014.77344         7.49382         5.05048
     2014.77618         3.02135         5.35200
     2014.77891         5.76688         5.08305
     2014.78165         8.51941         5.07747
     2014.78439         0.99493         5.14820
     2014.78713        16.13946         5.08305
     2014.78987         8.37999         5.04676
     2014.79260         9.80352         5.07188
     2014.79534        13.24305         5.20962
     2014.79808         6.37158         5.16215
     2014.80082        -1.12890         5.11283
     2014.80355         6.34163         5.23381
     2014.80629         6.67816         5.11562
     2014.80903         9.26769         5.23754
     2014.81177        11.54922         5.06444
     2014.81451         9.66875         5.32315
     2014.81724         6.74627         5.09701
     2014.81998        10.08780         5.03652
     2014.82266         6.51920         5.33060
     2014.82449        10.70855        10.01814
     2014.82905         2.12943         8.61383
     2014.83093         3.23992         5.16495
     2014.83367         7.25544         5.09887
     2014.83641         2.09697         5.08026
     2014.83915         3.65350         5.07933
     2014.84188         5.96403         5.33804
     2014.84462         5.47456         5.14261
     2014.84736         4.36209         5.21148
     2014.85010         4.31861         5.17891
     2014.85284         3.59614         5.11749
     2014.85557         5.32867         5.20682
     2014.85831         7.08220         5.23567
     2014.86105         1.30573         5.05793
     2014.86379         0.87526         5.08677
     2014.86653         1.70479         5.09980
     2014.88021       -10.54357         5.12958
     2014.88295        -7.69804         5.28500
     2014.88569        -1.58652         5.51393
     2014.88843         7.33701         5.37806
     2014.89117         7.81654         5.51858
     2014.89390         0.07507         5.32687
     2014.89664         5.20160         5.27941
     2014.89938        -1.40887         5.64142
     2014.90212        -1.47335         5.26266
     2014.90360        19.13819        21.25911
     2014.91688         6.46385        10.26754
     2014.91854         7.03282         5.99320
     2014.92128         1.78935         5.12586
     2014.92402        -5.61112         5.12493
     2014.92676       -14.06059         5.13238
     2014.92950        -7.83106         5.10166
     2014.93223        -0.30853         5.10725
     2014.93497        -0.87501         5.18542
     2014.93771         0.98752         5.16588
     2014.94045         0.18705         5.12028
     2014.94318         7.03358         5.29989
     2014.94592         5.87211         5.11469
     2014.94866        -0.51936         5.03838
     2014.95140        -0.43484         4.98999
     2014.95414         4.50069         5.04862
     2014.95687         4.81622         5.02721
     2014.95961        11.85575         5.06630
     2014.96235         4.03828         5.04769
     2014.96509         5.58381         5.12400
     2014.96783         1.44833         5.04583
     2014.97056         0.91086         4.99185
     2014.97330        -3.59661         5.04583
     2014.97604        -5.82208         5.08491
     2014.97878        -1.45155         5.10260
     2014.98151         7.22898         5.10818
     2014.98425        -0.37450         5.00767
     2014.98699         4.04603         5.03466
     2014.98973        -4.05944         5.01512
     2014.99247        -1.67591         5.18821
     2014.99520        -5.25738         5.03001
     2014.99794         3.57315         5.03373
     2015.00068         1.06167         4.99185
     2015.00342        -2.39580         5.00674
     2015.00616        -6.81727         5.02535
     2015.00889        -0.09874         5.09701
     2015.01163         3.39179         5.13517
     2015.01437        -0.06268         5.09515
     2015.01711         1.46884         5.08212
     2015.01984         1.10137         5.09236
     2015.02258         2.75090         5.22358
     2015.02532         5.67943         5.11283
     2015.02806         2.23896         5.07840
     2015.03080         1.43449         5.48043
     2015.03353        -1.32099         5.10260
     2015.03627         3.00354         5.08305
     2015.03901         4.26707         5.15750
     2015.04175         7.54160         5.14168
     2015.04449         1.87713         5.13889
     2015.04722         4.54066         5.27011
     2015.04996         0.33318         5.34549
     2015.05270        -0.41729         5.07840
     2015.05544        -0.99076         5.08398
     2015.05817         0.95577         5.00488
     2015.06091        -0.37370         5.07840
     2015.06365         7.80783         5.24126
     2015.06639         5.55235         5.10073
     2015.06913         3.07188         5.05234
     2015.07186        -3.92759         5.11562
     2015.07460         1.03794         5.01046
     2015.07734        -4.27853         5.05793
     2015.08008        -4.74000         5.06630
     2015.08282         1.48952         5.03931
     2015.08555         2.58805         5.01419
     2015.08829         3.30658         5.07375
     2015.09103         5.68711         5.02163
     2015.09377         5.71364         5.08491
     2015.09650         4.18917         5.17704
     2015.09924        12.57669         5.10725
     2015.10198        10.99622         5.14727
     2015.10472         6.20075         5.03187
     2015.10746         3.24328         5.08957
     2015.11019         0.27581         5.16122
     2015.11293        -1.06866         5.11376
     2015.11567        -3.28714         5.08305
     2015.11841        -4.37461         5.01698
     2015.12115         0.11492         5.14633
     2015.12388        -0.90355         5.06165
     2015.12662        -2.71002         5.04304
     2015.12936         1.03651         5.03373
     2015.13210         2.45903         5.23940
     2015.13483        -3.54444         5.11004
     2015.13757        -1.46991         5.10073
     2015.14031        -2.39938         5.02721
     2015.14305         1.31015         5.02163
     2015.14579        -1.59532         5.04304
     2015.14852        -0.22780         5.02349
     2015.15126         0.09073         5.05979
     2015.15400        -4.76974         5.27197
     2015.15674         7.72179         5.05513
     2015.15948         8.49032         5.06723
     2015.16221         2.59785         5.01512
     2015.16495         4.35037         5.04304
     2015.16769         1.29390         5.03931
     2015.17043         2.21543         5.05048
     2015.17316        -1.45804         5.22358
     2015.17590        -2.68251         5.17891
     2015.17864         1.63602         5.00860
     2015.18138         1.61054         5.04210
     2015.18412         5.72607         5.05513
     2015.18685         6.50160         5.05513
     2015.18959        -0.65587         5.11004
     2015.19233         1.69066         5.18914
     2015.19507        -2.39181         5.15099
     2015.19780         4.56571         5.11004
     2015.20054         4.34324         5.12586
     2015.20328         3.12777         5.12586
     2015.20602        -4.15870         5.09050
     2015.20876        -1.41417         5.21334
     2015.21149        -3.14964         5.03001
     2015.21423         1.35888         5.38737
     2015.21697         6.23541         5.09608
     2015.21971         0.56594         4.98999
     2015.22245        -1.01253         5.05699
     2015.22518         2.23100         5.07095
     2015.22792         0.24453         5.03652
     2015.23066         4.22605         5.00953
     2015.23340        -1.94842         5.15471
     2015.23613         1.91411         5.21241
     2015.23887        -1.51736         5.28034
     2015.24161         5.38717         5.26732
     2015.24435         7.05170         5.31943
     2015.24709         0.01722         5.14820
     2015.24982        -0.66025         4.97696
     2015.25256         3.28428         5.16867
     2015.25530         1.84281         5.08398
     2015.25804         4.39834         5.04304
     2015.26078         9.70387         5.02070
     2015.26351         4.95839         4.99185
     2015.26625         4.06992         5.04676
     2015.26899         1.75145         5.05979
     2015.27173        10.08498         5.09887
     2015.27446         1.29651         5.25056
     2015.27720         4.45104         5.04397
     2015.27994         4.80856         5.05793
     2015.28268        -4.83891         5.05699
     2015.28542        -2.65038         5.15192
     2015.28815        -3.87185         5.11562
     2015.29089        -0.81032         5.01326
     2015.29363        -2.97879         5.02628
     2015.29637         1.03173         5.08026
     2015.29911         4.34426         5.00953
     2015.30184         6.01779         5.09980
     2015.30458         2.64832         5.01884
     2015.30732        -0.24515         4.95183
     2015.31006         3.26538         5.02442
     2015.31279        -3.04510         4.94997
     2015.31553        -4.15657         4.93508
     2015.31827        -5.08504         4.95183
     2015.32101        -0.80551         4.96021
     2015.32375         8.48102         5.00023
     2015.32648         0.71055         5.07282
     2015.32922         0.86907         5.03373
     2015.33196         3.01360         4.88018
     2015.33470         3.34613         4.88483
     2015.33744         0.44366         4.90716
     2015.34017         2.72419         4.98534
     2015.34291        -2.22328         4.94253
     2015.34565         2.06524         4.91926
     2015.34839        -1.09323         4.86436
     2015.35112        -0.00570         4.88390
     2015.35386         3.94383         4.90530
     2015.35660         1.75636         4.95463
     2015.35934        -1.55111         5.00860
     2015.36208         1.57641         4.97603
     2015.36481         2.09494         4.89600
     2015.36755         2.64547         5.06165
     2015.37029         1.50500         4.88390
     2015.37303        -4.07047         4.90903
     2015.37577         1.28806         5.02628
     2015.37850        -5.41642         5.03838
     2015.38124        -2.46089         4.91833
     2015.38398        -2.13336         4.97975
     2015.38672        -8.78783         5.00023
     2015.38945       -11.72030         4.93881
     2015.39219        -9.53777         4.94532
     2015.39493        -8.36325         4.98906
     2015.39767       -15.66772         5.09794
     2015.40041        -4.74819         4.98627
     2015.40314        -6.13066         5.11562
     2015.40588        -2.36613         4.98906
     2015.40862         5.81240         5.12865
     2015.41136         5.85492         5.02070
     2015.41410         1.42245         4.98813
     2015.41683        -0.33602         5.00860
     2015.41957        -6.35349         4.93136
     2015.42231        -4.41596         5.03466
     2015.42505        -0.36843         5.00116
     2015.42778        -1.61991         4.92392
     2015.43052         2.11962         4.99371
     2015.43326        -3.20585         4.95183
     2015.43600         4.55168         4.95277
     2015.43874         5.49821         5.00209
     2015.44147        -2.47826         5.10911
     2015.44421         0.04926         5.01512
     2015.44695        -2.42221         4.97045
     2015.44969        -4.75168         4.89600
     2015.45243         0.64685         4.98720
     2015.45516        -0.71762         4.97138
     2015.45796        -3.50096         5.14820
     2015.46064         3.53143         5.09608
     2015.46338         4.65996         5.30268
     2015.46611         3.10749         5.00674
     2015.46885         5.93602         4.97417
     2015.47159         3.46055         4.92857
     2015.47433         1.33908         5.10725
     2015.47707         1.48760         5.07188
     2015.47980         2.75713         5.04676
     2015.48254         5.78466         5.08864
     2015.48528         1.71419         5.04955
     2015.48802        -2.36428         5.00581
     2015.49076        -4.52175         5.35665
     2015.49349        13.44377         5.32967
     2015.49623         2.10330         5.04583
     2015.49897        -0.26717         5.06816
     2015.50171         2.96836         4.92205
     2015.50444        10.36989         4.99371
     2015.50718         5.51542         4.94904
     2015.50992         7.53094         4.97417
     2015.51266         1.49947         6.10580
     2015.51540         7.24800         5.07840
     2015.51802        10.54226         5.29989
     2015.52036        15.30883         6.23888
     2015.52361         3.66459         5.09701
     2015.52635         7.85011         5.03094
     2015.52908         4.45364         4.96207
     2015.53182         4.68217         5.04583
     2015.53456        12.09070         4.98627
     2015.53730         8.49223         5.03094
     2015.54004         4.40776         5.02442
     2015.54277         6.86328         5.03280
     2015.54431        20.26696        15.54230
     2015.54910         7.45036         8.97584
     2015.55099         7.59987         5.09980
     2015.55373        12.13840         5.13424
     2015.55646         5.16493         5.13703
     2015.55920        14.95445         5.04676
     2015.56194         5.04198         5.11749
     2015.56468        11.91751         5.03652
     2015.56741         5.51304         5.04676
     2015.57015         8.23457         5.18542
     2015.57289         6.19510         5.15006
     2015.57563         3.34262         5.04210
     2015.57837         4.35015         5.05886
     2015.58110         9.97468         5.10725
     2015.58384         9.59121         5.09980
     2015.58658         9.11274         5.05606
     2015.58932        10.39527         5.12307
     2015.59206         6.04579         5.17146
     2015.59479        12.74532         5.11749
     2015.59753        12.32185         5.13610
     2015.60027        10.14238         5.18914
     2015.60301        14.05591         5.21520
     2015.60574        10.07444         5.15099
     2015.60848         7.61796         5.12865
     2015.61122         5.87149         5.25056
     2015.61396         6.04302         5.20310
     2015.61670         4.50855         5.00209
     2015.61943        10.39008         4.92764
     2015.62217         4.75961         4.91740
     2015.62491        10.94613         5.06537
     2015.62765        10.37666         4.97975
     2015.63039        11.56519         4.99371
     2015.63312         7.38572         5.06630
     2015.63586        16.56125         5.34921
     2015.63860         2.36678         5.01698
     2015.64134        10.16030         5.03838
     2015.64407         6.08383         5.05793
     2015.64681         7.21436         5.06630
     2015.64955         7.61889         4.99650
     2015.65229         7.45942         5.01698
     2015.65503         9.94795         5.00767
     2015.65776        20.68447         5.25615
     2015.66050        10.83200         5.05420
     2015.66324        11.40153         5.00860
     2015.66598        21.11906         5.13517
     2015.66872        11.35459         5.27755
     2015.67145         3.27012         5.02815
     2015.67419         4.19964         4.94718
     2015.67693         6.90517         5.00116
     2015.67967         5.98770         4.94253
     2015.68240         2.87223         4.98348
     2015.68514         0.76876         5.02908
     2015.68788        11.51429         5.04862
     2015.69062        11.26381         5.00581
     2015.69336         4.07934         5.07375
     2015.69609         9.48287         4.96021
     2015.69883         4.20040         5.13703
     2015.70157        13.78393         5.05699
     2015.70431        10.83846         5.02070
     2015.70705        10.57798         4.92950
     2015.70978         9.74351         4.94067
     2015.71252         5.02004         4.91089
     2015.71526         8.36457         4.92578
     2015.71800         7.97110         4.96207
     2015.72073        10.90463         5.10446
     2015.72307         7.86120         5.92992
     2015.72997        18.18366         9.71568
     2015.73169         4.56074         4.95183
     2015.73363         8.31536         7.59666
     2015.73716         8.97080         4.93043
     2015.73990        10.76832         5.07188
     2015.74264         8.73085         5.04117
     2015.74538        12.23438         5.12958
     2015.74811         7.66991         5.14540
     2015.75085         1.52844         4.95277
     2015.75359         4.08197         5.03466
     2015.75633         6.09249         4.95556
     2015.75906         8.79302         4.92578
     2015.76180         3.24955         4.94346
     2015.76454         1.75708         5.11004
     2015.76728         3.41861         4.97603
     2015.77002         1.49514         5.05699
     2015.77275         9.70366         5.03652
     2015.77561         3.07446        20.03813
     2015.77823        10.66472         4.97231
     2015.78097         5.10925         4.99185
     2015.78371        11.12078         4.98161
     2015.78644         9.71431         4.95370
     2015.78918         6.57283         4.93881
     2015.79192         9.20036         5.00674
     2015.79466         7.93189         4.98441
     2015.79739        10.22942         4.96952
     2015.80013         1.65895         5.15471
     2015.80287         1.00548         4.98068
     2015.80561         7.65400         5.01605
     2015.80835         6.01853         4.92950
     2015.81108         8.88606         5.06630
     2015.81388        -2.48027         5.25801
     2015.81656         3.55412         5.05606
     2015.81930         3.15765         5.00488
     2015.82203         5.32217         5.03280
     2015.82477         3.90970         5.03838
     2015.82751         0.49823         5.10632
     2015.83025       -18.22224         5.35479
     2015.83299         2.64729         5.18170
     2015.83572         2.46082         5.08771
     2015.83846        -1.60266         5.07188
     2015.84120        -1.20713         5.05793
     2015.84394        -4.77260         5.09980
     2015.84668        -2.40307         5.05699
     2015.84941         3.65046         5.12214
     2015.85215         7.01399         5.11935
     2015.85489         7.02051         5.04117
     2015.85763        -0.02596         5.05886
     2015.86036         1.15057         5.06537
     2015.86310         1.72610         5.05234
     2015.86584         2.72763         5.16495
     2015.86858         1.56316         5.16309
     2015.87132         8.10868         5.11842
     2015.87405        -2.76179         5.06165
     2015.87679         2.97074         5.15750
     2015.87953        -0.04973         5.24405
     2015.88227         1.98380         5.10166
     2015.88501        -5.01967         5.11097
     2015.88774        -3.39315         5.04397
     2015.89048         4.29538         5.03001
     2015.89322         8.38691         5.00767
     2015.89596         1.15644         5.09608
     2015.89869         5.24197         5.01698
     2015.90143        -2.17550         5.04210
     2015.90417        -3.23198         5.04397
     2015.90691        -1.58545         5.05141
     2015.90965         2.29908         5.09887
     2015.91238        -2.01039         5.20869
     2015.91512        -2.34386         5.11097
     2015.91786        -8.41333         5.11004
     2015.92060        -2.24981         5.12679
     2015.92334        -0.95428         5.04955
     2015.92607        -0.73475         5.06630
     2015.92881        -1.83622         5.16588
     2015.93155         4.04931         5.27011
     2015.93429        -0.02916         5.83872
     2015.93702        -2.28264         5.37341
     2015.93976         1.70089         5.43110
     2015.94250         3.36042         5.22171
     2015.94524        -1.70105         5.15006
     2015.94798         3.31348         5.22451
     2015.95071         4.95701         5.04304
     2015.95345        -3.02347         5.01419
     2015.95619         1.31906         5.08771
     2015.95893         1.47659         5.25987
     2015.96988         2.84170         5.09701
     2015.97262        10.54723         5.03838
     2015.97535         2.71476         5.02256
     2015.97809         5.72829         5.00953
     2015.98083        -0.44718         5.04955
     2015.98357        -8.83965         5.02908
     2015.98631        -7.85513         5.06723
     2015.98904        -2.81360         5.01139
     2015.99178        -5.00607         5.01884
     2015.99452        -5.31554         5.01698
     2015.99726        -3.80601         5.07747
     2016.00000        -2.90148         5.05979
     2016.00273        -4.27396         5.02815
     2016.00547        -3.99643         5.05793
     2016.00821        -3.08090         5.08957
     2016.01095         2.18463         5.09329
     2016.01368        -4.93184         5.10353
     2016.01642        -7.16531         5.17611
     2016.01916        -4.17879         5.23567
     2016.02190        -5.42726         5.10353
     2016.02464        -4.70873         5.13796
     2016.02737        -5.91020         5.07375
     2016.03011        -3.61867         5.22823
     2016.03285         4.71986         5.01326
     2016.03559        -3.08862         5.04117
     2016.03833        -2.32409         5.07002
     2016.04106         0.42944         5.07654
     2016.04380         4.63897         4.95742
     2016.04654        -0.61650         4.98348
     2016.04928        -2.35197         4.99092
     2016.05201        -7.23845         5.03931
     2016.05475        -2.93792         5.00302
     2016.05749         0.96061         4.98813
     2016.06023        -6.00886         5.01512
     2016.06297        -5.59833         4.95835
     2016.06570        -6.25380         5.07840
     2016.06844        -5.55328         5.11562
     2016.07118        -6.76775         5.16215
     2016.07392        -3.65222         5.06909
     2016.07666        -3.47869         5.25056
     2016.07939         1.76984         5.08305
     2016.08213        -0.93063         5.19659
     2016.08487        -4.08011         5.06351
     2016.08761        -9.48158         5.06258
     2016.09034        -8.87705         5.05327
     2016.09308        -6.54252         5.06723
     2016.09542       -13.27594         5.97459
     2016.10483       -11.48550         7.56409
     2016.10677       -13.74588         5.05141
     2016.10951       -13.99935         5.06351
     2016.11225        -9.35182         5.04397
     2016.11498       -10.08629         5.05234
     2016.11772       -15.04176         5.02721
     2016.12046        -8.15824         5.02908
     2016.12320         1.95329         5.12958
     2016.12594       -11.62618         5.11935
     2016.12867        -4.12465         5.06909
     2016.13141         7.44988         5.01977
     2016.13415        -1.17259         5.22265
     2016.13689        -4.28207         5.00395
     2016.13963        -5.23654         5.17984
     2016.14236       -14.96501         5.01977
     2016.14510       -10.66648         4.99464
     2016.14784       -12.74995         4.93881
     2016.15058        -7.22542         5.00767
     2016.15331        -6.42990         5.13331
     2016.15605        -6.00137         5.04397
     2016.15879        -9.39884         5.16867
     2016.16153        -8.25831         5.02908
     2016.16427        -6.57278         5.13889
     2016.16700        -9.79925         5.30826
     2016.16974       -11.31773         5.05886
     2016.17248        -6.34620         5.17053
     2016.17522        -2.42167         5.01698
     2016.17796         1.90486         5.01326
     2016.18069         3.08639         5.08677
     2016.18343        -8.26608         5.23381
     2016.18617        -4.73656         5.01884
     2016.18891        -4.16603         5.00488
     2016.19164        -0.82950         5.06816
     2016.19438         1.86703         4.86063
     2016.19712        -0.90344         4.93974
     2016.19986        -3.89991         5.08119
     2016.20260        -9.18239         5.03745
     2016.20533        -6.21786         5.13238
     2016.20807        -5.42333         5.07375
     2016.21081       -10.59180         5.05420
     2016.21355        -6.80327         5.01698
     2016.21629       -11.03474         4.93601
     2016.21902        -5.53222         4.91554
     2016.22176        -2.51469         4.90716
     2016.22450       -11.30916         4.89507
     2016.22724       -13.78063         4.96579
     2016.23003        -4.52197         4.99371
     2016.23271        -7.36157         4.90344
     2016.23545        -9.07905         4.99650
     2016.23819        -3.81552         4.92299
     2016.24093        -4.85899         4.99371
     2016.24366        -5.15646         4.89507
     2016.24640        -5.95693         4.90903
     2016.24914        -6.45540         4.88018
     2016.25193        -2.10074         5.03931
     2016.25462        -4.60535         4.99371
     2016.25735        -8.75782         5.10260
     2016.26009       -11.11929         4.93881
     2016.26283       -14.46276         4.91089
     2016.26557        -6.81223         4.94346
     2016.26830        -5.94471         4.96021
     2016.27104        -5.39418         4.96114
     2016.27378         0.91335         4.92112
     2016.27652        -5.96012         4.93974
     2016.27926        -5.45859         4.94160
     2016.28142        -5.17142         6.47340
     2016.28815       -12.54438         7.09133
     2016.29021       -11.59348         4.92671
     2016.29295       -10.70795         4.92019
     2016.29568        -5.97442         4.94625
     2016.29842        -1.53689         5.03466
     2016.30116        -5.68137         5.07188
     2016.30390       -10.38884         5.00488
     2016.30663        -1.54431         4.94904
     2016.30937        -8.00378         4.93974
     2016.31211        -5.56025         4.97510
     2016.31485        -3.28772         4.93508
     2016.31759        -5.12720         4.95370
     2016.32032        -8.10867         4.93974
     2016.32306       -10.77114         4.90810
     2016.32580        -8.25361         4.93788
     2016.32854        -9.63108         4.95928
     2016.33128        -6.57055         4.93136
     2016.33401        -6.93703         5.04117
     2016.33675        -4.52550         5.01884
     2016.33949        -6.04297         5.38178
     2016.34223        -8.35144         5.01884
     2016.34496        -3.00191         5.12028
     2016.34770        -1.13438         5.06444
     2016.35044        -3.32686         5.14354
     2016.35318        -7.33733         4.95463
     2016.35592       -12.30280         4.93043
     2016.35843       -12.08482         5.40877
     2016.36494         6.29072         7.73067
     2016.36687        -2.83269         5.09608
     2016.36961         4.17884         4.99092
     2016.37234        -0.16563         4.94811
     2016.37508        -3.92910         4.92299
     2016.37782        -7.93157         4.91182
     2016.38056        -2.86104         5.01698
     2016.38329        -2.51552         4.91833
     2016.38603        -4.05299         4.92299
     2016.38877         2.66154         4.90996
     2016.39151        -2.12293         4.86994
     2016.39385         3.13365        32.71226
     2016.41438       -15.27039         9.70545
     2016.41615       -11.26618         4.93508
     2016.41889        -7.39465         5.03094
     2016.42162        -5.05712         4.97696
     2016.42436        -9.13959         4.92112
     2016.42710        -4.14206         4.89600
     2016.42984        -3.38253         4.92578
     2016.43258         0.47599         5.06909
     2016.43531        -4.33848         5.14913
     2016.43805         0.34905         4.93881
     2016.44079        -3.44942         4.91089
     2016.44353        -5.89489         4.91926
     2016.44626        -6.33536         4.92299
     2016.44900        -9.99984         5.11376
     2016.45174       -10.42931         5.00581
     2016.45448        -2.18878         4.91554
     2016.45722        -0.07925         4.91647
     2016.45995         1.38128         4.93136
     2016.46269        -2.94919         4.97975
     2016.46543        -9.54867         4.96579
     2016.46822        -3.32100         5.02070
     2016.47096        -0.58947         5.17146
     2016.47370        -3.61095         5.12772
     2016.47644         9.40058         5.25708
     2016.47918        -7.20089         5.22265
     2016.48191        -2.70836         4.97696
     2016.48465        -1.57783         5.02256
     2016.48739        -1.21230         5.94853
     2016.49013         0.40622         5.03466
     2016.49287         1.27375         5.06444
     2016.49560         0.88328         5.05606
     2016.49828         3.78267         4.98441
     2016.50102         0.53520         4.96021
     2016.50376        -6.73927         5.25708
     2016.50650        -0.82774         5.07188
     2016.50924        -1.52621         4.98441
     2016.51197         0.50032         4.95370
     2016.51477         7.93898         5.05048
     2016.51751         0.68051         5.16495
     2016.52019        -6.70710         5.32222
     2016.52304        -0.39430         5.18635
     2016.52572        -0.53691         5.03931
     2016.52846        -3.41938         5.11004
     2016.53120        -2.42085         5.02721
     2016.53393        -3.13332         5.03559
     2016.53667        -0.58379         5.07933
     2016.53941         0.24973         5.00488
     2016.54215         0.74926         5.00953
     2016.54488        -1.06821         5.12586
     2016.54762        -4.01068         5.07188
     2016.55036         0.79085         5.16960
     2016.55310         8.12338         5.16215
     2016.55584         4.92190         5.24870
     2016.55857         3.26143         5.82290
     2016.56131         4.74096         5.00953
     2016.56405         1.71749         5.01046
     2016.56679         2.94602         5.17146
     2016.56953         0.84455         5.28593
     2016.57226         2.74807         5.10166
     2016.57500         7.46060         5.14168
     2016.57774         7.69813         5.05141
     2016.58048         2.98666         4.98255
     2016.58321         1.63619         4.99744
     2016.58595        -1.38328         5.01605
     2016.58869         0.01524         5.00023
     2016.59137         0.51864         4.86808
     2016.59411         6.67317         4.92857
     2016.59685         6.54969         5.03838
     2016.59958         0.85422         4.97045
     2016.60232         0.60475         4.97603
     2016.60506         7.45028         4.89693
     2016.60780         2.53981         5.12028
     2016.61054         2.52334         4.94718
     2016.61327        -0.88814         4.90530
     2016.61601        -0.61161         4.88762
     2016.61875        -0.26708         4.96859
     2016.62149         6.58645         5.05513
     2016.62423         9.00998         5.03652
     2016.62696         4.88351         4.90903
     2016.62970        -0.88497         4.93322
     2016.63244         1.25856         4.99092
     2016.63518         6.49709         4.93508
     2016.63791        12.25162         4.97696
     2016.64060        14.52401         5.02721
     2016.64339         2.54468         5.46554
     2016.64613         4.13820         4.92112
     2016.64887         3.25773         5.60141
     2016.65160         8.50326         4.99278
     2016.65434         2.63879         4.91833
     2016.65708        -4.47068         4.90623
     2016.65982         3.59785         4.96114
     2016.66256        -0.86163         5.01884
     2016.66529         0.28990         4.90996
     2016.66803         1.95343         4.96672
     2016.67048         0.90128         5.63584
     2016.68172         8.48907         4.97138
     2016.68446         4.91560         5.08584
     2016.68720         1.35913         5.18821
     2016.68993         5.74666         5.05793
     2016.69267         3.32119         4.87645
     2016.69541         6.92771         5.08864
     2016.69815         8.56824         4.90623
     2016.70089         7.70777         4.87459
     2016.70362         4.22630         4.99092
     2016.70636         4.71083         5.16122
     2016.70910         3.58936         5.19845
     2016.71184         7.37688         4.96579
     2016.71457         2.38341         5.01791
     2016.71731         6.54094         5.00209
     2016.72005         4.34047         4.89879
     2016.72279         7.54000         4.85319
     2016.72553         6.06153         4.97231
     2016.72826         3.96005         4.99092
     2016.73100        -1.31142         4.90344
     2016.73374         4.92511         4.90251
     2016.73648         4.14664         4.87552
     2016.73921         6.62217         4.88483
     2016.74195         2.09170         4.88483
     2016.74469         4.70622         4.89972
     2016.74743         3.64375         4.97510
     2016.75017         6.47228         4.91275
     2016.75290         3.82781         4.92299
     2016.75564         7.39734         4.89972
     2016.75838        11.38187         4.86529
     2016.76112         8.31239         4.86994
     2016.76386         2.27892         4.87925
     2016.76659         0.41445         4.96300
     2016.76933         4.11798         4.92299
     2016.77207        -8.28249         4.98255
     2016.77481         6.81504         4.93881
     2016.77754         1.36756         4.87087
     2016.78028         2.43709         4.88018
     2016.78302         2.80862         4.91182
     2016.78576         1.59115         4.97603
     2016.78850        11.93568         4.88576
     2016.79123        11.18121         4.91089
     2016.79397        11.16673         5.14913
     2016.79677         4.38140         5.24405
     2016.79945        -4.73321         4.92392
     2016.80219         1.43932         4.90158
     2016.80492         2.52885         4.99371
     2016.80766         3.16338         5.04024
     2016.81040        -1.92610         4.94439
     2016.81314        -1.91257         4.91833
     2016.81587        -2.25704         4.98999
     2016.81861        -3.43451         4.88948
     2016.82135        -4.37498         4.92392
     2016.82409        -2.38945         5.47205
     2016.82683        -1.25193         4.92205
     2016.82956        -2.40040         4.96486
     2016.83230         3.99913         5.00953
     2016.83504         2.21466         4.85598
     2016.83778         2.00619         4.89879
     2016.84052        -3.11628         4.91275
     2016.84325        -6.30376         4.91182
     2016.84599        -5.43123         4.88111
     2016.84873         1.12030         4.98627
     2016.85147        -0.02017         4.90996
     2016.85420        -0.84364         4.87180
     2016.85694        -0.64311         4.91647
     2016.85968        -5.81659         5.31664
     2016.86242        -4.33506         4.91554
     2016.86516        15.36847         5.05979
     2016.86789        -0.06600         4.90344
     2016.87063        -0.44047         4.92764
     2016.87337         5.78206         5.18077
     2016.87611         0.98558         4.88018
     2016.87885         1.72611         4.88762
     2016.88158        -6.35436         4.89134
     2016.88432        -0.91483         4.96672
     2016.88706         1.56170         4.90344
     2016.88980         3.37723         4.90158
     2016.89253         2.70775         4.88483
     2016.89527        -1.41772         4.97603
     2016.89801         3.97481         4.89041
     2016.90075         1.66334         4.90530
     2016.90349         3.08687         5.05141
     2016.90622         5.14740         4.96207
     2016.90896         3.62392         4.97417
     2016.91170         0.71645         4.88018
     2016.91444         1.55798         4.94532
     2016.91718        -0.94249         5.15471
     2016.91991        -6.83296         5.00488
     2016.92265        -2.71443         4.89041
     2016.92539         1.49909         4.93322
     2016.92813        -8.26238         4.91368
     2016.93086        -2.15685         4.89879
     2016.93360        -1.78732         5.40412
     2016.93634        -2.16779         4.93229
     2016.93908       -10.42326         5.05141
     2016.94182       -10.09074         4.97417
     2016.94455        -5.83121         4.97696
     2016.94729         1.60632         5.01046
     2016.95003        -2.21115         4.97324
     2016.95277        -3.47162         5.03466
     2016.95551       -12.68609         4.93974
     2016.95824       -10.73557         4.89041
     2016.96098       -11.75104         4.90810
     2016.96372       -18.69951         4.92392
     2016.96646        -7.19198         4.97975
     2016.96919        -4.66445         5.61816
     2016.97193        -3.52592         4.95835
     2016.97467         1.14060         4.96952
     2016.97741         5.23713         4.97231
     2016.98015         2.53566         4.90716
     2016.98288         0.24919         4.90344
     2016.98562        -1.16428         4.93229
     2016.98836        -0.35075         5.00395
     2016.99110        -2.19423         4.94067
     2016.99384         2.48930         4.94625
     2016.99657         3.60483         5.01698
     2016.99931        -0.56064         4.87645
     2017.00091         7.44717        13.46143
     2017.00479         1.27842         4.90344
     2017.00695        -8.10542         7.07737
     2017.01003        -5.93207         5.41342
     2017.01300        -0.02600         4.89134
     2017.01574        -2.04247         4.91368
     2017.01848        -4.08094         4.93694
     2017.02669         6.14564         4.97324
     2017.02943         5.71017         4.88948
     2017.03216        -0.50730         4.85412
     2017.03490        -6.29877         4.89321
     2017.03764        -9.96724         4.87459
     2017.04038        -6.31372         4.93415
     2017.04312        -4.45919         4.98255
     2017.04585        -0.61666         5.10632
     2017.04859         2.32887         5.11097
     2017.05133        10.46240         4.93415
     2017.06616        -3.73724        11.60578
     2017.06776        -4.90243         4.93415
     2017.07049        -4.14990         4.91368
     2017.07323       -10.87138         4.89693
     2017.07597       -12.48485         4.90437
     2017.07871       -11.88232         5.00953
     2017.08145        -5.00479         4.92392
     2017.08418       -10.14026         4.90530
     2017.08692        -6.68773         4.91461
     2017.08966        -5.87321         4.91833
     2017.09240       -10.44568         4.91461
     2017.09514        -9.42015         4.94439
     2017.09787        -4.00862         4.93043
     2017.10061         1.16191         5.00953
     2017.10335        -4.75956         5.04024
     2017.10609        -7.07404         5.04210
     2017.10882        -1.72951         4.93229
     2017.11156        -4.71798         5.51021
     2017.11430        -9.23545         4.91647
     2017.11704       -14.06992         4.92205
     2017.11978       -10.75339         4.92671
     2017.12246       -12.23300         5.00209
     2017.12531        -5.27920         5.51672
     2017.12805         2.03533         5.02535
     2017.13078         2.17286         5.05048
     2017.13347         2.95925         4.92950
     2017.13620        -0.73522         5.27941
     2017.13894        -2.51170         4.91182
     2017.14168        -6.64017         4.90158
     2017.14442        -8.49464         4.91833
     2017.14715        -8.39711         4.93508
     2017.14989        -5.52458         5.34176
     2017.15263        -3.13605         4.90623
     2017.15537        -2.42453         5.05327
     2017.15811        -2.17200         5.19659
     2017.16084        -1.34547         5.99599
     2017.16324       -10.11676         6.13279
     2017.17026         0.76697        15.21379
     2017.17185        -1.10322         5.04117
     2017.17459         0.23231         5.07747
     2017.17733        -6.61016         5.11935
     2017.18001        -7.69777         4.92671
     2017.18275       -21.33524         5.07188
     2017.18548       -10.70771         4.90623
     2017.18822        -6.20619         5.10446
     2017.19096       -15.50766         4.96859
     2017.19370        -8.24413         4.91926
     2017.19644       -11.74860         4.94439
     2017.19917        -4.12207         4.96579
     2017.20191        -5.73554         5.00767
     2017.20465        -8.35102         5.16774
     2017.20739        -6.47249         4.95090
     2017.21013        -3.65196         4.96672
     2017.21286        -1.18443         5.00860
     2017.21560        -8.37190         4.95556
     2017.21834        -4.70637         4.96021
     2017.22108         0.35715         4.96486
     2017.22381        -4.06232         5.02442
     2017.22655        -5.66979         5.36410
     2017.22929        -8.38326         4.93694
     2017.23203        -4.73673         4.91833
     2017.23459        -7.33861         5.46088
     2017.23867        -4.54290        14.03377
     2017.23984       -10.51510         6.11232
     2017.24388       -29.67347         9.52491
     2017.24572        -9.64909         5.13424
     2017.24834       -11.60983         5.38457
     2017.25476       -11.40352         7.89632
     2017.25667       -10.28098         4.92019
     2017.25941        -9.94545         4.96579
     2017.26186       -13.53760         7.88329
     2017.26460         0.49393         5.66283
     2017.26762        -2.23086         4.94067
     2017.27036        -6.25834         4.90344
     2017.27310       -15.59581         5.06072
     2017.27566       -11.24269         5.23847
     2017.29312        -4.21907         8.19040
     2017.29500       -12.91358         4.98441
     2017.29871       -17.36774         9.43277
     2017.30047       -11.97352         4.90530
     2017.30321       -12.68900         4.92019
     2017.30584       -13.25474         5.17984
     2017.30823       -10.24903         9.46907
     2017.31416       -11.67888         5.01046
     2017.31690        -5.67635         5.22916
     2017.31964        -9.95783         5.23009
     2017.32198        -9.94225         6.17002
     2017.33447       -10.95345        20.83474
     2017.33629       -16.98511         5.93829
     2017.33795       -10.92417         9.79944
     2017.34249        -6.12133         9.23269
     2017.34428       -12.42107         4.86901
     2017.34702        -9.95254         4.88948
     2017.34976       -13.11801         4.90251
     2017.35249       -13.78648         4.93974
     2017.35523       -13.71596         4.90530
     2017.35786        -6.76270         5.15285
     2017.36042       -10.60958         7.07179
     2017.36974       -13.08737         8.35512
     2017.37103        -3.66528         7.30538
     2017.37423        -6.64567         5.78567
     2017.37713       -15.49573         5.49904
     2017.37987       -17.43220         5.24870
     2017.38261       -15.74267         5.12586
     2017.38506       -14.66382         6.85495
     2017.38809       -10.33662         5.24219
     2017.39082        -8.15909         4.99464
     2017.39356        -5.26856         5.03373
     2017.39624        -4.63717         5.14261
     2017.39773         7.26737        66.71343
     2017.42624        -6.49163         5.22637
     2017.42904        -4.24696         5.13051
     2017.43166        -2.11971         5.80708
     2017.43463        -6.74163         5.06444
     2017.43737        -4.07511         4.95463
     2017.44010        -0.00858         4.97324
     2017.44284        -3.40905         4.99837
     2017.44558         2.92448         4.94811
     2017.44832        -7.91999         4.87273
     2017.45191        -1.25342         8.55799
     2017.45379        -1.17594         5.09794
     2017.45556        -0.74972        10.46018
     2017.46475        -3.68682         5.03745
     2017.46748        -2.11829         5.28407
     2017.47022        -5.35377         5.15378
     2017.47296        -1.17324         5.08957
     2017.47570        -6.01371         5.00395
     2017.47843        -8.61118         4.88576
     2017.48117        -5.53065         4.88762
     2017.48391         1.21088         5.16029
     2017.48665         0.00940         4.99185
     2017.48939        -4.82907         5.04304
     2017.49212        -1.30554         4.88948
     2017.49486        -2.74801         4.94439
     2017.49760        -1.29648         4.93508
     2017.50034         1.03905         4.96021
     2017.50308         2.53657         4.95742
     2017.50581        -6.51190         5.01232
     2017.50855        -9.04537         4.95183
     2017.51129        -9.79684         5.07561
     2017.51403        -0.32631         5.06537
     2017.51676        -4.41778         4.96207
     2017.51950        -6.99126         5.11190
     2017.52224         0.04127         4.98348
     2017.52498        -1.21820         4.94718
     2017.52772        -0.28067         5.08398
     2017.53045        -3.40914         5.02815
     2017.53319        -7.53261         5.06909
     2017.53593         6.56091         5.15750
     2017.53867         1.41044         5.03652
     2017.54141         6.50597         4.92578
     2017.54414         1.60950         4.99557
     2017.54688        -1.34397         5.19566
     2017.54962        -8.93244         4.93043
     2017.55133        10.57564         9.28853
     2017.56878        -1.49875         5.16867
     2017.57152         0.31178         4.97231
     2017.57426        -5.19769         4.97324
     2017.57700        -3.83416         4.94160
     2017.57974        -4.19963         4.91182
     2017.58247        -0.33910         4.90251
     2017.58521        -5.62758         4.90903
     2017.58795        -1.73505         5.00860
     2017.59069        -2.45452         5.04955
     2017.59342         3.28901         4.91926
     2017.59616        -4.52746         4.88948
     2017.59890        -1.42493         4.96393
     2017.60164        -3.33441         4.94160
     2017.60438        -6.80888         5.02721
     2017.60711        -0.99835         4.97696
     2017.60985        -3.71282         5.09701
     2017.61259         9.10171         5.21334
     2017.61533        -2.37376         5.12865
     2017.61807         2.89076         5.04862
     2017.62080         3.28129         4.94811
     2017.62354         6.85782         5.00953
     2017.62628         5.58735         5.19380
     2017.62902         2.02288         5.18449
     2017.63175        -6.97159         4.95556
     2017.63449        -3.30007         4.91926
     2017.63723        -2.96754         4.93043
     2017.63997         2.79699         5.01698
     2017.64271         8.04152         4.99557
     2017.64544         4.00105         5.14075
     2017.64818         0.86858         4.99650
     2017.65092         0.73510         4.92299
     2017.65366         4.07263         4.87925
     2017.65639        -1.66484         4.96486
     2017.65913         4.46569         4.90530
     2017.66187         2.13122         4.95183
     2017.66461         2.22875         5.10632
     2017.66735         4.70227         5.00581
     2017.67008         5.23780         4.87832
     2017.67282         1.45233         5.02815
     2017.67556         0.89086         4.87925
     2017.67830         1.11839         4.92205
     2017.68104         1.35092         4.92019
     2017.68377         5.88744         5.10353
     2017.68651         4.33597         5.09515
     2017.68925        -1.08050         5.03001
     2017.69199        -1.23197         4.98348
     2017.69472         1.49256         4.96486
     2017.69746         4.66009         5.00860
     2017.70020         8.94561         5.14913
     2017.70294        14.65014         5.13051
     2017.70568        -0.45033         5.03466
     2017.70841         6.29720         4.91275
     2017.71115         3.81573         5.03187
     2017.71389         1.35126         5.16309
     2017.71663        12.46678         4.93788
     2017.71937         1.86031         5.10911
     2017.72210         0.99584         4.90344
     2017.72484        -1.34363         4.92019
     2017.72758         4.20390         4.91461
     2017.73032        -2.22557         4.89414
     2017.73305         3.33695         4.96859
     2017.73579        -3.06852         4.92950
     2017.73853        -0.98399         4.93136
     2017.74127         1.17954         4.90065
     2017.74401         5.14407         5.00302
     2017.74674        -3.37840         4.93322
     2017.74948        -1.36788         4.98627
     2017.75222        -1.14535         4.90251
     2017.75496        -1.39282         4.92205
     2017.75770        -0.24629         5.01698
     2017.76009        -6.21358         5.84058
     2017.77220         4.15330         7.82001
     2017.77412         0.20288         4.93694
     2017.77686         2.20241         4.94625
     2017.77960        -2.16006         4.97696
     2017.78234        -4.81454         5.02349
     2017.78507        -2.81801         4.95463
     2017.78781        -3.25048         4.94346
     2017.79055        -2.11095         4.89414
     2017.79329         5.60258         4.92950
     2017.79603         7.92111         5.00953
     2017.79876         6.77563         5.08212
     2017.80150         4.60616         5.10073
     2017.80424         2.61369         4.93788
     2017.80698        -9.38978         5.09143
     2017.80971        -4.78125         5.00767
     2017.81245        -7.34772         4.92671
     2017.81519        -3.69320         4.95649
     2017.81793        -3.32267         4.98255
     2017.82067        -8.47014         5.01977
     2017.82340        -4.59261         4.95649
     2017.82614        -3.56308         4.92205
     2017.82888        -5.52355         4.93508
     2017.83162         0.63197         4.93881
     2017.83436       -10.28050         5.01232
     2017.83709         5.12503         5.08957
     2017.83983        -3.76444         4.97603
     2017.84257        -3.32491         4.92299
     2017.84531        -3.48438         5.03838
     2017.84804        -9.03086         4.91461
     2017.85078        -6.34933         4.90623
     2017.85352         1.22220         4.92299
     2017.85626        -2.95927         5.11190
     2017.85900        -2.49574         5.09887
     2017.86173        -2.65721         5.05979
     2017.86447        -2.97569         4.91926
     2017.86721         0.69184         4.97696
     2017.86995        -2.02563         4.98068
     2017.87269         1.65690         4.90716
     2017.87542         0.10743         4.91833
     2017.87816        -0.48304         4.89600
     2017.88090         1.13348         4.87087
     2017.88364        -1.09199         4.94067
     2017.88637         1.45154         4.96300
     2017.88911         4.41107         4.94625
     2017.89185        -0.51840         5.01977
     2017.89459        -1.68987         5.21427
     2017.89733        -1.23335         4.94439
     2017.90006        -0.99782         4.95090
     2017.90280        -3.46129         4.94346
     2017.90554        -1.26676         4.96300
     2017.90828        -0.57023         4.93415
     2017.91102        -2.51570         5.00395
     2017.91375        -2.96418         4.99092
     2017.91649        -1.39765         4.90623
     2017.91923         1.21288         4.92485
     2017.92197        -0.02959         4.93974
     2017.92470        -3.14206         4.89041
     2017.92744        -6.67053         4.92205
     2017.93018        -8.88701         4.94811
     2017.93292        -7.56348         4.92764
     2017.93566        -4.79295         4.94997
     2017.93839        -1.89142         4.92950
     2017.94113        -3.94289         4.94811
     2017.94387        -0.14436         4.91740
     2017.94661        -5.23084         4.90810
     2017.94935        -1.28631         4.97975
     2017.95208        -2.31678         5.25801
     2017.95482        -5.14725         5.03280
     2017.95756        -2.95672         4.95277
     2017.96030         0.64781         4.98068
     2017.96303         1.01733         4.93788
     2017.96577         8.69186         5.17518
     2017.96851         1.48439         4.88204
     2017.97125        -2.82508         4.87087
     2017.97399         2.78345         4.91647
     2017.97672        -4.69302         4.92578
     2017.97946        -4.79850         4.85226
     2017.98220        -9.06797         4.94811
     2017.98494        -9.91444         4.93415
     2017.98767       -12.09091         4.96300
     2017.99041       -10.98838         5.03187
     2017.99315         1.14715         5.03652
     2017.99589        -2.89333         5.00023
     2017.99863        -3.24780         4.89414
     2018.00136        -9.94627         4.92299
     2018.00410       -12.16074         4.90810
     2018.00684       -11.22121         4.88204
     2018.00958        -7.86068         4.90437
     2018.01232       -11.01016         4.92485
     2018.01505        -6.18563         4.91368
     2018.01779        -3.23010         4.93415
     2018.02053        -2.39057         4.91740
     2018.02327        -2.01404         4.89972
     2018.02600        -3.62851         4.86901
     2018.02874        -3.38299         4.98255
     2018.03148       -10.83246         5.00860
     2018.03422        -7.51693         4.87459
     2018.03696       -13.55040         4.91275
     2018.03969       -11.14487         4.90344
     2018.04243        -8.70234         4.92578
     2018.04517        -8.63582         4.91368
     2018.04791       -11.33829         5.12214
     2018.05065        -3.73376         4.88483
     2018.05338        -3.77223         4.87459
     2018.05612        -3.95470         4.86529
     2018.05886       -10.13717         4.92019
     2018.06160        -5.27265         4.86901
     2018.06433        -1.49112         4.97789
     2018.06707        -1.77459         5.05793
     2018.06981        -4.87806         5.03466
     2018.07255       -11.61453         5.08677
     2018.07529       -13.24300         5.07840
     2018.07802       -10.25748         5.01698
     2018.08076        -9.11795         5.13703
     2018.08350        -8.16442         4.99650
     2018.08601        -8.23343         5.51951
     2018.08987       -11.73622         8.41002
     2018.09171        -9.89583         5.16402
     2018.09445        -7.38031         5.05141
     2018.09719        -1.69378         5.19659
     2018.09993       -12.67025         5.02070
     2018.10266       -13.06072         4.98348
     2018.10540       -15.04919         5.14168
     2018.10814        -9.60266         5.05327
     2018.11088        -5.18414         4.96207
     2018.11362        -3.05661         4.95556
     2018.11635        -6.80008         4.97975
     2018.11909       -10.24455         5.10539
     2018.12183        -3.09702         5.16495
     2018.12457        -6.07549         5.00209
     2018.12731       -10.78597         4.97417
     2018.13004        -8.37844         5.00581
     2018.13278         0.01909         5.08491
     2018.13552        -0.27338         4.98999
     2018.13826        -4.60485         4.96766
     2018.14099        -8.44932         4.96859
     2018.14373        -5.83080         4.96114
     2018.14647        -4.71227         5.26545
     2018.14921        -8.04774         5.12214
     2018.15195        -0.06221         5.04210
     2018.15468        -0.13568         4.98068
     2018.15742        -4.09815         4.96300
     2018.16016        -2.37263         4.99185
     2018.16290        -8.44110         5.08026
     2018.16564        -3.25957         5.14447
     2018.16837        -6.16604         5.00395
     2018.17111        -5.42651         4.97138
     2018.17385        -8.64398         4.97138
     2018.17659        -9.03046         4.97603
     2018.17932        -5.19193         5.01139
     2018.18206        -1.61940         5.70750
     2018.18480        -0.61587         5.08398
     2018.18754        -6.54134         4.97696
     2018.19028        -7.68181         4.94904
     2018.19301        -7.24329         4.98813
     2018.19575        -4.03576         5.04304
     2018.19849        -1.34423         4.95463
     2018.20123         4.22830         5.06630
     2018.20397         1.50583         4.93508
     2018.20670        -0.74964         4.94811
     2018.20944        -4.89212         4.96393
     2018.21218        -5.98559         4.97603
     2018.21492       -14.69806         4.97789
     2018.21765        -4.17753         4.90903
     2018.22039        -3.57100         4.91089
     2018.22313        -4.40647         4.96393
     2018.22587        -7.15295         4.93881
     2018.22861        -8.79342         4.90903
     2018.23134        -6.01289         4.86249
     2018.23408       -13.74236         4.86063
     2018.23682       -10.85583         4.87645
     2018.23956        -8.42230         4.90065
     2018.24230        -5.93478         4.91275
     2018.24503        -3.78225         4.87552
     2018.24777        -2.75172         4.85505
     2018.25051        -8.45419         4.88948
     2018.25325        -8.99766         4.88111
     2018.25598        -4.34413         4.85970
     2018.25872        -3.26761         5.04117
     2018.26146         0.53692         4.98720
     2018.26420        -7.05755         5.16402
     2018.26694        -4.44302         4.94253
     2018.26967        -8.94349         4.89041
     2018.27241        -3.59196         4.89786
     2018.27515         1.89056         4.87738
     2018.27789        -0.19791         4.99464
     2018.28062        -1.28538         5.08026
     2018.28336       -10.74185         4.96207
     2018.28610        -5.02232         4.86343
     2018.28884         1.29421         4.87645
     2018.29158         2.05173         5.00302
     2018.29431        -7.41074         4.89134
     2018.29705        -6.78821         4.83365
     2018.29979        -7.11668         4.83551
     2018.30253        -8.30615         4.90810
     2018.30527        -5.78162         4.85040
     2018.30800        -5.23310         4.80666
     2018.31074        -5.82157         4.79921
     2018.31348        -3.99204         4.84016
     2018.31622        -4.39651         5.36131
     2018.31895        -0.63798         5.01698
     2018.32169        -4.31545         4.84947
     2018.32443        -4.78693         4.81038
     2018.32717        -7.55140         4.86622
     2018.32991        -2.41587         5.01512
     2018.33264        -2.21334         4.87645
     2018.33538        -4.46481         5.02256
     2018.33812        -4.09428         5.03094
     2018.34086        -1.46776         4.87180
     2018.34360        -1.03023         4.97510
     2018.34633        -5.39970         4.88576
     2018.34907        -3.10017         4.85784
     2018.35181         3.54836         4.88576
     2018.35455         3.79189         4.83644
     2018.35728        -3.07159         4.85505
     2018.36002        -0.78206         4.92857
     2018.36276        -1.10353         4.93136
     2018.36550         1.04000         4.86994
     2018.36824        -2.07547         4.88483
     2018.37097        -1.14194         4.93415
     2018.37371        -2.30242         4.91275
     2018.37645        -4.50889         5.04769
     2018.37919        -1.85236         4.86063
     2018.38193         2.48317         4.90903
     2018.38466         3.63970         4.85412
     2018.38740         0.46523         4.85040
     2018.39014         4.77175         4.92112
     2018.39288         0.25528         4.91926
     2018.39561         2.16781         4.84667
     2018.39835         2.10934         4.90810
     2018.40109         3.37587         4.84202
     2018.40383        -1.89160         4.87925
     2018.40657         0.39992         4.89879
     2018.40930         9.24545         5.06909
     2018.41204         7.89998         4.91647
     2018.41478         2.35751         4.86343
     2018.42299        -0.32291         4.96021
     2018.42573         3.67162         4.90065
     2018.42847         4.16315         4.87180
     2018.43121         8.12668         4.89786
     2018.43394        -0.70579         4.95370
     2018.43668        -1.57326         4.92671
     2018.43942         1.29826         4.87087
     2018.44216         3.88379         4.84854
     2018.44490        -1.23368         4.85226
     2018.44763        -2.15215         4.93508
     2018.45037        -2.82062         4.86063
     2018.45311         0.45191         4.84667
     2018.45585         0.66943         4.83178
     2018.45859         1.61196         4.94625
     2018.46132        -2.02951         4.88762
     2018.46406         0.05802         4.93415
     2018.46680        -2.20245         4.88204
     2018.46954        -3.80192         4.98441
     2018.47227         1.47760         4.97882
     2018.47501         2.48613         4.88390
     2018.47775         1.83966         4.89227
     2018.48049         1.19419         4.98161
     2018.48308        -3.81962         5.13144
     2018.48687       -15.70559         9.17592
     2018.48870        -0.41923         5.16681
     2018.49144         1.10430         4.84481
     2018.49418        -0.25117         4.97045
     2018.49692         7.96936         4.98813
     2018.49965         1.13689         4.91089
     2018.50239        -2.82758         4.85784
     2018.50513         2.24894         4.88483
     2018.50787         3.49847         4.96300
     2018.51060         6.69900         5.08864
     2018.51334         4.41053         4.99930
     2018.51608         0.75206         4.93322
     2018.51882         1.67459         4.88855
     2018.52156        -1.03989         4.90158
     2018.52429        -2.77936         4.87180
     2018.52703         3.21217         4.88855
     2018.52977         0.15870         4.90344
     2018.53251         2.63223         4.93694
     2018.53525         1.73476         4.92578
     2018.53798        -2.27672         4.95090
     2018.54072         4.20881         4.83458
     2018.54346        -2.22966         4.94904
     2018.54620         5.81987         4.90344
     2018.54893        -1.16760         4.86343
     2018.55167         3.62893         4.89227
     2018.55441        -0.21355         4.83085
     2018.55715        -0.61902         5.09701
     2018.55989         5.61651         5.09050
     2018.56262         3.52904         4.91554
     2018.56516         2.55408         5.27941
     2018.57985         8.89211         9.75384
     2018.58179         9.44474         5.05420
     2018.58453         4.58127         5.01698
     2018.58726         2.25479         4.85412
     2018.59000         6.46732         4.91182
     2018.59274         8.25285         4.95928
     2018.59548         6.12238         4.85691
     2018.59822         5.92691         4.92019
     2018.60095         2.14044         4.95649
     2018.60369         7.29397         4.87180
     2018.60643         3.32649         4.97510
     2018.60917         8.46302         4.96207
     2018.61190        -0.44145         4.87832
     2018.61464         5.02808         4.83737
     2018.61738         5.24661         5.00860
     2018.62012         9.67514         4.92112
     2018.62286         6.98566         4.99092
     2018.62559        10.04619         5.11562
     2018.62833         0.41572         4.85877
     2018.63107         4.67025         4.84109
     2018.63381        -0.18222         5.45809
     2018.63655         1.44031         4.89041
     2018.63928         8.23883         5.09050
     2018.64202         8.59736         5.08771
     2018.64476         7.78689         4.96859
     2018.64750         2.42442         4.89693
     2018.65023         3.65995         4.98161
     2018.65297        10.90848         5.20031
     2018.65571         5.77300         4.87366
     2018.65845         7.59453         4.87645
     2018.66084         8.74124         5.65818
     2018.67572         7.18872         8.19691
     2018.67761         5.66023         4.85319
     2018.68035         5.91476         4.99185
     2018.68309        -2.25971         4.98348
     2018.68583         1.68482         4.98441
     2018.68856         7.34834         4.93043
     2018.69130        -0.93313         4.98627
     2018.69404         0.95240         5.02163
     2018.69678         3.36893         4.92857
     2018.69952        -1.30954         4.88948
     2018.70225        -2.83601         4.99464
     2018.70499         0.33051         4.86715
     2018.70773        -0.32896         4.90158
     2018.71047        -2.60143         4.90810
     2018.71321        -0.94290         4.93974
     2018.71594        -1.05737         4.92671
     2018.71868        -3.66684         4.92950
     2018.72142        -3.50532         4.85784
     2018.72416        -2.31079         5.18263
     2018.72689         1.89774         4.91089
     2018.72958        -2.55386         5.04397
     2018.73263        -4.02159         5.44879
     2018.73499        -4.38495         5.18914
     2018.73785         3.09285         4.86156
     2018.74058        -0.23562         4.85784
     2018.74332         5.25291         4.86063
     2018.74606         2.23644         4.87925
     2018.74880        -1.72903         4.86343
     2018.75154        -4.11150         4.88111
     2018.75427         4.23102         4.89321
     2018.75701         3.62755         4.91833
     2018.75975        -1.81892         4.85784
     2018.76249         4.30061         4.92019
     2018.76522        -3.90586         4.98906
     2018.76796         2.53067         4.86436
     2018.77070         2.63019         4.89414
     2018.77344         1.83072         4.88576
     2018.77618         1.85325         4.87832
     2018.77891         4.18078         4.91182
     2018.78165        -0.19769         4.96859
     2018.78439         2.15884         4.84016
     2018.78713        -0.34864         4.84016
     2018.78987        -6.60511         4.92205
     2018.79260        -2.85658         4.86529
     2018.79534         5.47795         4.83923
     2018.79808        -3.17052         4.84109
     2018.80082         2.41201         4.85226
     2018.80355         4.83753         4.84854
     2018.80629         4.68106         5.01605
     2018.80903         1.47359         4.86622
     2018.81177         2.81712         5.13238
     2018.81451         2.26665         4.93881
     2018.81724        -0.70282         4.95928
     2018.81998         2.70370         4.92299
     2018.82272         6.79223         4.94625
     2018.82546         0.68776         4.86901
     2018.82820        -2.68171         4.88111
     2018.83093        -3.47418         4.86249
     2018.83367        -3.03565         4.92950
     2018.83641        -0.28513         5.37341
     2018.83915         0.59040         4.90810
     2018.84188        -9.89207         5.11376
     2018.84441         2.31395         5.61537
     2018.84736        -7.23101         5.56977
     2018.85010         0.23452         4.87087
     2018.85284        -2.41396         4.84667
     2018.85557        -3.73643         4.90810
     2018.85831        -1.68290         5.03652
     2018.86105        -2.16837         4.87459
     2018.86379        -3.07484         5.00674
     2018.86653         0.85469         4.88111
     2018.86926        -6.00579         4.94439
     2018.87200         1.81574         4.90810
     2018.87474         2.16627         4.91461
     2018.87748         0.19480         4.94346
     2018.88021        -0.59367         4.96672
     2018.88295         0.19486         5.13517
     2018.88569         0.61038         5.07468
     2018.88843         7.39091         5.11842
     2018.89117         5.96444         5.10818
     2018.89390         3.83397         5.04862
     2018.89664        -4.86250         5.17146
     2018.89938        -2.48797         5.03187
     2018.90212         0.26755         4.99557
     2018.90485         7.00008         5.03745
     2018.90759         3.13961         5.04862
     2018.91033         6.19914         4.98068
     2018.91307         5.12667         5.11562
     2018.91581         6.20420         5.00023
     2018.91854         8.04572         4.94718
     2018.92128         2.93225         4.93601
     2018.92402         3.16678         4.97417
     2018.92676         2.21831         4.93508
     2018.92950         7.27684         4.97417
     2018.93223        -0.00563         5.20589
     2018.93497         2.20589         4.98813
     2018.93771         4.25242         5.03559
     2018.94045         4.43395         4.94532
     2018.94318         0.68348         5.04210
     2018.94592         7.33901         4.96859
     2018.94866         2.34554         4.92578
     2018.95140        10.94906         5.09143
     2018.95414        14.92759         4.98906
     2018.95687         2.90012         4.96672
     2018.95961         7.79165         5.00488
     2018.96235         9.91618         5.15657
     2018.96509        -0.76529         4.96393
     2018.96783         3.56323         4.98441
     2018.97056         7.54176         4.98161
     2018.97330        -1.00271         4.99278
     2018.97604         2.81582         5.05699
     2018.97878         2.00335         4.88855
     2018.98151        -5.17512         4.93043
     2018.98425         3.41840         5.25429
     2018.98699        -3.07907         5.02349
     2018.98973        -4.20154         4.99837
     2018.99247        -0.08001         5.14727
     2018.99520        -2.73748         5.10911
     2018.99794        -7.14995         4.98813
     2019.00068       -10.67943         5.02349
     2019.00342        -5.75490         5.03001
     2019.00616        -2.53737         5.03559
     2019.00889         3.32416         4.98627
     2019.01163         0.66069         4.97789
     2019.01437         5.89222         4.97696
     2019.01711         8.60574         4.99371
     2019.01984        -7.05473         4.97603
     2019.02258        -9.46020         5.01605
     2019.02532        -8.66367         5.09701
     2019.02806        -3.17714         4.96486
     2019.03080        -2.69961         5.01139
     2019.03353        -6.51209         4.88483
     2019.03627        -7.66456         4.89693
     2019.03901        -1.71403         4.91647
     2019.04175        -0.76950         4.90158
     2019.04449        -5.67697         5.31571
     2019.04722        -3.82244         5.04490
     2019.04996        -7.12592         5.06630
     2019.05270        -4.74839         5.12307
     2019.05544        -6.14586         5.02628
     2019.05817        -1.06833         5.19007
     2019.06091         1.39520         5.22171
     2019.06365        -2.45327         5.06351
     2019.06639        -2.92175         5.02721
     2019.06913        -1.77222         5.06351
     2019.07186        -2.16669         5.04862
     2019.07460        -2.80616         5.01046
     2019.07734         1.20437         4.93322
     2019.08008         4.12990         4.95742
     2019.08282         1.59642         5.07468
     2019.08555         3.18195         5.02815
     2019.08829         2.44048         4.91833
     2019.09103        11.40801         4.95277
     2019.09377         6.98154         4.90810
     2019.09650         5.65607         4.94067
     2019.09924         5.68459         4.89693
     2019.10198        -4.72788         4.90623
     2019.10472         0.93265         4.92578
     2019.10746         4.27818         4.90996
     2019.11019         0.34971         4.94904
     2019.11293         8.84324         5.03745
     2019.11567         2.32876         5.14168
     2019.11841        12.81329         4.91089
     2019.12388        11.54035         5.11004
     2019.12662         7.65788         4.94532
     2019.12936         2.00641         4.92112
     2019.13210         0.18893         4.91833
     2019.13483         0.57146         4.92857
     2019.13757         1.79899         4.91647
     2019.14031         0.92452         4.92392
     2019.14305         1.59705         4.93788
     2019.14579        -0.14642         4.95556
     2019.14852        -6.47390         4.91740
     2019.15126         4.60763         4.86808
     2019.15400        -1.77684         4.84481
     2019.15674        -2.34131         4.85505
     2019.15948        -9.33878         4.86156
     2019.16221        -5.29625         4.98534
     2019.16495        -1.26873         4.84295
     2019.16769        -7.07120         4.81876
     2019.17043        -4.88267         4.83365
     2019.17316        -4.91214         4.88855
     2019.17590        -7.92361         4.85133
     2019.17864        -5.30708         5.02163
     2019.18138        -5.74656         4.85784
     2019.18412       -14.24003         4.88855
     2019.18685        -5.19550         4.84854
     2019.18959        -7.87197         4.84388
     2019.19233        -3.23844         4.95928
     2019.19507        -5.62691         4.85412
     2019.19780        -9.59039         4.86249
     2019.20054       -12.58186         5.02070
     2019.20328       -10.34633         4.87459
     2019.20602        -8.40380         4.90437
     2019.20876       -10.09127         4.84947
     2019.21149       -11.00674         4.83085
     2019.21423        -7.42122         4.89041
     2019.21697        -6.64469         4.86808
     2019.21971       -11.30216         5.10818
     2019.22245        -7.04263         4.86156
     2019.22518        -5.81010         4.85877
     2019.22792        -5.48857         4.83272
     2019.23066        -6.68705         4.89227
     2019.23340        -4.86252         4.86529
     2019.23579        -3.23081         5.80242
     2019.23974       -12.16340         7.96984
     2019.24161       -10.58493         4.97045
     2019.24435       -10.49740         4.95090
     2019.24709        -5.56588         4.96021
     2019.24982        -3.54235         4.85226
     2019.25256        -1.32282         5.04769
     2019.25530        -5.89229         4.86715
     2019.25804        -9.07776         4.90903
     2019.26078        -1.75323         4.89041
     2019.26351        -4.69471         4.95370
     2019.26625        -4.73918         4.86436
     2019.26899        -9.50565         4.96672
     2019.27173       -10.64812         5.05606
     2019.27446        -4.57459         4.87552
     2019.27720       -10.29606         4.96766
     2019.27994        -4.36354         4.87552
     2019.28268        -8.07401         4.89041
     2019.28542         1.76152         4.84388
     2019.28815        -1.24295         4.85505
     2019.29089        -1.12742         4.88297
     2019.29363        -7.38389         4.88948
     2019.29637        -4.02737         5.00023
     2019.29911         1.06616         4.91740
     2019.30184        -3.84231         4.89879
     2019.30458       -12.56178         4.89414
     2019.30732        -9.39125         4.92299
     2019.31006        -6.25772         5.06909
     2019.31245        -4.56901         5.68237
     2019.31674         0.41020        16.93172
     2019.31827        -5.00214         4.84854
     2019.32101        -5.24361         4.84016
     2019.32375       -12.62408         4.86063
     2019.32648        -6.09355         4.89972
     2019.32922        -5.66203         4.91833
     2019.33196        -5.69650         4.95277
     2019.33470        -2.60697         4.95090
     2019.33744        -3.75244         4.89972
     2019.34017        -8.76491         4.95742
     2019.34291        -1.11138         4.92764
     2019.34565        -4.21886         5.05420
     2019.34839        -8.21633         4.93229
     2019.35112        -8.32380         4.87180
     2019.35386        -5.94727         4.88018
     2019.35660        -2.08574         4.87738
     2019.35934        -1.46021         4.94067
     2019.36208         5.33631         4.91182
     2019.36481         0.70784         4.94160
     2019.36755        -6.47263         4.92112
     2019.37029        -0.06310         4.95463
     2019.37303         3.19143         4.97603
     2019.37577        -0.44604         5.07468
     2019.37850         1.11848         4.92112
     2019.38124         2.21101         4.91275
     2019.38398         0.60154         4.94811
     2019.38672        -0.57093         4.91275
     2019.38945        -4.02640         4.93043
     2019.39219         2.88113         5.09515
     2019.39493        -1.32235         4.90065
     2019.39767        -0.01682         4.92485
     2019.40041        -0.42229         4.99185
     2019.40314        -0.96276         4.90623
     2019.40588         2.38377         4.93043
     2019.40828        -9.32852         5.52044
     2019.42042       -14.59256         8.61104
     2019.42231        -1.91506         4.90344
     2019.42505         3.84347         4.93322
     2019.42778         0.82199         5.21706
     2019.43052         1.97352         4.91554
     2019.43326        -7.93095         4.88018
     2019.43600        -4.24842         4.97603
     2019.43874        -6.09989         4.96207
     2019.44147        -6.59736         4.96859
     2019.44421        -3.05684         5.02721
     2019.44695        -0.02131         5.21520
     2019.44969        -4.29378         5.06537
     2019.45243        -1.54425         4.95742
     2019.45516        -3.27172         5.02908
     2019.45790        -3.91219         5.04583
     2019.46064        -0.37467         5.05513
     2019.46338        -7.44514         5.26825
     2019.46611         2.77539         5.26359
     2019.46885         3.21992         5.12958
     2019.47159        -2.88955         5.00302
     2019.47433        -8.19002         5.14727
     2019.47707         3.64150         5.02256
     2019.47980         0.49203         5.00953
     2019.48254        -2.44544         5.11190
     2019.48494        -9.83773        11.45595
     2019.48897         3.64588         9.86086
     2019.49076        -5.98285         4.90810
     2019.49349         1.50667         4.92205
     2019.49623        -0.08380         4.95183
     2019.49897        -3.12327         4.91740
     2019.50171         1.75626         4.89879
     2019.50444        -2.46921         4.86529
     2019.50718        -1.25568         4.89972
     2019.50992        -5.18316         5.06444
     2019.51266        -1.11663         4.89041
     2019.51540         6.16590         4.91926
     2019.51813         1.36443         4.95370
     2019.52087         1.17596         4.87273
     2019.52361        -0.63051         4.93229
     2019.52635        -4.10699         4.91461
     2019.52908         4.51554         5.23288
     2019.53182        -1.79493         5.01419
     2019.53456        -1.25240         5.02628
     2019.53730        -2.86787         5.08119
     2019.54004        -0.25334         5.03280
     2019.54277         6.12818         5.03745
     2019.54551         3.03471         5.25522
     2019.54825         2.89024         4.88204
     2019.55099        -0.27723         4.93229
     2019.55373         3.83430         5.06909
     2019.55646         1.28483         5.12307
     2019.55920         5.80635         5.19845
     2019.56091        10.29443         9.51932
     2019.57382         9.04321         9.24200
     2019.57563         3.46252         4.96021
     2019.57837         3.01105         5.01791
     2019.58110         3.21758         4.99464
     2019.58384         6.11711         5.11376
     2019.58658         2.37364         4.96021
     2019.58932         3.45517         4.90437
     2019.59206         7.25869         5.04210
     2019.59479         6.56822         4.87645
     2019.59753         5.58875         5.23474
     2019.60027         1.56628         5.24777
     2019.60301        -0.50619         5.06909
     2019.60574         2.89734         5.31385
     2019.60848         4.71186         5.11097
     2019.61122         0.47739         4.88669
     2019.61396        -2.42508         5.04024
     2019.61670         6.66945         4.89693
     2019.61943        -0.60702         4.96021
     2019.62217         3.33451         4.99371
     2019.62491         7.34403         4.94439
     2019.62765         4.05456         4.94067
     2019.63039         7.05909         4.94904
     2019.63312         2.74862         4.94160
     2019.63586        11.19615         5.33246
     2019.63860         1.52168         5.04583
     2019.64407         1.07273         4.96859
     2019.64681        -1.04474         4.98999
     2019.64955         0.62879         4.94067
     2019.65229         8.62932         4.90251
     2019.65503         0.70585         5.00395
     2019.65776         0.21237         5.10539
     2019.66050         4.86990         5.21520
     2019.66324         2.45743         4.96114
     2019.66598         0.07996         4.96486
     2019.66872         3.95849         4.93974
     2019.67145         0.33102         4.96021
     2019.67419         1.22354         4.96859
     2019.67693         2.28607         5.26173
     2019.67967        -5.41540         5.17704
     2019.68240        -5.19387         5.03094
     2019.68514        10.43566         5.05048
     2019.68788        -1.00181         5.13610
     2019.69062        -1.60829         5.04769
     2019.69336        -2.50076         4.91554
     2019.69609        -6.07723         4.98813
     2019.69883        -1.02570         5.03745
     2019.70157         4.00683         4.93043
     2019.70431         2.06636         5.03652
     2019.70705         0.09088         4.94811
     2019.70978         4.62441         4.99930
     2019.71252         3.44394         4.98348
     2019.71526         2.33547         4.86436
     2019.71800         0.60400         5.06723
     2019.72073        -2.49447         5.09143
     2019.72347         5.09305         4.90251
     2019.72621         0.71658         5.01512
     2019.72895         3.95711         4.90437
     2019.73169         0.24364         4.96672
     2019.73408        -0.53465         5.85175
     2019.74538         2.13628         4.94253
     2019.74811         2.57081         5.03559
     2019.75085         0.91734         4.98068
     2019.75359        -0.74713         5.15471
     2019.75633        -0.46261         4.98348
     2019.75906        -0.98708         4.87087
     2019.76180        -4.60155         4.90437
     2019.76454        -1.20602         4.90996
     2019.76728         0.15951         5.14261
     2019.77002        -1.03996         5.01512
     2019.77275        -1.89544         5.07747
     2019.77549        -0.17791         5.04024
     2019.77823         1.78162         4.99464
     2019.78097         4.50315         5.00953
     2019.78371         3.06468         5.01326
     2019.78644         1.83421         5.01419
     2019.78918         3.35773         5.08119
     2019.79192         6.53126         5.03094
     2019.79466         8.47079         5.06723
     2019.79739         1.75832         5.18170
     2019.80013        -0.03515         4.99930
     2019.80287         4.44038         5.08119
     2019.80561        -2.20310         5.22730
     2019.80835        -1.83657         4.99837
     2019.81108        -3.45404         4.97603
     2019.81382        -1.24251         5.04676
     2019.81656         0.96502         5.04210
     2019.81930        -0.87545         4.97231
     2019.82203         0.00207         4.99837
     2019.82477        -2.77140         5.05048
     2019.82751        -4.55687         5.03094
     2019.83025         0.06766         5.09515
     2019.83299        -1.11281         5.05699
     2019.83572         2.42672         4.98813
     2019.83846         4.37625         4.99744
     2019.84120         2.73477         4.99650
     2019.84394         3.60130         5.20403
     2019.84668        -2.88917         4.97603
     2019.84941         1.73436         4.97231
     2019.85215         3.65989         5.02442
     2019.85489         3.68342         5.05141
     2019.85763         2.91894         5.04676
     2019.86036        -3.74653         5.03280
     2019.86310        -5.29500         5.03373
     2019.86584         6.72053         5.08398
     2019.86858         1.70006         5.13144
     2019.87132         2.55959         5.20031
     2019.87405         0.92811         5.00302
     2019.87679        -1.15536         5.18914
     2019.87953         7.37317         5.01046
     2019.88227        14.11670         5.13982
     2019.88501         9.70723         4.98068
     2019.88774         8.50976         5.13796
     2019.89048        11.31528         4.95835
     2019.89322         9.34881         4.93974
     2019.89596         6.89234         5.00860
     2019.89869         8.46187         5.02163
     2019.90143         9.17440         4.99278
     2019.90417        12.20193         4.99371
     2019.90691         9.97445         4.96859
     2019.90965         5.10798         4.97510
     2019.91238         7.57951         5.00674
     2019.91512        10.34204         5.06072
     2019.91786        11.87157         5.04676
     2019.92060         6.54210         4.97789
     2019.92334        11.38262         4.95370
     2019.92607         6.09915         4.91554
     2019.92881         4.07068         4.99557
     2019.93155         7.73921         4.97975
     2019.93429         7.92674         4.96579
     2019.93702        -0.46173         4.96300
     2019.93976        -1.55021         4.94718
     2019.94250        -5.73568         4.98255
     2019.94524        -0.48815         5.06072
     2019.94798        -1.25262         4.98627
     2019.95071         2.19691         5.23009
     2019.95345         5.40044         4.93136
     2019.95619         4.18796         4.96486
     2019.95893        -0.11751         4.97975
     2019.96167         2.48802         5.00209
     2019.96440         8.13955         5.21613
     2019.96714         1.88708         5.17798
     2019.96988        -0.63939         4.97696
     2019.97262         1.74913         4.93881
     2019.97535         5.07066         4.97045
     2019.97809        -0.86281         4.94532
     2019.98083         0.08172         4.95370
     2019.98328        -3.86543         5.64329
     2019.99452        -2.36064         5.03466
     2019.99726         3.46989         5.04397
     2020.00000        12.47542         5.10073
     2020.00273         7.81395         5.04304
     2020.00547         5.93147         5.13982
     2020.00821        -0.72600         5.13889
     2020.01095         0.00053         5.12121
     2020.01368        -5.15494         5.07282
     2020.01642        -2.85541         5.08677
     2020.01916         6.20412         4.98534
     2020.02190        -0.27436         5.04117
     2020.02464        -5.36783         5.08026
     2020.02737         0.02070         5.06258
     2020.03011         0.70423         5.04304
     2020.03285        -2.89924         5.01698
     2020.03559        -1.54071         4.89321
     2020.03833        -0.71319         4.90437
     2020.04106        -0.72666         4.97510
     2020.04380        -5.69213         5.00581
     2020.04654         0.74640         4.89041
     2020.04928        -3.90707         4.85040
     2020.05201        -6.76354         4.86249
     2020.05475        -1.41302         4.88483
     2020.05749        -1.88149         4.89227
     2020.06023        -3.14596         4.92578
     2020.06297        -4.13843         4.96300
     2020.06570         0.64310         4.88297
     2020.06844        -1.46437         4.96579
     2020.07118        -0.40085         4.94811
     2020.07392        -1.02832         5.07840
     2020.07666        -3.13179         4.90158
     2020.07939        -2.06326         4.87925
     2020.08213         1.78227         4.93881
     2020.08487        -8.49120         5.01232
     2020.08761        -1.33968         4.90437
     2020.09034         0.38285         4.89507
     2020.09308        -3.22862         4.89879
     2020.09582        -1.35009         4.89600
     2020.09856        -1.46056         4.97417
     2020.10130        -6.68003         4.95183
     2020.10403        -5.09451         5.02721
     2020.10677        -5.83898         4.87738
     2020.10951        -9.50545         4.88297
     2020.11225        -1.80592         4.88576
     2020.11498        -2.50639         4.90996
     2020.11772        -4.63786         5.00860
     2020.12046        -2.52134         5.09794
     2020.12320        -6.29981         4.88483
     2020.12594       -10.02728         4.96859
     2020.12867        -5.77775         4.85877
     2020.13141        -7.01622         4.86808
     2020.13415        -6.87169         4.92671
     2020.13689        -1.76517         4.96114
     2020.13963        -4.78764         4.94811
     2020.14236        -5.48011         4.87925
     2020.14510         2.68742         5.02256
     2020.14784        -9.15705         4.99650
     2020.15058        -6.63752         4.96579
     2020.15331        -7.92600         5.03838
     2020.15605        -9.53647         4.86343
     2020.15879        -0.25494         4.90903
     2020.16153         2.07759         5.01232
     2020.16427        -1.89888         4.95277
     2020.16700         1.55165         4.97975
     2020.16974         0.32417         4.98720
     2020.17248        -1.27930         4.93136
     2020.17522        -1.97377         4.94532
     2020.17796         1.97676         4.94253
     2020.18069        -0.85671         4.92671
     2020.18343        -0.74518         4.91275
     2020.18617        -4.11566         4.90065
     2020.18891        -5.24313         5.03745
     2020.19164        -2.72360         5.03745
     2020.19438        -4.18807         5.07282
     2020.19712         0.00346         5.03187
     2020.19986         2.06099         5.00767
     2020.20260        -1.10249         5.01791
     2020.20533        -3.39596         5.03559
     2020.20807        -1.64243         5.00767
     2020.21081        -2.59590         5.05420
     2020.21355        -3.07737         5.41435
     2020.21629        -4.27284         5.25708
     2020.21902        -3.90032         5.09236
     2020.22176        -2.41379         4.99930
     2020.22450        -4.17826         5.02256
     2020.22724         1.48227         4.99185
     2020.22997         4.27380         5.00023
     2020.23271        -0.83467         4.97510
     2020.23545        -0.44815         4.97696
     2020.23819        -1.88162         5.02070
     2020.24093         0.63691         5.01698
     2020.24366        -0.69656         5.03373
     2020.24640         0.28897         5.01791
     2020.24914        -1.86550         5.02535
     2020.25188        -7.69398         5.06909
     2020.25462        -2.78045         5.02070
     2020.25735        -2.42292         4.98068
     2020.26009         5.11961         4.94997
     2020.26283        -1.26586         5.01139
     2020.26557        -6.89633         5.02628
     2020.26830        -3.71381         4.99092
     2020.27104        -2.07328         4.98720
     2020.27378         0.87725         4.93601
     2020.27652         1.87178         5.01232
     2020.27926         0.74731         5.10166
     2020.28199        -2.42816         5.08212
     2020.28473        -8.44064         5.03187
     2020.28747        -1.35211         5.01977
     2020.29021        -4.68958         4.96672
     2020.29295        -5.09505         4.93974
     2020.29568         3.95748         5.00767
     2020.29842         2.05701         4.96207
     2020.30116        -0.78847         5.04304
     2020.30390         0.01106         4.96207
     2020.30663        -2.54641         4.96952
     2020.30937        -6.58088         5.18635
     2020.31211        -3.24135         5.15285
     2020.31485         0.20018         5.06072
     2020.31759        -6.28330         4.92671
     2020.32032         0.15023         5.06630
     2020.32306        -4.63724         4.94904
     2020.32580        -3.74871         4.92764
     2020.32854         5.33982         5.12772
     2020.33128        -2.82865         4.96952
     2020.33401        -0.77513         4.98720
     2020.33675         3.31140         4.95463
     2020.33949        -1.43107         4.93415
     2020.34223        -6.66654         5.06630
     2020.34496        -6.33001         5.05048
     2020.34770        -6.79148         4.95090
     2020.35044        -2.46996         4.99557
     2020.35318        -5.55343         4.95835
     2020.35592        -3.96390         5.02349
     2020.35865         1.01363         5.01605
     2020.36139         2.29316         4.98906
     2020.36413         2.20369         4.97882
     2020.36687         2.73421         5.02163
     2020.36961        -1.07326         4.92392
     2020.37234        -1.19273         4.90996
     2020.37508         3.86380         4.99185
     2020.37782        -3.23367         4.90344
     2020.38056        -4.05714         4.88111
     2020.38329        -1.69162         4.93415
     2020.38603        -4.45709         4.90065
     2020.38877        -3.98356         5.06165
     2020.39151        -7.29403         4.93881
     2020.39425        -4.71050         4.96766
     2020.39698        -3.15797         4.90065
     2020.39972        -4.29645         4.88390
     2020.40246        -2.76492         4.97231
     2020.40491        -0.95207         5.41435
     2020.40879        -7.70382         8.47424
     2020.41067         4.19167         5.01605
     2020.41341         3.37220         4.87738
     2020.41615        -2.77428         4.93694
     2020.41889        -4.03575         4.91926
     2020.42162        -3.30922         4.91089
     2020.42436        -2.18869         5.23102
     2020.42710         4.44984         5.15099
     2020.42984        -2.71063         5.01884
     2020.43258         0.46089         4.98441
     2020.43531        -6.13758         4.98441
     2020.43805       -10.04205         5.16122
     2020.44079        -2.15252         5.24963
     2020.44353        -0.33299         5.12214
     2020.44626       -10.05646         4.96859
     2020.44900        -0.83294         4.94439
     2020.45174         0.18859         4.94718
     2020.45448         0.80112         4.96114
     2020.45722        -4.09935         4.91554
     2020.45995         0.76418         4.84388
     2020.46269        -8.05729         4.90810
     2020.46543         1.39223         4.88483
     2020.46817        -4.01924         5.02163
     2020.47091        -7.65171         5.07188
     2020.47364         2.00582         4.91554
     2020.47638         4.14735         4.85691
     2020.47912         2.37088         4.98906
     2020.48186        -1.04960         4.96579
     2020.48459        -1.51707         5.06165
     2020.48733         5.89746         5.22916
     2020.49007         0.50799         5.01139
     2020.49281         0.47652         5.00209
     2020.49555         2.47405         5.01605
     2020.49828         1.12957         4.98627
     2020.50102        -0.26990         4.92950
     2020.50376        -1.23437         4.93322
     2020.50650        -6.02784         4.88390
     2020.50924        -5.21231         4.90344
     2020.51197        -5.04078         4.94439
     2020.51471         0.69474         4.92950
     2020.51745        -0.16173         4.86622
     2020.52019         6.37580         5.06351
     2020.52292        -0.05967         5.05048
     2020.52566        -4.95814         5.03001
     2020.52840         6.20939         5.16495
     2020.53114         2.49891         5.07375
     2020.53388         1.23844         5.02349
     2020.53661         1.45197         5.02815
     2020.53935         3.85750         5.00302
     2020.54209        -0.34597         5.05048
     2020.54483        -1.27444         5.00581
     2020.54757         3.56608         5.02628
     2020.55030         1.62761         5.02815
     2020.55304         0.51714         5.01232
     2020.55578        -4.29833         5.19845
     2020.55852         4.31420         5.12307
     2020.56125         4.60273         4.98906
     2020.56399         3.98625         5.07095
     2020.56673         4.04978         4.97789
     2020.56947         6.65131         5.00488
     2020.57221         3.67184         5.19845
     2020.57494        11.23237         5.07840
     2020.57768         3.98790         5.03838
     2020.58042         0.43342         5.08119
     2020.58316        -3.18005         5.09980
     2020.58590        -2.78652         5.05699
     2020.58863         2.65901         5.06444
     2020.59137         0.72954         5.01326
     2020.59411         8.88507         5.02535
     2020.59685        -5.65141         5.41994
     2020.59958        -3.08088         5.12307
     2020.60232         0.06065         5.00023
     2020.60506        -5.38082         5.11655
     2020.60780         5.08771         5.00953
     2020.61054         9.98424         5.03373
     2020.61327        -0.98024         5.11283
     2020.61601         3.91129         5.01326
     2020.61875         2.55482         5.02628
     2020.62109        -3.44960         6.14396
     2020.62696        -1.59059         5.19100
     2020.62970         7.25793         5.08305
     2020.63244         7.95746         5.14168
     2020.63518         4.54499         5.13144
     2020.63791         1.71552         5.27569
     2020.64065         3.24005         5.15750
     2020.64339         1.41958         5.03094
     2020.64613         8.13510         5.06444
     2020.64887         6.55363         5.27197
     2020.65160         8.26616         5.04862
     2020.65434         5.12169         5.13238
     2020.65708         3.54322         4.99930
     2020.65982         7.46775         5.02628
     2020.66256         2.98027         5.04210
     2020.66529         7.13780         5.09515
     2020.66803         3.21233         5.04955
     2020.67077         5.12086         5.02070
     2020.67351         5.59639         5.00767
     2020.67624         4.07592         5.05979
     2020.67898         8.76244         5.11190
     2020.68172         2.62497         5.02163
     2020.68446         2.67750         5.22451
     2020.68720         3.07903         5.06072
     2020.68993         2.56856         4.97510
     2020.69267         4.73709         5.09329
     2020.69541         4.39361         5.27104
     2020.69815         2.93514         5.08864
     2020.70089         6.73167         5.00395
     2020.70362         2.94020         5.01512
     2020.70636         1.83173         5.22823
     2020.70910         2.07426         5.23009
     2020.71184         4.81978         5.15006
     2020.71457         2.91931         5.24219
     2020.71731        -2.13516         5.18077
     2020.72005        -3.60463         5.17239
     2020.72279         8.22190         5.02908
     2020.72553         8.05643         5.18542
     2020.72826         4.19095         5.28779
     2020.73100         6.77048         5.32222
     2020.73374        10.79301         5.12028
     2020.73648         2.89054         5.07468
     2020.73921         0.35107         5.09143
     2020.74195         7.10860         5.04304
     2020.74469         7.57012         4.99092
     2020.74743         4.88765         5.02070
     2020.75017         4.29418         5.04117
     2020.75290         5.60271         5.06909
     2020.75564         3.50124         5.06816
     2020.75838         4.75577         4.91833
     2020.76112         4.22129         5.04304
     2020.76386         2.62982         4.96021
     2020.76659         8.50335         4.98348
     2020.76933         6.91588         5.14354
     2020.77207         7.26941         4.96672
     2020.77481         4.58394         5.12307
     2020.77754         9.39446         5.02628
     2020.78028        -2.39201         5.33432
     2020.78302         6.41852         5.10818
     2020.78576        -3.33295         5.03652
     2020.78850        -3.58642         5.00209
     2020.79118         2.29197         5.14540
     2020.79397         5.09163         5.17518
     2020.79671         2.68416         5.23474
     2020.79945         9.86469         5.02815
     2020.80219         5.22022         5.09701
     2020.80492         3.87975         5.00023
     2020.80766         4.38528         5.09143
     2020.81040         3.99580         5.11562
     2020.81314        10.61133         5.06444
     2020.81587         0.63186         4.98999
     2020.81861         3.51239         5.00953
     2020.82135         3.91592         5.03559
     2020.82409         1.94845         5.06351
     2020.82666         1.88957         5.46833
     2020.84599         2.89767         5.31943
     2020.84873         4.00120         5.05513
     2020.85147         3.89973         5.02256
     2020.85694        12.29879         5.07468
     2020.85968         4.93731         5.09701
     2020.86242        13.57684         5.00581
     2020.86516         8.88137         5.10353
     2020.86789        14.92590         5.21799
     2020.87063        10.79843         5.04024
     2020.87337         4.88396         5.11004
     2020.87611        11.67448         5.23567
     2020.87885        13.64901         5.16867
     2020.88158         6.01454         5.13424
     2020.88432         5.99707         5.07561
     2020.88706         2.77260         5.21892
     2020.88980         2.09313         5.07840
     2020.89253         5.07865         5.02163
     2020.89527        10.07618         5.18635
     2020.89801         5.71971         5.19287
     2020.90075         8.93424         5.05327
     2020.90337         2.92350         5.26638
     2020.90622        -0.79670         5.07095
     2020.90896         4.21982         5.25243
     2020.91170         4.66035         5.19380
     2020.91444         6.66188         5.13982
     2020.91718         2.25941         5.03373
     2020.91991        -4.06806         5.04769
     2020.92168        -6.08385         9.74174
     2020.93908        -5.08336         5.10911
     2020.94182        -1.93884         5.00395
     2020.94455        -2.38831         5.01232
     2020.94729        -7.71378         5.07188
     2020.95003        -5.03425         5.05606
     2020.95277       -13.46872         5.04210
     2020.95551        -3.64319         5.03559
     2020.95824        -1.05467         5.08491
     2020.96098        -0.21914         5.09515
     2020.96372        -3.76961         5.02535
     2020.96646         1.36292         5.16309
     2020.96919         1.39845         5.12865
     2020.97193        -8.02102         5.01232
     2020.97467        -2.57350         5.13051
     2020.97741        -6.61197         5.05606
     2020.98015        -4.01144         5.19380
     2020.98288        -4.90091         5.13610
     2020.98562         4.02862         4.96952
     2020.98836         3.08115         4.93974
     2020.99110         4.75767         4.92671
     2020.99384        -0.46680         4.97231
     2020.99657         4.84273         5.03559
     2020.99931         6.26426         4.99744
     2021.00205         0.17279         4.96486
     2021.00479         9.59532         4.96859
     2021.00752        -0.62216         4.98999
     2021.01026         8.27137         4.99371
     2021.01300         3.72690         5.00674
     2021.01574         1.86743         4.99464
     2021.01848         0.06196         4.92857
     2021.02121        -5.04451         4.97789
     2021.02395        -2.39499         4.96766
     2021.02669        -3.37146         5.00116
     2021.02943        -2.96793         4.98255
     2021.03216         1.84460         4.98441
     2021.03450        13.33118         6.23702
     2021.04038        -2.92282         5.01698
     2021.04312        -3.44829         5.00953
     2021.04585        -5.52876         5.08305
     2021.04859        -4.58323         4.99930
     2021.05133        -6.43870         5.00581
     2021.05407         2.35583         5.22916
     2021.05681         2.82835         5.12214
     2021.05954        -3.48612         5.00674
     2021.06776        -0.63553         4.98720
     2021.07049         2.67100         4.98534
     2021.07323         4.10752         4.93415
     2021.07597        -5.10995         4.93788
     2021.07871        -3.19642         4.97603
     2021.08145        -2.93089         4.93881
     2021.08418       -11.07836         5.03187
     2021.08692        -3.42583         5.03559
     2021.08966        -1.44930         4.97603
     2021.09240        -7.05678         4.94625
     2021.09502        -8.92852         5.35386
     2021.10609        -1.37713         5.49159
     2021.10882        -2.24561         4.93415
     2021.11156        -7.11008         4.95463
     2021.11430        -6.06255         4.98348
     2021.11704         0.99198         5.00581
     2021.11978         0.83251         4.99092
     2021.12251        -5.35896         5.01419
     2021.12525       -11.16944         5.04117
     2021.12799        -1.73591         4.99464
     2021.13073        -7.19738         4.93881
     2021.13347        -7.97185         5.08398
     2021.13620        -9.11832         5.08491
     2021.13894        -4.38879         4.98161
     2021.14168        -3.27827         4.94160
     2021.14442        -5.89474         5.12121
     2021.14715       -10.53821         5.02628
     2021.14989       -11.01268         4.98441
     2021.15166        -2.26847        10.02186
     2021.16358        -1.15004         5.06909
     2021.16632         0.41249         5.11097
     2021.16906         0.24402         4.95183
     2021.17180        -5.07045         4.94160
     2021.17453        -3.38193         5.09329
     2021.17727        -1.65840         5.08026
     2021.18001        -7.51687         5.08212
     2021.18234        -2.43332         6.38220
     2021.19376        -8.08209         5.04769
     2021.19644        -7.58770         4.94532
     2021.19917        -2.66417         4.95183
     2021.20191        -2.53264         4.96486
     2021.20465         1.09689         4.91647
     2021.20739        -5.43159         4.93043
     2021.21013        -1.41006         5.04676
     2021.21286        -6.51153         5.09329
     2021.21560        -2.77800         4.93136
     2021.21834        -3.82447         4.95556
     2021.22108        -4.75994         4.94625
     2021.22381        -5.53442         4.92578
     2021.22655        -5.27889         4.93415
     2021.22912        -2.79177         5.26732
     2021.24120       -11.06296         9.24293
     2021.24298        -1.30272         4.93043
     2021.24572        -6.41519         4.91461
     2021.25119         0.43787         4.91461
     2021.25393        -4.59060         4.98068
     2021.25667        -4.58308         4.93601
     2021.25941        -4.16455         4.94904
     2021.26214         0.35098         4.93974
     2021.26488        -1.60949         4.95928
     2021.26762         3.29504         5.03652
     2021.27036         0.12357         4.99557
     2021.27310        -1.13591         4.98720
     2021.27583        -2.52638         4.91833
     2021.27857        -1.91385         5.05234
     2021.28131         0.15968         5.00767
     2021.28405         4.23821         4.99930
     2021.28679         2.84774         5.02908
     2021.28952         1.03626         5.01977
     2021.29226        -3.04521         5.04117
     2021.29500         1.53432         5.08864
     2021.29774         0.87285         5.18356
     2021.30047         2.38038         5.04490
     2021.30321         4.60291         5.04490
     2021.30595         8.03943         5.20031
     2021.30869        10.00096         5.26638
     2021.31143         3.46449         5.02442
     2021.31416         8.30302         4.99930
     2021.31690         4.76355         4.98534
     2021.31964         5.63108         5.09515
     2021.32238         0.51860         5.11283
     2021.32512        -3.83387         5.04304
     2021.32785         0.58866         5.19287
     2021.33059        -1.00381         5.04304
     2021.33333         1.56272         4.94532
     2021.33607        -2.15775         4.97789
     2021.33880         2.62377         4.95277
     2021.34154        -1.26770         4.91926
     2021.34428        -3.60317         6.30496
     2021.34702        -9.33464         4.98348
     2021.34976        -0.12511         5.02908
     2021.35249        -1.30058         4.93601
     2021.35523        -8.20306         4.95277
     2021.35797        -6.51653         4.98534
     2021.36071        -3.37700         4.96672
     2021.36344        -5.63747         5.02535
     2021.36618        -5.15994         5.03373
     2021.36892        -4.10741         5.02815
     2021.37166         1.33611         4.97045
     2021.37440        -1.32036         5.11376
     2021.37616        -3.06114         9.79851
     2021.37987        -2.18030         5.15843
     2021.38261        -1.15577         5.25801
     2021.38535         0.98776         5.11469
     2021.38809        -1.00472         5.12400
     2021.39082        -2.08319         5.10073
     2021.39356         0.54034         5.03187
     2021.39630        -0.94113         5.16029
     2021.39904        -5.19860         5.05979
     2021.40177        -4.81407         5.29616
     2021.40451        -0.36255         5.21241
     2021.40725        -0.48602         5.02256
     2021.40999         2.43851         5.07375
     2021.41273        -1.54296         5.03280
     2021.41546         2.43957         5.04769
     2021.41820         1.75310         5.11562
     2021.42094         8.72162         5.11562
     2021.42368         0.03215         5.31664
     2021.42642         4.13068         5.18914
     2021.42915         4.87721         5.07933
     2021.43172         0.12633         5.39574
