# ================= DQRFIT RESULTS ================
# INPUT FILE: series/MORG.rad
# OUTPUT: LDETRENDED
# FILTER FUNCTION: f(t)
# f(t)=+line(t)
# line(t)=+P 1+P 2*t
# heav(t)=(t<0?0:1)
# TOTAL OBSERVATIONS MTOT=  691
# INITIAL TIME INTERVAL= 2019.3921 - 2005.2704 = 14.1218
# TOTAL OBSERVATIONS AFTER PREFILTER M=  690
# TIME-SPAN=    0.0000 -    0.0000 =  0.0000
# OBSERVATIONS: USED M=   690 REJECTED MTOT-M=     1 %USED=   99.8553
# N=  2 PARAMETERS
# MAXSIG= 175.00000
# MAXRES=  22.38924
# SCALE FACTOR FOR LENGTHS: SCL=  10.00000
# SCALE FACTOR FOR SIGMAS: SCLSIG=   1.00000
# CHI^2=   1032.255 DOF=   688 CHI^2/DOF=   1.50037
# RMS=      7.007 SDEV=      7.012 MEAN=    0.05249
#  P #       PARAMETER +-    SIGMA %error PARAMETER NAME
# P 1 =       711.02032 +-   94.960  13.36 YZERO                              
# P 2 =        -0.35205 +-    0.047  13.40 SLOPE                              
#       T            LDETRENDED       SIG_OBS
     2005.27037         4.56146         7.21709
     2005.27311         0.61442         7.13992
     2005.27584        -0.15662         7.23669
     2005.27858         2.63935         7.24526
     2005.28132        -9.98069         7.29303
     2005.28406        -4.33672         7.26976
     2005.28679        -5.22576         7.21219
     2005.28953         1.63620         7.04315
     2005.29227        -1.58183         7.16197
     2005.29501         1.33313         7.03213
     2005.29775        -2.99591         7.01498
     2005.30048         1.22506         6.93414
     2005.30322        -2.31898         6.98681
     2005.30596        -4.23801         7.01131
     2005.30870        -1.37605         7.10807
     2005.31144         0.33791         7.03825
     2005.31417        -6.50012         7.05785
     2005.31691        -5.64416         6.94394
     2005.31965        -0.88919         6.96354
     2005.32239        -3.05423         7.18892
     2005.32512       -12.08827         7.10317
     2005.32786        -8.03530         7.08358
     2005.33060        -5.69134         6.98558
     2005.33334        -0.44037         6.90229
     2005.51951        -1.62283         7.02601
     2005.52225        -2.07087         7.11175
     2005.52499         3.21110         6.99293
     2005.52773        -9.00294         7.06765
     2005.53046        -0.53198         7.06520
     2005.53320         3.01099         6.94884
     2005.53594         0.85595         6.95374
     2005.53868        -1.65909         6.89862
     2005.54141         1.17688         6.95006
     2005.54415         1.99684         7.03458
     2005.54689        -1.47319         7.14360
     2005.54963         1.17977         7.12277
     2005.55237        -2.10027         7.03948
     2005.55510         0.07670         7.20974
     2005.55784         1.17466         6.97578
     2005.56058         4.27263         7.22444
     2005.56332         0.02759         7.22689
     2005.56606        -1.09845         7.29181
     2005.56879         1.33852         7.20484
     2005.57153         2.05848         7.33468
     2005.57427        -3.80256         7.35060
     2005.57701         3.34441         7.35673
     2005.57974        -9.33163         7.26364
     2005.58248        -3.12166         7.28813
     2005.58522         1.17530         7.10440
     2005.58796         3.00926         6.94394
     2005.64819        -0.84553         7.06643
     2005.65092        -4.55057         7.12645
     2005.65366        -4.65660         7.08113
     2005.65640        -4.90864         7.07378
     2005.65914         1.86232         7.02478
     2005.66188         3.05529         7.04193
     2006.10815        -8.15660         6.99171
     2006.11089        -7.86864         7.17789
     2006.11363       -12.68367         6.89249
     2006.11636       -13.42671         6.95619
     2006.11910        -9.17175         6.91332
     2006.12184        -2.38978         6.95496
     2006.12458        -5.89282         6.88637
     2006.12731        -8.19186         6.92556
     2006.13005        -5.10589         6.88269
     2006.13279        -3.45393         6.95251
     2006.13553        -1.32696         6.91821
     2006.13827         1.71500         6.89739
     2006.14100         0.04696         6.87289
     2006.14374         0.44093         6.86187
     2006.14648        -0.10911         6.93536
     2006.14922        -2.30314         6.91821
     2006.15196        -3.86718         6.90964
     2006.15469        -7.21222         6.85575
     2006.15743       -11.64125         7.06153
     2006.16017        -7.58729         7.05295
     2006.16291        -5.01133         7.21464
     2006.16564       -12.49836         6.97211
     2006.16838       -14.29640         7.13992
     2006.17112        -5.52443         6.88514
     2006.17386         0.25353         6.92311
     2006.17660        -5.40751         6.98926
     2006.17933         0.92446         6.92189
     2006.18207         0.53242         6.88637
     2006.18481        -1.71661         6.86799
     2006.18755         3.42535         7.01253
     2006.19029         5.48131         7.00028
     2006.19302         2.21828         7.00028
     2006.19576       -16.25876         7.05173
     2006.19850        -2.35080         7.05050
     2006.20124         2.35017         7.05540
     2006.20397        -5.83787         7.22076
     2006.20671       -10.18290         7.19382
     2006.20945        -5.22494         7.01621
     2006.21219        -4.76198         7.05173
     2006.21493        -4.18601         7.04805
     2006.21766        -5.88105         7.13012
     2006.22040        -7.26208         7.22199
     2006.22314        -6.90112         7.11665
     2006.22588        -9.96516         7.36163
     2006.22862        -1.26019         7.41797
     2006.23135        -3.55023         7.14115
     2006.23409         3.43473         7.13257
     2006.23683         0.42070         7.03825
     2006.23957         2.18366         6.87289
     2006.24230        -1.76337         6.89862
     2006.24504         5.27259         6.91332
     2006.24778         1.28155         6.89494
     2006.25052        -1.36548         6.89494
     2006.25326        -5.02152         6.92924
     2006.25599         1.81945         7.03948
     2006.25873         2.35441         6.93904
     2006.26147         2.69437         7.13625
     2006.26421        -0.48166         7.21464
     2006.26695         4.75230         7.14850
     2006.26968         1.23927         6.94761
     2006.27242         1.10023         6.90597
     2006.27516         5.73619         7.20974
     2006.27790        -3.43384         7.18402
     2006.28063         1.72112         6.93414
     2006.28337         0.31008         6.97089
     2006.28611         3.16005         7.16932
     2006.28885        -7.84799         7.01376
     2006.29159       -13.45702         7.27098
     2006.29432         1.01894         6.91944
     2006.29706         2.46790         6.90107
     2006.29980         5.72487         7.08235
     2006.30254         1.61183         6.96966
     2006.30528        -7.42520         6.98558
     2006.30801         0.72276         6.94884
     2006.31075        -2.40228         6.95251
     2006.31349        -0.98531         7.13012
     2006.31623        -4.72235         7.02478
     2006.32170        -4.57342         7.01253
     2006.32444        -1.94246         7.01866
     2006.32718         0.49651         7.06888
     2006.32992        -3.71053         7.03091
     2006.76523        -0.06428         7.29058
     2006.76797        -3.96031         7.26609
     2006.77071         0.40965         7.18892
     2006.77345        -1.50738         7.13502
     2006.77619         5.69058         7.10562
     2006.77892         6.73854         7.08848
     2006.78166         4.46951         7.04560
     2006.78440         3.35047         7.07745
     2006.78714         2.69343         7.18647
     2006.78987         3.04940         7.16074
     2006.79261        11.32436         7.14605
     2006.79535        -1.39567         7.09093
     2006.79809         0.92629         7.15952
     2006.80083        -3.63575         7.40817
     2006.80356         1.02822         7.19994
     2006.80630         0.70718         7.19382
     2006.80904         3.04015         7.11297
     2006.81178         7.94811         7.12767
     2006.81452         2.48807         7.39960
     2006.81725         0.61004         7.27711
     2006.81999        -0.17600         7.13870
     2006.82273         0.51196         7.02601
     2006.82547         2.31093         7.04315
     2006.82820         1.91389         7.03948
     2006.83094         1.76786         7.07745
     2006.83368         2.31982         7.12645
     2006.83642         1.68178         7.25016
     2006.83916        -3.85325         7.14115
     2006.84189        -2.35029         7.35183
     2006.84463        -5.81932         7.22934
     2006.84737        -4.20136         7.16932
     2006.85011         0.07460         7.32366
     2006.85285         5.20357         7.72542
     2006.85558         6.20453         7.47554
     2006.85832         4.71549         7.34203
     2006.86106        -2.60454         7.53556
     2006.86380        -1.05958         7.44002
     2006.86653        -6.50161         7.81484
     2006.86927         8.20035         7.10317
     2006.87201         3.65931         7.05173
     2006.87475        10.20328         7.18157
     2006.87749         8.20824         7.03948
     2006.88022        -2.86879         7.05295
     2006.88296         0.58117         7.05418
     2006.88570         3.53313         7.05908
     2006.88844        -3.86990         7.12890
     2006.89118       -10.58794         7.17422
     2006.89391        -3.69397         7.30283
     2006.89665        -2.45601         7.19137
     2006.89939         2.72695         7.03703
     2006.90213         5.56992         7.06888
     2006.90486         6.19588         7.12277
     2006.90760        12.34784         7.01988
     2006.91034         4.69481         7.07133
     2006.91308         2.45877         7.10807
     2006.91582        -4.07326         7.04805
     2006.91855        -4.17730         7.03825
     2006.92129        -3.30434         7.05173
     2006.92403        -5.94337         7.06888
     2006.92677        -1.79641         7.12522
     2007.52909         6.53664         6.95864
     2007.53183         6.00160         7.10072
     2007.53457         2.06657         7.02846
     2007.53731        11.48353         7.06030
     2007.54005         6.23350         7.06153
     2007.54278        -0.52254         7.25629
     2007.54552        11.55842         7.34570
     2007.54826        15.30039         7.00273
     2007.55100        13.05835         7.01376
     2007.55374        10.88832         6.96231
     2007.55647         8.77728         6.98926
     2007.55921        22.38924         7.41185
     2007.56195        11.26121         7.22689
     2007.56469         8.14417         7.04193
     2007.56742         5.33913         6.99538
     2007.57016        13.25310         6.97211
     2007.57290         3.09806         7.01253
     2007.57564         9.93803         7.06520
     2007.57838         6.70299         7.08113
     2007.58111         8.60695         6.94884
     2007.58385        12.32392         7.17789
     2007.58659         4.01988         7.01498
     2007.58933        10.42485         7.03948
     2007.59206        10.07981         7.01498
     2007.59480        13.40177         7.11420
     2007.59754         9.07674         7.04560
     2007.60028        10.69170         6.93291
     2007.60302        12.35966         6.92924
     2007.60575        16.36563         6.97823
     2007.60849        11.33859         6.91576
     2007.61123        13.79856         6.93536
     2007.61397         1.80452         6.86922
     2007.61671         1.11948         7.40327
     2007.61944         9.40945         7.45349
     2007.62218         8.39241         7.30406
     2007.62492         9.75538         7.21831
     2007.62766         8.99234         7.34448
     2007.63039        16.31930         7.58701
     2007.63313         6.01327         7.26241
     2007.63587         8.71623         7.25261
     2007.63861         8.58919         7.26119
     2007.64135         6.84316         7.06520
     2007.64408        13.98112         7.34203
     2007.64682         8.40709         7.24159
     2007.64956         5.10905         7.43757
     2007.65230         5.91901         7.43022
     2007.65504         6.59698         7.35060
     2007.65777        14.08194         7.43022
     2007.66051        12.96791         7.41920
     2007.66325        15.42587         7.51719
     2007.66599        12.73083         7.39102
     2007.66872         9.97480         7.28446
     2007.67146        10.70676         7.28936
     2007.67420         5.09773         7.33590
     2007.67694        16.05969         7.31753
     2007.67968        10.27965         7.26119
     2007.68241        16.44262         7.24159
     2007.68515        18.76858         7.42655
     2007.68789        15.11054         7.44615
     2007.69063        12.41851         7.28813
     2007.69337        12.51447         7.24404
     2007.69610        15.59144         7.34693
     2007.69884        18.84740         7.32856
     2007.70158        16.77536         7.34080
     2007.70432        22.10933         7.62865
     2007.70705        15.50529         7.36653
     2007.70979        15.56926         7.29916
     2008.17797       -10.16792         6.93659
     2008.18070       -13.46896         6.85942
     2008.18344        -7.36800         6.95619
     2008.18618        -8.99203         6.91821
     2008.18892       -11.31407         6.91944
     2008.19165        -5.17811         6.96721
     2008.19439        -6.58314         6.89494
     2008.19713        -4.79518         7.04683
     2008.19987        -8.41421         6.96966
     2008.20261        -7.73925         6.93659
     2008.20534        -4.18929         6.94884
     2008.20808        -5.92032         7.18892
     2008.21082       -11.06036         7.14605
     2008.21356        -1.22439         7.11910
     2008.21629       -13.94043         7.11910
     2008.21903       -10.78347         7.10072
     2008.22177        -7.97150         7.04683
     2008.22451        -9.10954         7.03948
     2008.22725       -10.46158         7.10072
     2008.22998        -9.09561         7.33468
     2008.23272        -2.73065         7.21954
     2008.23546        -7.75068         7.16074
     2008.23820       -11.78172         7.02356
     2008.24094        -8.63576         7.06275
     2008.24367        -6.23579         7.00886
     2008.24641        -6.68183         6.98803
     2008.24915        -6.52086         6.94394
     2008.25189        -4.72390         7.11787
     2008.25462        -7.15594         6.96354
     2008.25736        -8.12497         7.02601
     2008.28748        -0.81637         8.11004
     2008.32307        -7.19984         7.20484
     2008.35593        -5.39127         6.96966
     2008.36140        -7.22735         8.31582
     2008.36688        -3.44742         7.02723
     2008.37509        -7.42353         6.88269
     2008.44080        -6.52339         7.06030
     2008.45175       -11.64954         7.07868
     2008.45996        -5.81665         6.91944
     2008.46818       -10.80876         6.93659
     2008.48187        -6.31894         6.96599
     2008.49282       -10.01108         6.99783
     2008.52020         0.49956         6.93659
     2010.32992        -6.95633         6.95496
     2010.33265        -4.13337         6.99171
     2010.33539        -5.87540         7.06030
     2010.33813        -5.33644         7.15707
     2010.34087        -8.52348         6.84962
     2010.34361        -1.71051         6.83737
     2010.34634        -7.22355         6.90842
     2010.34908        -5.32058         6.83002
     2010.35182        -2.81862         6.85085
     2010.35456        -3.80266         6.91821
     2010.35729        -2.37769         6.91576
     2010.36003        -0.93673         6.93904
     2010.36277        -2.46676         6.84227
     2010.36551        -6.22680         7.07745
     2010.36825        -2.92884         7.04560
     2010.37098        -3.15587         6.88759
     2010.37372         1.14809         6.87044
     2010.37646        -3.77595         6.86187
     2010.37920         1.37302         7.38245
     2010.38193        -6.80002         7.31018
     2010.38467        -1.91205         7.03580
     2010.38741        -0.52409         6.94639
     2010.39015         0.86787         7.00273
     2010.39289        -4.83816         7.00763
     2010.39562        -5.89020         7.13257
     2010.39836        -1.55323         6.90964
     2010.40110       -20.79027         6.96599
     2010.40384        -5.92531         6.79940
     2010.40658        -2.25334         6.79328
     2010.40931        -7.28538         6.81042
     2010.41205        -8.56642         6.80675
     2010.41479        -1.32545         6.77980
     2010.41753        -1.40149         6.89739
     2010.42026        -7.08252         6.83982
     2010.42300        -5.40956         6.98558
     2010.42574        -8.34660         6.82880
     2010.42848        -7.74863         6.97334
     2010.43122       -11.87867         6.89617
     2010.43395        -7.21070         6.76265
     2010.43669       -15.45474         6.97089
     2010.43943         1.03422         6.81410
     2010.44217        -5.80381         6.74795
     2010.44491        -9.18985         6.83615
     2010.44764       -17.13189         6.82757
     2010.45038        -5.02392         6.78960
     2010.45312        -6.15596         6.92189
     2010.45586        -6.54499         7.06888
     2010.45859       -10.64703         6.89494
     2010.46133        -3.28107         6.94884
     2010.46407        -2.81010         6.82512
     2010.46681       -13.05714         6.79450
     2010.46955        -6.70017         6.72958
     2010.47228       -12.58921         6.78838
     2010.47502        -9.76525         6.79940
     2010.47776        -9.00928         7.07255
     2010.48050       -10.44032         6.94026
     2010.48324        -5.48036         6.78470
     2010.48597        -6.95639         6.72468
     2010.48871        -1.29843         6.92556
     2010.49112        -8.37558         7.91528
     2012.03560        11.18815         6.77368
     2012.03833        10.31112         6.81042
     2012.04107         7.75908         6.73816
     2012.04381        11.93904         6.75040
     2012.04655         6.17901         6.81900
     2012.04929        22.19097         6.86309
     2012.05202        11.73594         6.85575
     2012.06845         1.90172         6.80185
     2012.07666         7.40961         6.81042
     2012.07940        10.19057         6.79205
     2012.08762        11.23947         6.80920
     2012.09035        10.72443         7.56251
     2012.09857        10.54632         6.86064
     2012.10131         9.94029         6.95006
     2014.04518         8.07463         6.94516
     2014.04792         4.07959         6.73816
     2014.05065         6.80555         6.71856
     2014.05339         3.98152         6.72468
     2014.05613         0.41248         6.74795
     2014.05887         3.06145         6.80430
     2014.06161         9.85241         6.73693
     2014.08624         6.40608         6.89004
     2014.10506        14.63671         7.87608
     2014.12455         9.81857         6.97823
     2015.71253         0.04662         6.84595
     2015.71527         4.64958         6.83737
     2015.71801         4.40554         6.86309
     2015.72074         8.08551         6.84227
     2015.72348         0.85047         6.90229
     2015.72622         0.07444         6.86187
     2015.72896         1.34040         6.86799
     2015.73170         1.90936         6.94271
     2015.73443         7.86933         6.92066
     2015.73717        -1.76471         6.92189
     2015.73991         8.40426         7.05908
     2015.74265         8.23622         7.12155
     2015.74538         9.78718         7.41552
     2015.74812         1.39615         7.25874
     2015.75086        -4.04389         6.88269
     2015.75360         2.82207         6.92924
     2015.75634         5.86104         6.93659
     2015.75907         5.15800         6.83615
     2015.76181        -0.67203         6.89004
     2015.76455        -1.71307         6.90474
     2015.76729         0.48789         6.88882
     2015.77003        -1.64714         6.92311
     2015.77276         5.43282         6.85330
     2015.77550         2.33579         6.87779
     2015.77824         6.39575         6.89004
     2015.78098         4.92271         6.90964
     2015.78371         3.60868         6.87779
     2015.78645         2.28964         6.88637
     2015.78919        -1.70840         6.88024
     2015.79193         4.78257         6.99171
     2015.79467         2.02853         7.10195
     2015.79740         2.63650         6.89494
     2015.80014         4.05946         7.08358
     2015.80288         1.76142         6.84472
     2015.80562         3.95939         6.89127
     2015.80836         3.12435         6.90964
     2015.81109        -1.82068         6.89984
     2015.81383        -0.52472         6.95374
     2015.81657         1.50124         6.88514
     2015.81931         4.50921         6.93659
     2015.82204         0.12717         6.91576
     2015.82478         1.86113         6.88882
     2015.82752         2.25810         6.95006
     2015.83026         0.44106         6.91454
     2015.83300         2.88903         6.91332
     2015.83552        -7.11309         7.80259
     2015.84942         1.61281         8.08432
     2015.85216        -0.86123         7.89936
     2018.62834        -0.49487         6.86064
     2018.63108         5.13309         6.76020
     2018.63382         3.17905         6.86309
     2018.63656         4.64702         6.75653
     2018.63929         3.30298         7.01253
     2018.64203         4.68395         7.10685
     2018.64477        10.22091         6.77368
     2018.64751         1.82887         6.81655
     2018.65024         5.00584         6.74060
     2018.65298         8.52180         6.77368
     2018.65572         6.14277         6.70753
     2018.65846         3.85273         6.70508
     2018.66120         7.44269         6.85085
     2018.66393         9.21866         6.80920
     2018.66667         5.73062         6.70386
     2018.66941         4.62158         6.68303
     2018.67215         4.51555         6.74918
     2018.67488         4.98751         6.73203
     2018.67762         4.50748         6.79205
     2018.68036         3.70044         6.99661
     2018.68310        -0.69860         6.79695
     2018.68584         3.73237         6.81410
     2018.68857         3.44133         6.77368
     2018.69131         6.21830         6.75775
     2018.69405         4.63626         7.08848
     2018.69679         7.19922         6.91576
     2018.69953         2.91119         6.75898
     2018.70226         0.86015         6.97578
     2018.70500        -2.58889         6.93046
     2018.70774         4.69008         6.79205
     2018.71048         2.81304         6.79573
     2018.71321         6.72501         6.76510
     2018.71595         4.66697         6.81777
     2018.71869        -2.41807         6.77000
     2018.72143        -1.80610         6.78103
     2018.72417         4.12086         6.79205
     2018.72690         6.35483         6.75163
     2018.72964         4.31779         6.79940
     2018.73238         0.31275         6.81655
     2018.73512         0.01672         6.76633
     2018.73786         2.00068         6.76265
     2018.74059        -0.78236         6.77735
     2018.74333         9.64961         6.98313
     2018.74607         9.95757         6.84962
     2018.74881         3.15254         6.83370
     2018.75154         3.10650         6.79940
     2018.75428         4.62946         6.74428
     2018.75702         6.20443         6.91087
     2018.75976         0.49739         6.81777
     2018.76250         4.14036         6.79573
     2018.76523         1.48932         6.93536
     2018.76797         7.77428         6.73693
     2018.77071         5.25125         6.80675
     2018.77345         9.47721         6.75163
     2018.77619         7.56218         6.77123
     2018.77892         8.00114         6.81410
     2018.78166         6.96510         6.85697
     2018.78440         8.11007         6.74305
     2018.78714         4.70503         6.70263
     2018.78987         1.33499         6.93291
     2018.79261         1.89596         6.79940
     2018.79535         8.42692         6.71856
     2018.79809         0.01189         6.68671
     2018.80083         6.81385         6.69283
     2018.80356         5.25981         6.73203
     2018.80630         5.21178         6.93536
     2018.80904         1.50074         6.77368
     2018.81178         1.54771         7.08480
     2018.81452         0.47667         6.75163
     2018.81725         3.58063         6.76143
     2018.81999         3.54060         6.76265
     2018.82273         6.54056         6.90107
     2018.82547         0.93152         6.88759
     2018.82820         6.92249         6.75040
     2018.83094         3.42245         6.75285
     2018.83368        -0.18658         6.74918
     2018.83642         5.75238         6.71978
     2018.83916         3.54234         6.77000
     2018.84189         3.16031         6.76633
     2018.84463         4.99527         6.77735
     2018.84737         3.62524         6.72591
     2018.85011         4.73820         6.69651
     2018.85285         4.83316         6.72958
     2018.85558         0.84513         6.72346
     2018.85832         3.26709         6.78715
     2018.86106         5.12205         6.77735
     2018.86380         4.37602         6.79450
     2018.86653         6.60398         6.72346
     2018.86927        -3.62305         6.74918
     2018.87201         1.77591         6.74183
     2018.87475         4.01987         6.77245
     2018.87749         4.34584         6.80430
     2018.88022         4.63280         6.76020
     2018.88296         5.22377         6.77980
     2018.88570         3.86973         6.80552
     2018.88844        11.25869         6.98803
     2018.89118        -0.43434         6.98436
     2018.89391         3.95962         6.84227
     2018.89665        -0.11842         6.97456
     2018.89939         4.27355         6.77613
     2018.90213         3.83151         6.79205
     2018.90486         7.96048         6.88392
     2018.90760         1.23744         6.84227
     2018.91034         8.34740         6.83125
     2018.91308         9.82237         6.90719
     2018.91582         9.18933         6.80307
     2018.91855        14.11030         6.78348
     2018.92129         9.98126         6.81410
     2018.92403         8.97622         6.80062
     2018.92677         9.49519         6.79083
     2018.92951         9.60415         6.74673
     2018.93224        -4.92888         6.93781
     2018.93498        -1.36692         6.80675
     2018.97605        -3.03546         6.77858
     2018.97879         1.79750         6.73203
     2018.98152       -12.84954         6.94271
     2018.98426         2.61343         6.90964
     2018.98700        -1.44661         6.86922
     2018.98974         3.53936         6.80552
     2018.99248         2.81432         6.78103
     2018.99521         1.04628         6.81900
     2018.99795        -3.26375         6.89372
     2019.00069        -2.28879         6.81165
     2019.00343        -3.75782         6.80920
     2019.00616        -2.50086         6.76265
     2019.00890         3.87310         6.77490
     2019.01164         2.25307         6.75040
     2019.01438         3.92003         6.74550
     2019.01712         8.83099         6.77735
     2019.01985         0.77396         6.73938
     2019.02259        -0.69208         6.91944
     2019.02533        -0.10711         6.91454
     2019.02807         4.69085         6.85819
     2019.03081         2.88381         6.85819
     2019.03354        -7.19422         6.76143
     2019.03628        -6.00626         6.79328
     2019.03902        -0.59529         6.79940
     2019.04176       -11.35133         6.92189
     2019.04449       -16.25337         6.82022
     2019.04723        -5.74540         6.91454
     2019.04997        -5.85544         6.88392
     2019.05271       -13.19148         7.23301
     2019.05545       -14.05551         7.15584
     2019.09925        -8.46909         6.73448
     2019.10199       -12.27113         6.76755
     2019.10473       -10.71716         6.70753
     2019.10747        -1.26120         6.70263
     2019.11020        -9.28523         6.67324
     2019.11294        -7.01627         6.80552
     2019.11568        -6.88031         7.04193
     2019.11842         5.95066         6.90107
     2019.12115        11.47062         7.18157
     2019.12389         4.26959         6.92434
     2019.12663         2.37055         6.73448
     2019.12937         0.01951         6.75408
     2019.13211        -0.94752         6.75898
     2019.13484        -3.96456         6.78715
     2019.13758         3.64040         6.74795
     2019.14032         5.85537         6.78103
     2019.14306        -2.20267         6.75040
     2019.14580        -5.07670         6.75040
     2019.14853        -3.79974         6.75898
     2019.15127         2.18422         6.82390
     2019.15401        -9.66281         6.93659
     2019.15675        -6.13585         7.09460
     2019.15948        -4.81788         6.86677
     2019.16222        -9.39892         6.80920
     2019.16496       -10.81396         6.77613
     2019.16770       -20.92299         6.79573
     2019.17044       -14.23503         6.78103
     2019.17317        -7.22007         6.75163
     2019.17591        -6.66210         6.81900
     2019.17865        -1.97514         6.72591
     2019.18139        -4.93017         6.77613
     2019.18413       -16.73121         6.81410
     2019.18686        -4.10025         6.77490
     2019.18960        -7.02528         6.75163
     2019.19234        -3.03232         6.83492
     2019.19508        -6.15435         6.81777
     2019.19781        -7.73839         6.74673
     2019.20055        -6.80543         6.94394
     2019.20329       -11.39246         6.73816
     2019.20603        -8.84850         6.75163
     2019.20877       -13.79454         6.76143
     2019.21150       -12.08157         6.73203
     2019.21424        -8.75261         6.81165
     2019.21698        -7.12464         6.72836
     2019.21972        -8.06968         6.96966
     2019.22246       -13.43872         6.84350
     2019.22519        -6.77775         6.68671
     2019.22793        -7.19379         6.83002
     2019.23067       -15.94682         6.86799
     2019.23341       -14.16086         6.83002
     2019.23614        -9.64490         6.80552
     2019.23888        -9.50793         6.78593
     2019.24162       -10.22497         6.86432
     2019.24436        -9.12700         6.86309
     2019.24710       -11.85504         6.74305
     2019.24983        -6.07608         6.83615
     2019.25257        -5.75511         6.92924
     2019.25531        -6.69815         6.83982
     2019.25805        -1.40319         6.75040
     2019.26079         0.09878         6.82880
     2019.26352        -5.86526         6.98313
     2019.26626        -6.97429         6.98436
     2019.26900        -7.36233         6.89617
     2019.27174        -6.91737         7.12645
     2019.27447        -6.43040         6.68181
     2019.27721        -3.92344         6.91209
     2019.27995        -1.54847         6.76755
     2019.28269        -9.98751         6.83125
     2019.28543         0.84045         6.84472
     2019.28816        -3.82058         6.77490
     2019.29090        -7.89162         6.75163
     2019.29364        -8.45766         6.75530
     2019.29638        -0.63269         6.93291
     2019.29911        -0.91273         6.89739
     2019.30185        -3.82476         6.84840
     2019.30459        -6.85680         6.74183
     2019.30733        -7.70484         6.77123
     2019.31007        -0.94987         6.96109
     2019.31280        -3.31191         6.96476
     2019.31554         3.10906         6.81042
     2019.31828        -1.03798         6.73081
     2019.32102        -0.58302         6.78838
     2019.32376       -10.04205         6.81777
     2019.32649        -7.69109         6.82880
     2019.32923        -4.21813         6.73816
     2019.33197        -7.38416         6.84350
     2019.33471        -3.28920         6.89249
     2019.33744        -3.61923         6.81777
     2019.34018        -4.36527         6.85085
     2019.34292         0.67869         6.75285
     2019.34566        -0.86734         6.80552
     2019.34840        -7.04238         6.81655
     2019.35113        -3.19341         6.75285
     2019.35387        -6.36045         6.81900
     2019.35661         1.54051         6.76265
     2019.35935         1.48848         6.79205
     2019.36209         4.76244         6.75530
     2019.36482         4.50040         6.83370
     2019.36756        -2.96563         6.77490
     2019.37030         4.48233         6.85697
     2019.37304        -0.49170         6.76143
     2019.37577        -0.09174         6.93781
     2019.37851         4.47422         6.77735
     2019.38125         8.06619         6.74428
     2019.38399        -3.30485         6.80430
     2019.38673        -0.08688         6.77735
     2019.38946        -0.21992         6.80185
     2019.39212        -2.09498         6.97089
