# ================= DQRFIT RESULTS ================
# INPUT FILE: series/MRIB.rad
# OUTPUT: LDETRENDED
# FILTER FUNCTION: f(t)
# f(t)=+line(t)+annual(t)
# line(t)=+P 1+P 2*t
# annual(t)=+P 3*sin(2*pi*t+P 4)
# heav(t)=(t<0?0:1)
# TOTAL OBSERVATIONS MTOT= 1167
# INITIAL TIME INTERVAL= 2022.7488 - 2019.5537 =  3.1951
# TOTAL OBSERVATIONS AFTER PREFILTER M= 1166
# TIME-SPAN= 2022.7488 - 2019.5537 =  3.1951
# OBSERVATIONS: USED M=  1166 REJECTED MTOT-M=     1 %USED=   99.9143
# N=  4 PARAMETERS
# MAXSIG= 175.00000
# MAXRES=  15.12597
# SCALE FACTOR FOR LENGTHS: SCL=  10.00000
# SCALE FACTOR FOR SIGMAS: SCLSIG=   1.00000
# CHI^2=    881.382 DOF=  1162 CHI^2/DOF=   0.75850
# RMS=      4.622 SDEV=      4.624 MEAN=   -0.00068
#  P #       PARAMETER +-    SIGMA %error PARAMETER NAME
# P 1 =     -5760.42375 +-  301.256   5.23 YZERO                              
# P 2 =         2.85813 +-    0.149   5.22 SLOPE                              
# P 3 =         5.72826 +-    0.192   3.35 ANNUAL AMPLITUDE                   
# P 4 =         2.99526 +-    0.047   1.56 ANNUAL PHASE                       
#       T            LDETRENDED       SIG_OBS
     2019.55373         5.06326         4.67946
     2019.55646         5.51944         4.67424
     2019.55920        -0.48339         4.79791
     2019.56194         2.06879         4.60456
     2019.56468        -0.22904         4.67685
     2019.56741         5.64514         4.69340
     2019.57015        -0.38969         4.54708
     2019.57289        -1.35051         4.64724
     2019.57563         5.29266         4.60805
     2019.57837         2.56284         4.66988
     2019.58110         3.54301         4.58540
     2019.58384        -0.99381         4.80052
     2019.58658         1.81336         4.55318
     2019.58932         8.65854         4.54011
     2019.59206         9.01371         4.61327
     2019.59479         3.02689         4.59847
     2019.59753         6.93606         4.76394
     2019.60027         1.43724         4.72998
     2019.60301         0.22741         4.52792
     2019.60574         8.84759         4.71256
     2019.60848         4.47776         4.78571
     2019.61122         0.18494         4.59411
     2019.61396         0.13711         4.70994
     2019.61670        -0.80772         4.54447
     2019.61943         3.74646         4.58976
     2019.62217         3.69663         4.75872
     2019.62491         7.60281         4.59324
     2019.62765         7.08598         4.59847
     2019.63039         9.54616         4.59498
     2019.63312         0.28033         4.54360
     2019.63586         8.82351         4.70820
     2019.63860         5.27568         4.67685
     2019.64134        10.81886         4.85190
     2019.64407         0.30403         4.64550
     2019.64681         0.42621         4.58889
     2019.64955         2.96738         4.54795
     2019.65229         4.28856         4.60369
     2019.65503         4.15073         4.74304
     2019.65776         0.12491         4.67511
     2019.66050         4.47708         4.65159
     2019.66324        -1.19574         4.62459
     2019.66598         6.35943         4.60892
     2019.66872         8.89561         4.60718
     2019.67145         2.17578         4.59585
     2019.67419         0.25796         4.60195
     2019.67693         3.61413         4.67424
     2019.67967         1.01731         4.66117
     2019.68240         1.79448         4.64550
     2019.68514         5.91866         4.63679
     2019.68788         7.36783         4.71169
     2019.69062         4.93101         4.64637
     2019.69336         1.72718         4.54186
     2019.69609         6.39836         4.57321
     2019.69883         4.84753         4.70211
     2019.70157         1.42571         4.68817
     2019.70431         6.94288         4.65333
     2019.70705         6.97106         4.63069
     2019.70978         2.58723         4.62198
     2019.71252         1.13640         4.54099
     2019.71526         7.07958         4.57756
     2019.71800         9.40575         4.74739
     2019.72073         3.34293         4.80575
     2019.72347         9.21910         4.63504
     2019.72621         7.02728         4.59063
     2019.72895         2.28945         4.59411
     2019.73169         2.84263         4.59324
     2019.73442        -1.13620         4.66204
     2019.73716         6.81598         4.59324
     2019.73990         8.67415         4.67249
     2019.74264         4.45133         4.59585
     2019.74538         4.28950         4.54795
     2019.74811         4.33968         4.66640
     2019.75085         4.74085         4.64288
     2019.75359         7.25703         4.79965
     2019.75633         4.03420         4.62198
     2019.75906         3.06538         4.52792
     2019.76180         4.98955         4.56711
     2019.76454         7.58073         4.60718
     2019.76728         5.89290         4.58801
     2019.77002         4.72708         4.55057
     2019.77275         3.38925         4.71604
     2019.77549         5.01243         4.64201
     2019.77823         5.66160         4.59585
     2019.78097         8.96978         4.55057
     2019.78371         7.95495         4.54708
     2019.78644         4.15213         4.62111
     2019.78918         8.73530         4.68556
     2019.79192        13.98548         4.56189
     2019.79466        11.16265         4.60195
     2019.79739         7.50483         4.53315
     2019.80013         9.37100         4.57321
     2019.80287         6.15317         4.55318
     2019.80561         3.18635         4.63330
     2019.80835         3.26552         4.54099
     2019.81108         3.09870         4.58976
     2019.81382         2.37487         4.67337
     2019.81656         7.54005         4.56276
     2019.81930         1.29522         4.55231
     2019.82203         5.36440         4.56711
     2019.82477         2.16957         4.61153
     2019.82751        -0.34825         4.58192
     2019.83025        -0.23508         4.66378
     2019.83299         4.71510         4.65682
     2019.83572         5.97727         4.55057
     2019.83846         8.52845         4.57060
     2019.84120         7.29162         4.57495
     2019.84394         5.99480         4.66030
     2019.84668         1.85197         4.55405
     2019.84941         8.08015         4.56102
     2019.85215         7.11032         4.59585
     2019.85489         5.78850         4.54534
     2019.85763         6.21867         4.51660
     2019.86036         8.01985         4.57060
     2019.86310         7.46602         4.55927
     2019.86584        10.05320         4.61327
     2019.86858        10.62237         4.61937
     2019.87132         7.44355         4.66117
     2019.87405        10.17072         4.51486
     2019.87679         7.82890         4.69078
     2019.87953        14.01907         4.62024
     2019.88227        15.89125         4.54969
     2019.88501        14.37642         4.64637
     2019.88774        12.29460         4.74391
     2019.89048        13.83077         4.54708
     2019.89322        12.32495         4.54882
     2019.89596        -0.94388         4.57147
     2019.89869         5.29629         4.53576
     2019.90143         6.93647         4.53402
     2019.90417         2.47864         4.61153
     2019.90691         4.34482         4.59411
     2019.90965         4.33099         4.56537
     2019.91238         4.95717         4.56624
     2019.91512         8.63334         4.52792
     2019.91786        14.86752         4.60456
     2019.92060         8.59669         4.61588
     2019.92334        13.00187         4.60630
     2019.92607         6.53904         4.62285
     2019.92881         7.40322         4.60282
     2019.93155         7.77039         4.58801
     2019.93429         9.10657         4.62111
     2019.93702         3.99974         4.62111
     2019.93976         4.84492         4.69078
     2019.94250         1.70209         4.64375
     2019.94524        -2.37973         4.62459
     2019.94798        -2.01156         4.59150
     2019.95071         4.42062         4.80400
     2019.95345         5.38279         4.61850
     2019.95619         5.80397         4.59324
     2019.95893         1.82814         4.61501
     2019.96167         0.37932         4.61066
     2019.96440         4.17349         4.70559
     2019.96714         1.35867         4.71430
     2019.96988         1.55284         4.59759
     2019.97262         1.86302         4.59585
     2019.97535         0.55919         4.60021
     2019.97809        -1.34963         4.59672
     2019.98083         1.37854         4.58366
     2019.98357        -1.77328         4.56450
     2019.98631         0.66589         4.61763
     2019.98904        -0.24493         4.61414
     2019.99178         1.96124         4.55492
     2019.99452         1.11841         4.55318
     2020.00000        13.70276         4.56015
     2020.00273         2.12394         4.54273
     2020.00547         4.14011         4.70036
     2020.00821        -0.52971         4.73259
     2020.01095         1.81446         4.74914
     2020.01368        -2.03836         4.60892
     2020.01642         0.47081         4.66727
     2020.01916        -0.62001         4.60195
     2020.02190        -4.70784         4.64027
     2020.02464        -2.73866         4.68991
     2020.02737         0.81551         4.56537
     2020.03011        -2.01531         4.53837
     2020.03285        -9.47814         4.53837
     2020.03559        -1.97896         4.48960
     2020.03833        -3.78979         4.46434
     2020.04106        -4.37461         4.60543
     2020.04380        -6.25644         4.57582
     2020.04654        -3.05126         4.52270
     2020.04928        -5.01609         4.52531
     2020.05201        -6.28591         4.53837
     2020.05475        -5.09274         4.55753
     2020.05749        -6.02556         4.47828
     2020.06023        -1.96039         4.45302
     2020.06297        -7.65321         4.54011
     2020.06570        -3.98204         4.51312
     2020.06844         0.00314         4.55144
     2020.07118         2.69731         4.48263
     2020.07392         1.06749         4.49308
     2020.07666         1.92966         4.54534
     2020.07939        -5.67716         4.52879
     2020.08213        -2.12899         4.52444
     2020.08487        -3.55281         4.51486
     2020.08761        -3.23964         4.45389
     2020.09034        -1.91247         4.50615
     2020.09308        -2.41229         4.52008
     2020.09582         1.00488         4.54011
     2020.09856         1.97306         4.51137
     2020.10130        -1.24377         4.51399
     2020.10403         0.16241         4.54011
     2020.10677        -2.89842         4.50528
     2020.10951       -10.12624         4.53576
     2020.11225        -2.95207         4.47828
     2020.11498        -1.81189         4.47828
     2020.11772        -2.41072         4.63330
     2020.12046        -5.69654         4.63592
     2020.12320        -3.94737         4.50354
     2020.12594        -5.45919         4.49221
     2020.12867        -9.19702         4.47480
     2020.13141        -3.70284         4.46870
     2020.13415        -4.44467         4.49221
     2020.13689        -3.18149         4.57931
     2020.13963        -4.39432         4.57582
     2020.14236        -1.50214         4.51660
     2020.14510        -1.27997         4.52444
     2020.14784       -12.95879         4.49221
     2020.15058        -6.01362         4.51747
     2020.15331        -7.81644         4.48699
     2020.15605        -3.13127         4.53924
     2020.15879        -3.91009         4.49918
     2020.16153        -2.53892         4.49483
     2020.16427        -2.10674         4.50963
     2020.16700         0.99443         4.49134
     2020.16974        -0.19939         4.53576
     2020.17248        -2.25822         4.54621
     2020.17522        -5.27504         4.49221
     2020.17796        -3.67387         4.52792
     2020.18069        -6.65169         4.47218
     2020.18343        -2.38652         4.45215
     2020.18617        -3.26835         4.52008
     2020.18891        -4.51817         4.53489
     2020.19164       -10.03700         4.54534
     2020.19438        -7.62882         4.49744
     2020.19712        -7.08465         4.53053
     2020.19986        -8.63747         4.56450
     2020.20260        -9.26830         4.55927
     2020.20533        -9.63312         4.53750
     2020.20807        -5.64495         4.54882
     2020.21081        -7.47277         4.51137
     2020.21355        -7.18960         4.94074
     2020.21629        -3.29842         4.77875
     2020.21902        -3.59925         4.63592
     2020.22176        -6.97707         4.52879
     2020.22450        -1.81190         4.49831
     2020.22724        -2.06672         4.50963
     2020.22997        -1.63555         4.54099
     2020.23271        -3.63537         4.54969
     2020.23545        -1.35520         4.60282
     2020.23819        -5.73802         4.52618
     2020.24093        -5.15885         4.54186
     2020.24366        -2.79767         4.59585
     2020.24640        -4.43550         4.54882
     2020.24914       -10.10532         4.54273
     2020.25188        -7.40115         4.62895
     2020.25462        -4.45597         4.61588
     2020.25735        -2.84780         4.55666
     2020.26009         2.82838         4.50702
     2020.26283         0.97855         4.53750
     2020.26557        -5.62627         4.55057
     2020.26830        -5.11210         4.52618
     2020.27104        -4.75292         4.55840
     2020.27378        -2.40675         4.55405
     2020.27652        -1.57957         4.59411
     2020.27926        -3.12340         4.63679
     2020.28199        -4.82323         4.62808
     2020.28473       -10.98805         4.57495
     2020.28747       -10.00988         4.57234
     2020.29021        -2.07170         4.53053
     2020.29295        -6.87753         4.53837
     2020.29568         2.49065         4.54186
     2020.29842        -1.62818         4.52879
     2020.30116        -0.69600         4.52531
     2020.30390        -2.88483         4.54011
     2020.30663        -1.80265         4.54534
     2020.30937        -3.06648         4.66727
     2020.31211        -7.03530         4.66466
     2020.31485        -6.16313         4.63069
     2020.31759        -6.23295         4.51399
     2020.32032        -4.03578         4.50789
     2020.32306        -6.12860         4.50528
     2020.32580        -3.12043         4.55840
     2020.32854        -9.73125         4.54795
     2020.33128        -5.90708         4.49134
     2020.33401        -5.45290         4.51050
     2020.33675        -4.45473         4.50528
     2020.33949        -2.91355         4.50179
     2020.34223        -2.13138         4.61850
     2020.34496        -8.20020         4.57408
     2020.34770       -11.06803         4.50528
     2020.35044        -6.22985         4.58105
     2020.35318        -8.11768         4.60979
     2020.35592        -9.08950         4.58627
     2020.35865        -2.35233         4.53228
     2020.36139        -1.71115         4.52792
     2020.36413        -1.62898         4.50441
     2020.36687        -4.20480         4.55666
     2020.36961        -9.47863         4.58801
     2020.37234        -0.46745         4.52792
     2020.37508        -1.73528         4.51137
     2020.37782        -2.26911         4.51660
     2020.38056        -5.23193         4.50615
     2020.38329        -5.47176         4.54534
     2020.38603         0.34742         4.54534
     2020.38877        -2.43141         4.61588
     2020.39151        -6.14223         4.48438
     2020.39425        -6.75906         4.50876
     2020.39698        -6.43388         4.54186
     2020.39972        -1.29271         4.51834
     2020.40246        -2.71153         4.50179
     2020.40520        -6.01936         4.59237
     2020.40794         0.02082         4.54186
     2020.41067       -10.45001         4.62024
     2020.41341        -2.37083         4.58627
     2020.41615        -3.42866         4.51486
     2020.41889        -0.70448         4.52879
     2020.42162        -3.14631         4.51312
     2020.42436        -3.69313         4.69601
     2020.42710        -3.66096         4.71169
     2020.42984        -2.21278         4.54621
     2020.43258         0.29339         4.50005
     2020.43531        -8.10143         4.56973
     2020.43805        -3.51826         4.57669
     2020.44079        -7.29708         4.56624
     2020.44353        -1.36491         4.61327
     2020.44626        -4.86073         4.62546
     2020.44900        -1.07456         4.58453
     2020.45174        -1.17238         4.59150
     2020.45448        -2.88221         4.57756
     2020.45722        -5.33703         4.57147
     2020.45995        -0.61686         4.53053
     2020.46269        -7.76968         4.57931
     2020.46543        -0.05751         4.56885
     2020.46817         3.38667         4.56973
     2020.47091        -1.95116         4.59672
     2020.47364        -2.00299         4.58976
     2020.47638        -2.64081         4.64114
     2020.47912         1.15636         4.76568
     2020.48186        -2.00946         4.62459
     2020.48459        -5.76529         4.76307
     2020.48733        -1.47811         4.70646
     2020.49007         2.22006         4.66727
     2020.49281         2.91524         4.61588
     2020.49555         0.93341         4.68382
     2020.49828        -0.65241         4.56973
     2020.50102        -5.98024         4.59063
     2020.50376        -4.52506         4.60021
     2020.50650        -4.94189         4.53402
     2020.50924        -4.42471         4.54621
     2020.51197        -5.26454         4.59672
     2020.51471        -3.03736         4.57234
     2020.51745        -0.08419         4.59324
     2020.52019         3.00299         4.69949
     2020.52292        -0.05484         4.54534
     2020.52566         1.66134         4.57843
     2020.52840         3.31451         4.56015
     2020.53114        -0.81731         4.56711
     2020.53388        -1.62314         4.58105
     2020.53661         1.73104         4.67685
     2020.53935        -1.12879         4.63766
     2020.54209         0.65939         4.59411
     2020.54483        -4.10744         4.57843
     2020.54757         4.68274         4.55753
     2020.55030         1.00891         4.55492
     2020.55304         1.23909         4.60805
     2020.55578         2.70426         4.56015
     2020.55852         3.14544         4.57495
     2020.56125         3.75161         4.57060
     2020.56399         1.77079         4.54273
     2020.56673        -1.48804         4.52879
     2020.56947         3.82113         4.66901
     2020.57221        -0.31569         5.04438
     2020.57494         0.34948         4.69688
     2020.57768         2.68866         4.74043
     2020.58042         3.18083         4.74826
     2020.58316         3.29801         4.72562
     2020.58590         3.06718         4.73346
     2020.58863         2.29236         4.64724
     2020.59137         3.09653         4.66901
     2020.59411         5.59171         4.72736
     2020.59685         8.62988         4.89022
     2020.59958         4.40306         4.81968
     2020.60232         6.87623         4.66727
     2020.60506         0.26341         4.66291
     2020.60780        -2.49042         4.86671
     2020.61054        14.50276         4.71952
     2020.61327        10.35993         4.69949
     2020.61601        -1.91589         4.69078
     2020.61875         0.51428         4.69688
     2020.62149        -0.18754         4.69949
     2020.62423         1.44663         4.82752
     2020.62696         5.06281         4.84929
     2020.62970        -1.61702         4.72823
     2020.63244         3.17716         4.74826
     2020.63518         5.88833         4.85452
     2020.63791         7.75651         4.96338
     2020.64065        -0.57232         4.71430
     2020.64339        -3.30914         4.65943
     2020.64613         0.72303         4.65420
     2020.64887         4.29521         4.63156
     2020.65160         2.19638         4.69427
     2020.65434         0.04856         4.67859
     2020.65708         3.66573         4.72910
     2020.65982         4.84191         4.73172
     2020.66256         1.31008         4.62546
     2020.66529         7.39925         4.65856
     2020.66803         6.81943         4.67249
     2020.67077         7.81860         4.79355
     2020.67351         8.79078         4.67946
     2020.67624         7.69295         4.67424
     2020.67898         1.63013         4.68120
     2020.68172        -1.42870         4.77004
     2020.68446         5.00548         4.83449
     2020.68720         2.21065         4.71343
     2020.68993         1.31583         4.64114
     2020.69267         4.57600         4.73433
     2020.69541         5.61618         4.92245
     2020.69815         3.68235         4.73607
     2020.70089         0.94453         4.67337
     2020.70362         2.60770         4.66466
     2020.70636         3.47988         4.94509
     2020.70910         2.71305         5.03393
     2020.71184         9.87523         4.79965
     2020.71457         8.98640         4.74130
     2020.71731         3.94158         4.78571
     2020.72005         1.27775         4.81358
     2020.72279        -1.39307         4.73346
     2020.72553         5.23010         4.77962
     2020.72826         8.95128         4.97819
     2020.73100         4.12645         4.93116
     2020.73374        11.64863         4.78746
     2020.73648         7.40480         4.69775
     2020.73921         8.40198         4.68120
     2020.74195         7.90415         4.65595
     2020.74469         5.30433         4.66988
     2020.74743         8.19850         4.67075
     2020.75017         8.01768         4.67859
     2020.75290         6.34885         4.60195
     2020.75564         3.76903         4.61414
     2020.75838         6.02420         4.76394
     2020.76112        -0.34363         4.65420
     2020.76386         6.96355         4.64114
     2020.76659         8.81672         4.67075
     2020.76933        12.26290         4.69775
     2020.77207         4.80007         4.69078
     2020.77481         6.72125         4.76394
     2020.77754         9.25742         4.63417
     2020.78028         8.16560         4.71604
     2020.78302         8.08577         4.71517
     2020.78576         4.44095         4.67424
     2020.78850         1.31612         4.65943
     2020.79123         6.39330         4.65943
     2020.79397         1.93647         4.67162
     2020.79671         4.77165         4.72127
     2020.79945         4.36582         4.64985
     2020.80219        -1.73500         4.78746
     2020.80492         3.98317         4.65682
     2020.80766         0.98635         4.67772
     2020.81040         5.30152         4.67337
     2020.81314         4.58870         4.64724
     2020.81587         2.86987         4.65682
     2020.81861         7.71705         4.66901
     2020.82135         4.40922         4.65072
     2020.82409         8.26940         4.64375
     2020.82683         6.78957         4.66553
     2020.82956         2.12175         4.81097
     2020.83230         7.07192         4.77352
     2020.83504         4.13010         4.76046
     2020.83778         1.98027         4.68643
     2020.84052         9.99245         4.75436
     2020.84325         6.66462         4.90242
     2020.84599         6.45980         4.97209
     2020.84873         8.73397         4.59847
     2020.85147         2.42515         4.58366
     2020.85420        12.24332         4.55492
     2020.85694        10.25049         4.65246
     2020.85968        14.18567         4.61240
     2020.86242        12.55484         4.58540
     2020.86516        10.17002         4.78658
     2020.86789        10.43819         4.73259
     2020.87063        17.94937         4.57321
     2020.87337        14.49054         4.66901
     2020.87611        10.71272         4.72475
     2020.87885         9.22389         4.75610
     2020.88158        10.60707         4.67859
     2020.88432        11.46624         4.61414
     2020.88706         4.69142         4.78920
     2020.88980         8.90359         4.67772
     2020.89253         9.93777         4.66204
     2020.89527         8.06794         4.73781
     2020.89801        11.71012         4.78223
     2020.90075         8.52829         4.60892
     2020.90349        11.31147         4.69427
     2020.90622         5.71664         4.62982
     2020.90896         2.33782         4.81533
     2020.91170         7.08499         4.80662
     2020.91444         4.71917         4.70385
     2020.91718         1.40134         4.67511
     2020.91991        -1.33548         4.62895
     2020.92265         3.33169         4.67859
     2020.92539        -2.82113         4.61676
     2020.92813         0.66604         4.59063
     2020.93086        -5.25278         4.71691
     2020.93360         1.56239         4.64550
     2020.93634        -0.10843         4.69775
     2020.93908        -3.11726         4.60456
     2020.94182        -0.37808         4.58540
     2020.94455        -0.48291         4.57147
     2020.94729        -4.88773         4.57931
     2020.95003        -5.04656         4.62198
     2020.95277        -7.75839         4.58279
     2020.95551         0.29979         4.59237
     2020.95824        -3.56004         4.58889
     2020.96098         1.25014         4.62459
     2020.96372         2.42331         4.59411
     2020.96646         1.73149         4.73346
     2020.96919         3.13466         4.66640
     2020.97193         1.09384         4.54186
     2020.97467        -1.42399         4.62634
     2020.97741        -6.45881         4.65769
     2020.98015        -1.04164         4.78833
     2020.98288        -7.15646         4.73868
     2020.98562         4.26171         4.54795
     2020.98836         5.98289         4.55753
     2020.99110         2.05906         4.52270
     2020.99384         2.13724         4.56276
     2020.99657         5.42741         4.59063
     2020.99931         5.08259         4.55666
     2021.00205         1.08576         4.52705
     2021.00479        11.66794         4.53053
     2021.00752         8.12411         4.55492
     2021.01026         5.08729         4.60979
     2021.01300         3.56446         4.55057
     2021.01574        -4.26336         4.58976
     2021.01848         1.37081         4.49396
     2021.02121        -3.75801         4.57669
     2021.02395        -1.01984         4.55840
     2021.02669        -7.00566         4.55840
     2021.02943        -5.93549         4.57321
     2021.03216         2.45769         4.57495
     2021.03490         7.52586         4.57495
     2021.03764        -3.10396         4.58801
     2021.04038        -2.77079         4.58279
     2021.04312        -0.35362         4.55231
     2021.04585        -1.45844         4.55144
     2021.04859        -2.26427         4.54708
     2021.05133        -1.42009         4.60456
     2021.05407        -1.27592         4.77526
     2021.05681        -1.09574         4.68556
     2021.05954        -5.22457         4.55405
     2021.06228        -7.05239         4.56189
     2021.06502        -0.79222         4.54534
     2021.06776         4.71396         4.56363
     2021.07049        -1.01687         4.56189
     2021.07323        -2.20869         4.54534
     2021.07597        -4.53352         4.62198
     2021.07871        -4.02334         4.64811
     2021.08145        -4.96617         4.53228
     2021.08418        -4.40899         4.55492
     2021.08692        -2.81582         4.53663
     2021.08966        -5.71264         4.54011
     2021.09240       -13.05847         4.54534
     2021.09514        -9.16229         4.73433
     2021.09787        -4.64912         4.66291
     2021.10061        -4.93594         4.53315
     2021.10335       -11.96877         4.56102
     2021.10609        -8.29359         4.56015
     2021.10882        -7.45142         4.52182
     2021.11156        -8.48424         4.52182
     2021.11430        -6.02507         4.54360
     2021.11704        -7.38689         4.55231
     2021.11978        -6.09272         4.53576
     2021.12251        -6.17654         4.53489
     2021.12525        -2.34237         4.53140
     2021.12799        -4.41119         4.54708
     2021.13073        -7.53602         4.52705
     2021.13347        -7.62084         4.62285
     2021.13620        -8.31667         4.59237
     2021.13894        -9.96350         4.52879
     2021.14168        -3.36832         4.51921
     2021.14442        -5.98615         4.56102
     2021.14715        -4.16397         4.52270
     2021.14989       -10.08580         4.49657
     2021.15263        -3.74262         4.63679
     2021.15537        -1.84145         4.65508
     2021.15811        -3.25927         4.72562
     2021.16084        -0.64610         4.60630
     2021.16358        -2.74892         4.63853
     2021.16632         0.59125         4.67249
     2021.16906        -0.80857         4.51921
     2021.17180        -6.02940         4.51834
     2021.17453        -4.84522         4.68643
     2021.17727        -6.56305         4.65943
     2021.18001        -7.37387         4.70559
     2021.18275       -14.32570         4.76568
     2021.18548       -11.81152         4.48263
     2021.18822       -10.47935         4.52270
     2021.19096        -3.96217         4.50179
     2021.19370        -6.54500         4.56885
     2021.19644       -10.33182         4.50005
     2021.19917        -8.72365         4.52618
     2021.20191       -10.30147         4.50789
     2021.20465        -4.56030         4.53924
     2021.20739        -7.71512         4.52618
     2021.21013        -3.46495         4.61850
     2021.21286       -11.46777         4.59847
     2021.21560        -8.43760         4.49396
     2021.21834        -7.08642         4.50354
     2021.22108        -9.36425         4.51573
     2021.22381        -7.92607         4.51399
     2021.22655        -3.49590         4.53228
     2021.22929        -7.36572         4.48438
     2021.23203         3.14845         4.50963
     2021.23477        -8.90638         4.51399
     2021.23750        -7.92220         4.53140
     2021.24024        -8.44603         4.51573
     2021.24298        -5.83385         4.50528
     2021.24572       -12.49768         4.49134
     2021.24846        -3.93350         4.60805
     2021.25119        -8.85433         4.51573
     2021.25393        -6.95015         4.51660
     2021.25667       -10.45798         4.53924
     2021.25941        -8.41580         4.48350
     2021.26214        -6.91063         4.49047
     2021.26488        -4.41645         4.52095
     2021.26762        -5.32728         4.61153
     2021.27036        -2.72310         4.66814
     2021.27310        -6.92893         4.60021
     2021.27583        -9.52075         4.58366
     2021.27857        -9.23258         4.68817
     2021.28131       -12.09140         4.61937
     2021.28405        -7.69723         4.59759
     2021.28679        -8.67905         4.60108
     2021.28952        -5.56888         4.59063
     2021.29226        -7.73070         4.59759
     2021.29500        -5.66553         4.60805
     2021.29774        -7.75835         4.73868
     2021.30047        -5.31918         4.59934
     2021.30321        -3.82300         4.61240
     2021.30595        -1.61383         4.87542
     2021.30869         7.22735         4.80836
     2021.31143         0.34152         4.63592
     2021.31416        -0.01230         4.56450
     2021.31690         0.56187         4.60195
     2021.31964        -2.03895         4.72301
     2021.32238        -5.15378         4.74217
     2021.32512        -7.53260         4.65420
     2021.32785        -7.88943         4.66291
     2021.33059         0.04874         4.64114
     2021.33333        -0.75508         4.60979
     2021.33607        -2.16591         4.60892
     2021.33880        -7.58573         4.64201
     2021.34154        -8.25656         4.62111
     2021.34428        -3.30838         4.77178
     2021.34702        -7.24921         4.67075
     2021.34976        -4.06703         4.62634
     2021.35249        -6.87286         4.61763
     2021.35523        -5.11868         4.64288
     2021.35797       -11.35051         4.64811
     2021.36071        -7.52233         4.64201
     2021.36344        -8.07616         4.61501
     2021.36618        -9.32798         4.65333
     2021.36892       -13.71081         4.63853
     2021.37166        -6.70063         4.61937
     2021.37440        -4.68046         4.66378
     2021.37713        -4.49828         4.69427
     2021.37987        -5.95311         4.69862
     2021.38261        -4.51193         4.88064
     2021.38535        -7.80976         4.79181
     2021.38809        -5.97958         4.69862
     2021.39082        -3.66641         4.71081
     2021.39356        -5.47123         4.61501
     2021.39630        -3.95406         4.65420
     2021.39904        -4.78188         4.66814
     2021.40177        -2.38671         4.76394
     2021.40451        -2.94253         4.74391
     2021.40725        -7.92636         4.62808
     2021.40999         0.43182         4.65072
     2021.41273        -5.17701         4.65246
     2021.41546        -1.52483         4.67162
     2021.41820        -5.63366         4.66640
     2021.42094        -4.81148         4.68817
     2021.42368         4.19469         4.67249
     2021.42642        -0.43214         4.67511
     2021.42915         0.89804         4.62808
     2021.43189        -0.91079         4.59324
     2021.43463        -3.66361         4.60979
     2021.43737        -7.57644         4.65072
     2021.44010        -5.61826         4.70646
     2021.44284       -10.38609         4.75088
     2021.44558        -7.75491         4.74652
     2021.44832        -5.65874         4.83971
     2021.45106         0.21744         4.79965
     2021.45379        -2.83739         4.76481
     2021.45653        -5.59221         4.72214
     2021.45927        -1.74804         4.62808
     2021.46201        -2.50086         4.60282
     2021.46475        -3.68269         4.65769
     2021.46748        -0.08051         4.65159
     2021.47022         0.49266         4.70472
     2021.47296        10.44384         4.68033
     2021.47570        -0.35099         4.63592
     2021.47843        -1.38881         4.62024
     2021.48117        -5.94264         4.64375
     2021.48391        -5.84546         4.58627
     2021.48665        -2.15829         4.60892
     2021.48939        -0.03411         4.64985
     2021.49212        -1.57394         4.63243
     2021.49486        -2.29876         4.65595
     2021.49760        -1.32559         4.73956
     2021.50034        -6.41741         4.78920
     2021.50308        -0.46224         4.61850
     2021.50581       -14.20306         4.71778
     2021.50855        -8.52189         4.65333
     2021.51129        -5.05371         4.64027
     2021.51403         0.74546         4.69078
     2021.51676         2.89364         4.61501
     2021.51950         1.32281         4.71343
     2021.52224        -3.11402         4.66466
     2021.52498        -5.88484         4.61066
     2021.52772         1.02333         4.64288
     2021.53045         1.54951         4.61414
     2021.53319         4.06868         4.60630
     2021.53593        -4.35314         4.69949
     2021.53867        10.38103         4.90416
     2021.54141         5.05921         4.68556
     2021.54414        -5.32662         4.66901
     2021.54688        -3.59544         4.61588
     2021.54962        -3.37927         4.66117
     2021.55236        -0.95709         4.67685
     2021.55509         0.36308         4.67859
     2021.55783        -5.67874         4.71865
     2021.56057         2.74143         4.63940
     2021.56331         5.41661         4.61588
     2021.56605        -1.32022         4.63330
     2021.56878        -3.66404         4.60979
     2021.57152        -0.03087         4.59498
     2021.57426        -5.04069         4.61850
     2021.57700         3.17348         4.79529
     2021.57974        -4.89634         4.68120
     2021.58247        -4.48317         4.63330
     2021.58521        -0.22299         4.68991
     2021.58795        -5.02982         4.62024
     2021.59069        -2.47864         4.70385
     2021.59342        -1.64747         4.72998
     2021.59616        -0.81529         4.80226
     2021.59890         2.87488         4.81968
     2021.60164        -0.45794         4.64898
     2021.60438         4.47023         4.60108
     2021.60711         6.25041         4.67424
     2021.60985         3.81358         4.60021
     2021.61259         5.19676         4.61937
     2021.61533        -0.39407         4.60892
     2021.61807        -0.20990         4.60369
     2021.62080         1.34528         4.65420
     2021.62354         2.48545         4.79442
     2021.62628         1.55963         4.65072
     2021.62902         7.74580         4.64637
     2021.63175         3.25498         4.66901
     2021.63449         6.49515         4.64288
     2021.63723         7.10533         4.84407
     2021.63997         4.13050         4.72998
     2021.64271         5.63768         4.69862
     2021.64544        -0.18515         4.59847
     2021.64818         3.22903         4.59498
     2021.65092         2.10420         4.66988
     2021.65366        -2.20362         4.64375
     2021.65639        -3.19245         4.64114
     2021.65913         3.06873         4.64375
     2021.66187         5.40590         4.59324
     2021.66461         3.96808         4.58192
     2021.66735         7.15025         4.56973
     2021.67008         4.01943         4.72388
     2021.67282         3.94460         4.86410
     2021.67556        10.28978         4.85626
     2021.67830         7.28395         4.76046
     2021.68104         7.57513         4.65943
     2021.68377         4.33230         4.64462
     2021.68651         4.17448         4.71865
     2021.68925         4.58965         4.68033
     2021.69199         1.07383         4.61066
     2021.69472         2.60700         4.67075
     2021.69746         6.19418         4.66553
     2021.70020         5.94635         4.60979
     2021.70294         1.51553         4.66640
     2021.70568        -2.54730         4.66988
     2021.70841         6.28488         4.61240
     2021.71115        15.34005         4.63330
     2021.71389        13.51622         4.71081
     2021.71663         4.10440         4.60892
     2021.71937         5.72557         4.66988
     2021.72210        -1.91125         4.59847
     2021.72484         5.42492         4.65072
     2021.72758        -0.14390         4.64114
     2021.73032         0.36727         4.88064
     2021.73305        -2.97455         4.69862
     2021.73579        14.35062         4.95032
     2021.73853        10.68580         4.85800
     2021.74127         8.22597         4.63243
     2021.74401         7.27815         4.62285
     2021.74674        -1.47668         4.92942
     2021.74948         2.70550         4.62721
     2021.75222         1.47967         4.72998
     2021.75496         3.23085         4.61588
     2021.75770         3.32402         4.64898
     2021.76043         8.87720         4.77439
     2021.76317         2.83637         4.66204
     2021.76591         2.25955         4.60892
     2021.76865         3.07072         4.59150
     2021.77138         3.32390         4.63679
     2021.77412        10.56607         4.72998
     2021.77686         4.55125         4.68643
     2021.77960         7.55642         4.69427
     2021.78234         4.60960         4.59847
     2021.78507        11.40177         4.57582
     2021.78781        11.41195         4.58192
     2021.79055         6.11012         4.68643
     2021.79329         7.38830         4.62808
     2021.79603         5.68847         4.59237
     2021.79876         6.22665         4.57408
     2021.80150         6.54282         4.71778
     2021.80424         5.83300         4.75523
     2021.80698        -4.47183         4.73433
     2021.80971         5.51734         4.63156
     2021.81245        11.03952         4.81620
     2021.81519        13.07169         4.61066
     2021.81793         9.40487         4.65769
     2021.82067         2.88404         4.72214
     2021.82340        11.11622         4.58889
     2021.82614         4.62639         4.60630
     2021.82888         7.03757         4.59237
     2021.83162         9.97574         4.60021
     2021.83436        13.73692         4.62982
     2021.83709         4.32109         4.59498
     2021.83983        -1.98173         4.59150
     2021.84257         0.92244         4.66640
     2021.84531        -0.44438         4.68817
     2021.84804         5.45079         4.60805
     2021.85078         6.29797         4.59237
     2021.85352        -0.08486         4.61240
     2021.85626         3.99332         4.75175
     2021.85900         0.26349         4.65769
     2021.86173        -3.44533         4.62895
     2021.86447         3.84084         4.79007
     2021.86721         3.65102         4.85190
     2021.86995         9.39419         4.76046
     2021.87269         2.53437         4.75959
     2021.87542        -1.35646         4.73520
     2021.87816        -2.87628         4.63156
     2021.88090        -0.60411         4.61763
     2021.88364         0.02707         4.57843
     2021.88637        -5.53376         4.60108
     2021.88911        -4.02658         4.63330
     2021.89185         0.87759         4.88152
     2021.89459        -3.99523         4.61937
     2021.89733        -0.11406         4.60282
     2021.90006        -2.13888         4.62546
     2021.90280        -3.19671         4.63243
     2021.90554        -1.93054         4.67075
     2021.90828         7.28764         4.61153
     2021.91102         0.00581         4.64375
     2021.91375         2.47399         4.60369
     2021.91649        -3.98784         4.66466
     2021.91923        -0.82966         4.68817
     2021.92197        -7.42049         4.80923
     2021.92470        -8.10731         4.60630
     2021.92744        -5.20814         4.65856
     2021.93018       -10.31496         4.62982
     2021.93292         2.81021         4.72823
     2021.93566         5.48639         4.74914
     2021.93839         6.34456         4.69078
     2021.94113         8.57974         4.76742
     2021.94387        16.73091         4.66204
     2021.94661         1.40909         4.66117
     2021.94935         1.74126         4.60021
     2021.95208         3.81444         4.60543
     2021.95482        -0.04639         4.69078
     2021.95756         3.01579         4.65333
     2021.96030        -1.92404         4.60369
     2021.96303        -1.53586         4.64288
     2021.96577         0.59831         4.56711
     2021.96851         2.78449         4.57321
     2021.97125         2.32166         4.60543
     2021.97399         5.42584         4.57408
     2021.97672         9.41401         4.57321
     2021.97946        10.14319         4.54795
     2021.98220        10.82836         4.57321
     2021.98494         9.79254         4.59063
     2021.98767         5.54971         4.59585
     2021.99041         6.37789         4.57756
     2021.99315         4.75306         4.57931
     2021.99589         7.32024         4.55231
     2021.99863        -0.35459         4.58714
     2022.00136         1.45958         4.60979
     2022.00410         0.67676         4.58714
     2022.00684        -6.93507         4.63156
     2022.00958        -3.73289         4.57060
     2022.01232       -14.68672         4.59759
     2022.01505        -5.04454         4.63766
     2022.01779         1.36363         4.64985
     2022.02053        -3.04619         4.59934
     2022.02327       -11.10202         4.93987
     2022.02600       -12.01484         4.70820
     2022.02874        -3.42167         4.65595
     2022.03148        -9.32149         4.63679
     2022.03422       -10.21132         4.65072
     2022.03696        -7.35414         4.61501
     2022.03969       -13.14597         4.69775
     2022.04243        -5.22979         4.78049
     2022.04517        -3.03062         4.66988
     2022.04791        -0.68444         4.66466
     2022.05065        -2.39127         4.64375
     2022.05338        -0.91909         4.70472
     2022.05612       -10.11892         4.69775
     2022.05886       -14.24674         4.66814
     2022.06160       -12.68657         4.71778
     2022.06433        -6.33239         4.71430
     2022.06707        -6.99922         4.66378
     2022.06981        -3.00904         4.60108
     2022.07255       -13.97687         4.61676
     2022.07529        -6.45569         4.57321
     2022.07802        -5.14452         4.60718
     2022.08076         2.87966         4.59672
     2022.08350         0.38883         4.60805
     2022.08624        -2.75799         4.63156
     2022.08898        -2.14282         4.62111
     2022.09171        -4.40764         4.60195
     2022.09445        -5.01447         4.61414
     2022.09719        -7.91030         4.58018
     2022.09993        -6.08412         4.75088
     2022.10266       -11.50495         4.79181
     2022.10540        -5.87577         4.65159
     2022.10814        -0.04560         4.64375
     2022.11088        -2.17242         4.58976
     2022.11362         1.15375         4.59759
     2022.11635        -1.92407         4.57843
     2022.11909        -0.83890         4.58192
     2022.12183         3.14428         4.59411
     2022.12457        -2.48655         4.67162
     2022.12731        -0.72837         4.58366
     2022.13004        -8.06320         4.59411
     2022.13278        -9.61902         4.63156
     2022.13552        -1.72285         4.58976
     2022.13826         0.35633         4.58889
     2022.14099        -0.38250         4.57931
     2022.14373       -12.75032         4.57408
     2022.14647        -3.53615         4.60021
     2022.14921        -4.04197         4.77004
     2022.15195        -5.63180         4.76220
     2022.15468        -2.55762         4.57931
     2022.15742        -2.83745         4.55492
     2022.16016        -2.48727         4.62111
     2022.16290        -2.51910         4.81358
     2022.16564         1.44008         4.62546
     2022.16837         4.10525         4.60108
     2022.17111        -0.93857         4.60369
     2022.17385         2.72560         4.59150
     2022.17659         1.58978         4.60718
     2022.17932        -2.81105         4.62285
     2022.18206         0.37913         4.62285
     2022.18480        -2.79470         4.63243
     2022.18754         2.30647         4.68033
     2022.19028        -4.87535         4.67162
     2022.19301         3.10982         4.58889
     2022.19575         6.36800         4.59934
     2022.19849         3.48617         4.62285
     2022.20123         3.88535         4.64375
     2022.20397         6.74152         4.61937
     2022.20670         0.73470         4.73346
     2022.20944         5.41887         4.77178
     2022.21218         9.81405         4.63679
     2022.21492        -1.22678         4.62024
     2022.21765        -2.11760         4.62721
     2022.22039        -1.35043         4.60718
     2022.22313        -2.70625         4.68382
     2022.22587        -6.59608         4.68730
     2022.22861        -0.29990         4.71256
     2022.23134         3.14227         4.64724
     2022.23408         2.14945         4.59672
     2022.23682         4.00662         4.71169
     2022.23956         1.48380         4.60195
     2022.24230        -6.28903         4.67424
     2022.24503         2.31115         4.63592
     2022.24777         2.75432         4.64201
     2022.25051        -4.28950         4.60021
     2022.25325        -0.11833         4.60630
     2022.25598         7.31485         4.66553
     2022.25872         2.30802         4.68033
     2022.26146        -5.17680         4.66466
     2022.26420        -1.92963         4.65943
     2022.26694       -14.29845         4.79791
     2022.26967        -5.62128         4.61153
     2022.27241         7.46190         4.59411
     2022.27515         4.45807         4.67337
     2022.27789        -1.31175         4.59585
     2022.28062        -3.24258         4.57843
     2022.28336         1.15959         4.60892
     2022.28610         1.71377         4.71778
     2022.28884        -0.03106         4.70123
     2022.29158        -7.15688         4.59759
     2022.29431        -2.74671         4.61850
     2022.29705        -2.61253         4.57582
     2022.29979         3.98964         4.62111
     2022.30253         0.13082         4.65420
     2022.30527        -1.50301         4.64985
     2022.30800        -5.26583         4.59934
     2022.31074        -2.81366         4.58801
     2022.31348        -3.83448         4.62198
     2022.31622        -4.65631         4.59237
     2022.31895       -17.70213         4.70994
     2022.32169        -4.53596         4.71691
     2022.32443        -3.41078         4.58279
     2022.32717        -5.48861         4.56624
     2022.32991        -2.92743         4.57408
     2022.33264        -8.93726         4.67337
     2022.33538        -6.63708         4.75697
     2022.33812        -5.42691         4.77439
     2022.34086        -0.26773         4.54882
     2022.34360        -3.21556         4.56450
     2022.34633         1.30662         4.58540
     2022.34907        -0.43521         4.56015
     2022.35181         1.70397         4.60021
     2022.35455        -0.86086         4.60805
     2022.35728        -4.85168         4.54011
     2022.36002         3.28349         4.58279
     2022.36276        -4.27433         4.56624
     2022.36550        -4.46916         4.58627
     2022.36824        -3.17898         4.58976
     2022.37097        -7.27681         4.62634
     2022.37371       -10.70363         4.55492
     2022.37645        -5.52446         4.60282
     2022.37919        -7.05329         4.71952
     2022.38193       -10.32911         4.71517
     2022.38466        -4.45594         4.57060
     2022.38740       -17.08176         4.57234
     2022.39014        -3.47059         4.57495
     2022.39288        -5.95641         4.58976
     2022.39561        -4.68824         4.60369
     2022.39835        -5.52106         4.64550
     2022.40109        -4.39389         4.71430
     2022.40383         0.32829         4.57495
     2022.40657         1.98946         4.55753
     2022.40930        -9.00636         4.67598
     2022.41204        -1.59919         4.66553
     2022.41478        -0.73101         4.59934
     2022.41752        -3.30984         4.66030
     2022.42026        -2.00966         4.69427
     2022.42299        -4.44749         4.63417
     2022.42573       -10.12031         4.70123
     2022.42847        -2.69014         4.66117
     2022.43121        -2.13296         4.71081
     2022.43394         4.46321         4.77439
     2022.43668        -9.12061         4.65856
     2022.43942        -3.10844         4.68556
     2022.44216        -0.84226         4.71081
     2022.44490         7.81691         4.69514
     2022.44763         4.66509         4.56798
     2022.45037         0.50126         4.58714
     2022.45311        -9.31356         4.56276
     2022.45585        -3.25139         4.59672
     2022.45859       -14.22921         4.58976
     2022.46132        -6.60904         4.55753
     2022.46406        -5.66486         4.56102
     2022.46680        -7.90069         4.57495
     2022.46954        -2.57351         4.59063
     2022.47227       -11.43334         4.59585
     2022.47501         3.22683         4.59847
     2022.47775        -5.69199         4.67772
     2022.48049        -2.27582         4.54011
     2022.48323         6.42536         4.58018
     2022.48596        10.04153         4.58540
     2022.48870        -1.61229         4.68730
     2022.49144        -2.52012         4.56102
     2022.49418        -0.23694         4.69514
     2022.49692        -2.30077         4.57756
     2022.49965        -4.56859         4.65943
     2022.50513        -1.00524         4.81620
     2022.50787        13.09293         4.81097
     2022.51060        -3.60689         4.73520
     2022.51334        -5.16772         4.60369
     2022.51608        -6.82054         4.58453
     2022.51882       -10.19337         4.54882
     2022.52156       -10.06319         4.59498
     2022.52429         1.28298         4.61240
     2022.52703        -1.66684         4.61066
     2022.52977         5.91833         4.63853
     2022.53251        -4.36149         4.63766
     2022.53525        -5.97332         4.82839
     2022.53798        -6.43614         4.59498
     2022.54072        -6.93797         4.58105
     2022.54346        -2.38079         4.59324
     2022.54620        -4.34762         4.60108
     2022.54893         2.87056         4.61676
     2022.55167         0.54873         4.64898
     2022.55441        -0.98909         4.65856
     2022.55715         6.36208         4.60543
     2022.55989        -2.67474         4.59759
     2022.56262        -4.77157         4.60543
     2022.56536       -16.73039         4.56450
     2022.56810        -3.24622         4.58540
     2022.57084        -6.66205         4.59150
     2022.57357         6.25613         4.68991
     2022.57631        -8.48570         4.57321
     2022.57905       -16.38952         4.66378
     2022.58179        -1.46235         4.68730
     2022.58453         6.93583         4.81010
     2022.58726        -6.02600         4.63679
     2022.59000         8.08718         4.66988
     2022.59274        -6.32965         4.52879
     2022.59548        -3.69747         4.52792
     2022.59822        -9.90230         4.53053
     2022.60095       -11.59512         4.55492
     2022.60369        -9.51995         4.59324
     2022.60643         1.97323         4.61937
     2022.60917         7.55940         4.68643
     2022.61190         6.74658         4.65682
     2022.61464         7.19375         4.53750
     2022.61738         8.75393         4.51224
     2022.62012         0.97610         4.55405
     2022.62286        -1.66372         4.68033
     2022.62559         3.84745         4.51050
     2022.62833         1.19563         4.52357
     2022.63107         4.24480         4.64724
     2022.63381         4.15698         4.51137
     2022.63655         6.81115         4.54534
     2022.63928         6.18833         4.54099
     2022.64202         6.09550         4.88674
     2022.64476        12.54568         4.73172
     2022.64750         7.24085         4.52531
     2022.65023        10.97903         4.57495
     2022.65297         9.46520         4.61153
     2022.65571        12.06138         4.51137
     2022.65845         9.97555         4.54011
     2022.66119         8.01773         4.54621
     2022.66392         8.13790         4.55231
     2022.66666         7.06607         4.47392
     2022.66940         7.58925         4.49047
     2022.67214         5.18942         4.56885
     2022.67488        12.38160         4.74217
     2022.67761        14.33577         4.52618
     2022.68035         9.39195         4.53402
     2022.68309         8.17212         4.70123
     2022.68583         7.56130         4.66466
     2022.68856        10.62747         4.57843
     2022.69130        12.32865         4.59324
     2022.69404        10.79082         4.72214
     2022.69678         8.39800         4.68033
     2022.69952         2.41917         4.59498
     2022.70225        11.18835         4.68469
     2022.70499         6.79752         4.71865
     2022.70773        10.25470         4.65246
     2022.71047        10.44187         4.52444
     2022.71321        15.27405         4.50005
     2022.71594        13.31722         4.47828
     2022.71868        11.92240         4.47480
     2022.72142        15.88657         4.52182
     2022.72416         7.46075         4.58453
     2022.72689        12.72792         4.58453
     2022.72963        11.67810         4.51399
     2022.73237        11.15727         4.48176
     2022.73511         8.75645         4.51486
     2022.73785        11.54062         4.52095
     2022.74058        11.35780         4.72998
     2022.74332        17.05397         4.72214
     2022.74606        11.45315         4.54273
     2022.74880        12.11032         4.47741
