# ================= DQRFIT RESULTS ================
# INPUT FILE: series/MSLK.rad
# OUTPUT: LDETRENDED
# FILTER FUNCTION: f(t)
# f(t)=+line(t)+annual(t)
# line(t)=+P 1+P 2*t
# annual(t)=+P 3*sin(2*pi*t+P 4)
# heav(t)=(t<0?0:1)
# TOTAL OBSERVATIONS MTOT= 2154
# INITIAL TIME INTERVAL= 2014.6171 - 2008.0082 =  6.6089
# TOTAL OBSERVATIONS AFTER PREFILTER M= 2121
# TIME-SPAN= 2014.6171 - 2008.0082 =  6.6089
# OBSERVATIONS: USED M=  2121 REJECTED MTOT-M=    33 %USED=   98.4680
# N=  4 PARAMETERS
# MAXSIG= 175.00000
# MAXRES=  41.40946
# SCALE FACTOR FOR LENGTHS: SCL=  10.00000
# SCALE FACTOR FOR SIGMAS: SCLSIG=   1.00000
# CHI^2=   3043.253 DOF=  2117 CHI^2/DOF=   1.43753
# RMS=      8.245 SDEV=      8.247 MEAN=   -0.03766
#  P #       PARAMETER +-    SIGMA %error PARAMETER NAME
# P 1 =      4321.80667 +-  183.950   4.26 YZERO                              
# P 2 =        -2.14360 +-    0.091   4.27 SLOPE                              
# P 3 =         2.76395 +-    0.229   8.28 ANNUAL AMPLITUDE                   
# P 4 =         2.78663 +-    0.110   3.94 ANNUAL PHASE                       
#       T            LDETRENDED       SIG_OBS
     2008.00821         6.36276         7.02837
     2008.01095         6.76963         6.72143
     2008.01368         3.77450         6.86651
     2008.01642         4.64737         6.88089
     2008.01916        -2.76076         6.72143
     2008.02190        -8.64290         7.05115
     2008.02464        -4.71103         7.07153
     2008.02737        -3.14216         6.69146
     2008.03011        -7.66729         7.27176
     2008.03266        29.88618        20.36692
     2008.03633       -21.29596        11.12645
     2008.03833        -8.22368         6.92046
     2008.04106       -10.70081         6.90128
     2008.04380       -14.25394         7.25257
     2008.04654        -6.64208         6.89288
     2008.04928        -6.41821         6.92046
     2008.05201        -5.06434         7.00199
     2008.05475        -3.85747         6.85811
     2008.05749       -11.14560         7.16145
     2008.06023        -3.19073         6.85452
     2008.06297        -2.94786         6.86171
     2008.09588        -5.97931         7.17584
     2008.09856        -4.09357         7.05954
     2008.10130        -0.69670         7.12668
     2008.10403         2.61017         6.77418
     2008.10677        11.40604         6.87969
     2008.10951        -6.28509         6.90247
     2008.11208       -11.36659         7.45040
     2008.12879         1.43924         9.07261
     2008.13141        -2.89314         6.74901
     2008.13415         3.93273         6.69985
     2008.13689        -1.14640         6.75380
     2008.13963         0.71547         6.79457
     2008.14236         2.56634         6.84253
     2008.14510        -0.61780         6.79697
     2008.14784         6.34007         6.69505
     2008.15058        -0.51506         6.86770
     2008.15331        -9.00219         6.90128
     2008.15697        -7.57535        12.05925
     2008.15879        -1.65845         6.75980
     2008.16153        -5.01058         6.79337
     2008.16427        -2.13371         6.90727
     2008.17031       -16.83775         8.98509
     2008.17248        -7.94711         7.05474
     2008.17522         1.05476         6.89648
     2008.17796        -0.64237         6.63750
     2008.17962       -21.37979        21.08750
     2008.18343         0.90537         6.69745
     2008.18611        -0.81989         6.89288
     2008.18891        -7.11389         6.71663
     2008.19164        -6.10803         7.21421
     2008.19438         1.08584         7.06673
     2008.19712         3.17971         8.33165
     2008.19986         4.44958         6.87250
     2008.20260        -8.46555         6.71184
     2008.20533         7.01632         6.73222
     2008.20807        -0.97181         7.01278
     2008.21081        -1.64294         7.08472
     2008.21355         0.54493         8.21055
     2008.21629         5.89679         6.79217
     2008.21886        -6.51669         7.40125
     2008.22083        -7.19145        12.91052
     2008.22450        -9.55060         6.98880
     2008.22724        -8.30573         7.22859
     2008.22997         3.54814         6.93844
     2008.23271         0.62301         7.17824
     2008.23544        -8.98615         9.79199
     2008.23819        -5.80025         7.25857
     2008.24093        -0.74039         6.91207
     2008.24366        -0.56852         6.81135
     2008.24640        -2.07465         6.88209
     2008.24914        -1.72978         9.02345
     2008.25109        -9.17460        11.40941
     2008.25462        -1.40904         7.16145
     2008.25642        21.21682        16.51702
     2008.26283         3.62557         6.78138
     2008.26557        -1.50757         6.80896
     2008.26830        -7.28770         6.90847
     2008.27104         3.46517         7.16385
     2008.27378         2.24004         7.99114
     2008.27652         0.05991         6.89648
     2008.27926        -1.40322         6.97321
     2008.28200        -8.45834         6.91446
     2008.28473        -5.80948         6.96362
     2008.28747         5.64539         7.59428
     2008.29021         2.15725         7.51275
     2008.29295         3.38012         7.24058
     2008.29568        -0.92901         6.89408
     2008.29842        -8.52514         6.88209
     2008.30116        -1.45927         6.79217
     2008.30390        -3.34740         6.92765
     2008.30663         1.52547         7.01877
     2008.30937         5.95534         6.93724
     2008.31211        -2.88779         7.21900
     2008.31485        -6.69693         7.12788
     2008.31759        -9.86706         9.06422
     2008.32032        -4.34019         7.28135
     2008.32306        -6.78032         7.14587
     2008.32580         2.91055         7.12908
     2008.32854        -3.68158         6.79697
     2008.33128        -3.40671         7.48158
     2008.33401        -4.03184         6.79337
     2008.33675        -1.69598         6.87130
     2008.33948         1.20287         7.19023
     2008.34223       -12.51224         6.82454
     2008.34483        -3.14766         7.77772
     2008.34753        -6.34788         7.37367
     2008.35044        -6.99163         6.81855
     2008.35318        -0.12876         7.10270
     2008.35592        -5.57489         7.12548
     2008.35865        -6.51502         7.29933
     2008.36139        -3.21816         9.16973
     2008.36615        -1.33996        10.16847
     2008.36941       -10.27097         7.23699
     2008.37234       -10.21968         6.77538
     2008.37508        -3.25381         9.36756
     2008.37782         2.02506         6.86531
     2008.38056        -1.70607         7.03436
     2008.38330         1.33281         6.91686
     2008.38603        -2.31534         6.69865
     2008.38820        -4.06168         9.21289
     2008.39151        -3.17860         6.89768
     2008.39425         6.28127         7.28615
     2008.39698         0.10314         6.77059
     2008.39972        -0.78399         6.66028
     2008.40246         1.90788         7.71178
     2008.40491        -4.34287         7.98395
     2008.46107         6.00552        16.92347
     2008.46269         0.87099         6.83533
     2008.46543        -6.70514         6.77299
     2008.46817        -8.48227         6.77658
     2008.47091       -10.53440         7.12908
     2008.47364       -24.77553         7.07633
     2008.47638        -0.37666         6.78977
     2008.47912        -2.37879         6.86890
     2008.48186         1.58107         6.76459
     2008.48459         1.02194         7.16145
     2008.48733        -0.90419         6.85212
     2008.49007        -7.49032         6.75260
     2008.49281        -1.64845         6.78378
     2008.49555        -4.97758         7.00199
     2008.49828        -1.30271         7.60387
     2008.50102         0.19716         7.19023
     2008.50376        -5.83697         7.01638
     2008.50638       -11.56335         7.63624
     2008.51112        -2.45020        12.56761
     2008.51471         1.00250         6.98880
     2008.51745        -6.54763         6.89049
     2008.52019        -2.96076         7.35449
     2008.52292        -8.14689         7.31252
     2008.52566        -3.47402         7.18183
     2008.52840         0.59385         6.91566
     2008.53114         2.46371         7.16865
     2008.53388        -1.55042         7.24178
     2008.53661         1.14945         7.03916
     2008.53935        -1.26368         7.28615
     2008.54209         2.07419         6.83174
     2008.54483        11.69406         7.01758
     2008.54757         3.71793         6.91926
     2008.55030         8.04580         6.75260
     2008.55304        10.67367         6.95523
     2008.55578        -2.07847         7.34729
     2008.55852        13.81240         7.34489
     2008.56125        -2.09873         6.87250
     2008.56399        -5.15186         7.00319
     2008.56673        -0.87599         7.27176
     2008.56947         3.46888         7.11949
     2008.57221         4.29175         7.13987
     2008.57494         8.18562         7.73576
     2008.57768         3.12449         7.75734
     2008.58042         7.30635         7.66142
     2008.58316         7.50722         6.91446
     2008.58590         4.12309         6.92765
     2008.58863        13.24896         7.14706
     2008.59137        -1.09817         9.07261
     2008.59411         3.62470         6.79097
     2008.59685        -1.33443         7.02477
     2008.59958         5.51544         7.28015
     2008.60232        12.34131         7.33890
     2008.60506        -1.85883         7.24778
     2008.60780         4.00304         6.84492
     2008.61054        -2.88909         7.00199
     2008.61327        -0.10022         7.04755
     2008.61602         7.43166         7.13747
     2008.61875         5.80152         6.89288
     2008.62155         9.23152         6.94324
     2008.62423        -1.02074         6.94804
     2008.62696         4.02012         6.92645
     2008.62970         7.34399         7.48398
     2008.63244        -1.39314         7.17584
     2008.63518         7.21573         7.30293
     2008.63791        -7.28740         7.11829
     2008.64065         9.18947         6.99959
     2008.64339         1.48034         7.85326
     2008.64613         7.73121         7.58109
     2008.64887        -8.03492         7.39885
     2008.65160        13.98494         6.96003
     2008.65434         5.17581         7.24778
     2008.65708        10.03568         7.21061
     2008.65982         3.05855         6.87250
     2008.66256         9.34542         7.22979
     2008.66529        15.75029         8.09785
     2008.66803         9.37516         8.19257
     2008.67077        -5.22397         7.83288
     2008.67351         6.10490         7.55471
     2008.67624         7.99376         7.42163
     2008.67898         5.64063         7.11349
     2008.68172         7.26950         6.96003
     2008.68446        -3.18063         6.95523
     2008.68714        -3.64888         7.48637
     2008.68995         0.63414         7.45880
     2008.69267         6.62798         7.27655
     2008.69569        -8.25055        21.33928
     2008.69815         8.23772         8.50790
     2008.70089         2.20158         7.07752
     2008.70365         3.50651         9.05103
     2008.70636         5.00532         7.65183
     2008.70910         3.14319         7.98035
     2008.71184        -0.91994         7.57150
     2008.71457        -5.86607         6.99839
     2008.71731        -7.27920         7.01158
     2008.72005         7.04167         6.94564
     2008.72282         0.72960         6.94804
     2008.72553        10.43440         7.60867
     2008.72826        -2.73673         8.95511
     2008.73100         3.80714         7.88443
     2008.73374        -2.18199         7.73096
     2008.73648         9.77288         7.55232
     2008.73921        -0.55025         8.96351
     2008.74469        -5.83351         6.95883
     2008.74743         2.61336         7.33530
     2008.75017         4.63422         6.94923
     2008.75290         9.21209         7.03556
     2008.75564         1.40296         7.17464
     2008.75838         1.48683         7.36288
     2008.76115         6.68276         7.39645
     2008.76386        -1.59843         8.19616
     2008.76659        -2.72556         7.20222
     2008.76933        -0.55569         8.17458
     2008.77207         6.00318         8.81004
     2008.77486        -5.06883         9.86753
     2008.77646        -6.97941        16.07700
     2008.78419        -5.15583        23.74921
     2008.78576       -14.65748         7.07633
     2008.78850        -0.77761         7.38926
     2008.79123         3.42326         7.26816
     2008.79397        -5.23787         7.54033
     2008.79671         7.95499         7.12428
     2008.79948        -6.04508         7.07273
     2008.80219         0.50673         7.51875
     2008.80492         2.63060         6.87850
     2008.80766        -1.43453         7.37967
     2008.81040         3.79034         7.26217
     2008.81314         4.41821         7.24178
     2008.81587        -7.56692         7.00439
     2008.81864        -1.69199         6.87850
     2008.82135        -2.55319         6.90847
     2008.82409        -1.69732         7.10390
     2008.82683        -2.23645         6.93125
     2008.82956        -2.84658         7.16745
     2008.83230        -3.00271         6.93605
     2008.83504         0.96116         7.01877
     2008.83781         3.94210         7.70219
     2008.84052         4.60290         6.95283
     2008.84325        10.31777         6.76339
     2008.84599         3.79063         6.86171
     2008.84879        -9.07137         7.19862
     2008.85147        -7.48563         7.05235
     2008.85420        -7.59076         7.09431
     2008.85697        18.37617         6.91926
     2008.85968         2.36798         6.93365
     2008.86242         2.08185         7.11349
     2008.86516        -0.43728         6.91926
     2008.86789         1.22359         7.26217
     2008.87063         4.51945         7.04395
     2008.87337        -7.80268         6.97801
     2008.87609        -5.58185         7.30413
     2008.87914        -9.02830         8.07747
     2008.88158        -6.76707         7.00679
     2008.88432        -0.14720         6.83293
     2008.88706         2.00167         7.12668
     2008.88980       -12.52446         7.45520
     2008.89253        -1.32559         7.07513
     2008.89530        -4.40666         7.17464
     2008.89801         6.68214         7.28854
     2008.90075         3.15501         7.11829
     2008.90326        -3.84761         7.74535
     2008.90724        -0.42707        14.92719
     2008.90896         0.15362         6.88089
     2008.91170        -2.47051         7.15546
     2008.91447         3.71442         6.82214
     2008.91718        -0.14077         7.10150
     2008.91991        -3.62991         7.07153
     2008.92265        -5.04204         6.95523
     2008.92539        -2.56217         6.99000
     2008.92813        10.07770         7.08832
     2008.93086         3.25857         6.95283
     2008.93366        -7.79644         7.26696
     2008.93634        -8.43969         6.98400
     2008.93908        -5.88582         7.08832
     2008.94182       -10.30696         7.45280
     2008.94455        -4.77209         7.18423
     2008.94729        -3.75622         6.99000
     2008.95003        -2.43635         6.75500
     2008.95280        -4.11642         7.00079
     2008.95551         2.47739         6.91926
     2008.95824         0.33326         6.93005
     2008.96098         1.34013         6.81975
     2008.96372         0.19900         6.78378
     2008.96646        -3.90114         6.98400
     2008.96919        -6.61027         6.85452
     2008.97196        -0.09334         7.01997
     2008.97467        -6.83453         6.77059
     2008.97741        -8.33866         7.22380
     2008.98015        -9.79879         6.79936
     2008.98288        -1.12192         6.82694
     2008.98538       -10.35256         7.75974
     2008.98931       -18.53315        12.74386
     2008.99113       -10.49525         6.88929
     2008.99384        -8.60045         6.78617
     2008.99657        -8.07958         6.65549
     2008.99931        -2.61771         6.90967
     2009.00479         4.40803         6.66868
     2009.00752        -1.37710         6.70464
     2009.01029        -8.03517         6.89768
     2009.01300         3.27764         7.43841
     2009.01574        -6.84350         7.42523
     2009.01848         4.25037         7.00918
     2009.02121         2.19624         7.06434
     2009.02395        -5.28689         7.33291
     2009.02669       -13.81602         6.90727
     2009.02946        -8.24709         6.96962
     2009.03216       -14.36528         6.94923
     2009.03490       -12.38941         6.91566
     2009.03764       -10.28654         7.28135
     2009.04038       -15.13768         6.95643
     2009.04312       -12.11181         6.78617
     2009.04585       -19.06494         6.99480
     2009.04862       -16.18101         6.95883
     2009.05133       -11.79020         6.83773
     2009.05404       -14.24639         7.17344
     2009.05683        -5.13040         6.87010
     2009.05960        -6.46047         7.20701
     2009.06228       -13.55672         7.00199
     2009.06502       -10.28486         7.16505
     2009.06779        -9.63593         6.95763
     2009.07042        -7.59228         6.96722
     2009.07328        -6.96916         7.00079
     2009.07597        -5.62838         6.85811
     2009.07871        -8.05651         7.48877
     2009.08145        -6.75364        11.47655
     2009.08418        -8.90777         7.10030
     2009.08695        -7.46184         7.39405
     2009.08966       -10.48104         6.79217
     2009.09240        -9.41217         6.75500
     2009.09514        -4.01030         6.99360
     2009.09787        -6.52343         7.20462
     2009.10061        -0.07756         6.83893
     2009.10335        -6.47869         6.80536
     2009.10612        -1.09876         7.22020
     2009.10882         1.76305         6.82214
     2009.11156        -9.80809         7.01158
     2009.11430        -9.57622         7.19023
     2009.11710         3.98680         6.99959
     2009.11978        -0.34848         6.79697
     2009.12251        -2.05261         7.12428
     2009.12528        -0.84668         7.14946
     2009.12799        -5.75986         6.90247
     2009.13073         4.74600         7.06673
     2009.13347        -2.40713         6.84253
     2009.13620       -14.24127         6.92286
     2009.13894        -6.15340         6.89049
     2009.14161        -9.22468         7.12668
     2009.14445        -8.28960         6.99240
     2009.14715        -3.99179         7.13508
     2009.14989        -6.86092         7.55831
     2009.15263       -10.67105         7.50076
     2009.15537        -6.12318         7.23819
     2009.15807        -4.95040         7.14107
     2009.16632        -5.39471         7.77173
     2009.16906        -2.74084        10.76196
     2009.17180        -4.19397         6.98161
     2009.17442         2.90765         7.32451
     2009.17756         1.74539         8.44315
     2009.18001        -4.07736         7.16865
     2009.18280        -5.43837         7.04156
     2009.18548        -8.99963         7.04036
     2009.18822       -11.65076         6.95043
     2009.19096        -7.24589         6.84492
     2009.19370        -5.65202         6.89168
     2009.19644        -9.27915         6.96842
     2009.19877        -7.60214         8.38440
     2009.20474       -10.13136         7.69020
     2009.20739         1.09633         7.28615
     2009.21013        -0.47781         7.01278
     2009.21286        -4.07494         6.86291
     2009.21560        -0.88607         7.51875
     2009.21834        -9.76520         6.97321
     2009.21996        -7.27871        15.85639
     2009.22412         2.93819         8.39040
     2009.22655        -0.77459         6.84732
     2009.22929        -9.25972         7.13508
     2009.23151       -13.95096         8.97909
     2009.23491        -1.74968         8.90715
     2009.23682        -4.16458        10.02939
     2009.24575        -5.44445         7.16985
     2009.24846        -8.11264         7.24898
     2009.25119        -3.92477         7.22740
     2009.25393         5.09710         7.57989
     2009.25667         4.37596         6.90367
     2009.25941        -5.58716         7.04395
     2009.26214        -9.99030         7.12548
     2009.26488        -9.62743         7.48757
     2009.26762         4.09444         7.19382
     2009.27036         6.12031         7.00079
     2009.27310        -0.67582         7.15186
     2009.27583         1.45005         7.44561
     2009.27858       -14.09907         7.36048
     2009.28131        -4.33322         8.34124
     2009.28405         0.34065         7.52714
     2009.28679        -0.74448         7.05594
     2009.28952        -4.32461         6.96242
     2009.29226        -8.09674         7.03916
     2009.29417        -5.32964        11.56407
     2009.29788       -14.39369         8.08226
     2009.30047        -2.87713         7.28135
     2009.30321        -9.12126         7.04755
     2009.30595         0.21960         7.04156
     2009.30869         1.28547         7.06194
     2009.31143        -6.76466         6.98760
     2009.31416        -4.31279         7.16625
     2009.31587        -2.26212        14.23178
     2009.32051        -8.80018        11.18640
     2009.32238         0.64982         6.89528
     2009.32512        -9.16631         7.31252
     2009.32785        -3.05744         7.53553
     2009.33059        -4.01458         6.96962
     2009.33333        -5.08971         7.03076
     2009.33607        -4.48984         7.11589
     2009.33880        -4.47097         6.99120
     2009.34154       -14.57610         7.29334
     2009.34428        -7.81923         7.04395
     2009.34702        -8.22936         7.00319
     2009.34976        -3.55849         7.09191
     2009.35249        -7.24862         6.87010
     2009.35524        -7.88275         6.98161
     2009.35797        -2.22889         7.05235
     2009.36071        -1.50502         7.11949
     2009.36344        -7.44115         7.05834
     2009.36618        -1.26428         7.16145
     2009.36892        -0.14141         6.96003
     2009.37166        -8.94654         7.64943
     2009.37440        -1.89466         6.95163
     2009.37713        -7.80180         6.99360
     2009.37987       -15.32094         7.77892
     2009.38261        -2.40007         7.42283
     2009.38535        -5.06220         7.30173
     2009.38809       -13.30633         7.50676
     2009.39082        -6.67346         6.93844
     2009.39357       -16.74158         7.09071
     2009.39630         1.26628         8.46713
     2009.39904        -6.01485         7.29694
     2009.40177        -4.44199         7.05714
     2009.40451        -0.32512         7.24658
     2009.40725        -2.74025         7.02237
     2009.40999        -2.54938         6.97441
     2009.41273         2.15550         7.13508
     2009.41546        -0.68164         7.25018
     2009.41820        -6.54077         7.24418
     2009.42094        -7.17090         7.06314
     2009.42368        -8.02703         7.19023
     2009.42642        -7.30817         7.29814
     2009.42915        -4.63930         8.66496
     2009.43190       -10.71642         7.07633
     2009.43463         0.46544         7.30053
     2009.43737         6.13231         7.03076
     2009.44010        -7.16782         8.10504
     2009.44284        -5.92295         7.07153
     2009.44558       -15.78208         8.18178
     2009.44832         3.64779         7.07513
     2009.45106        -6.22934         7.02957
     2009.45379        -3.83248         7.08352
     2009.45653        -1.54361         6.98161
     2009.45927        -3.68274         7.07033
     2009.46201        -3.05387         6.98880
     2009.46475        -4.69500         7.46959
     2009.46748         3.94287         7.08112
     2009.47022         0.95174         6.93844
     2009.47296        -5.81439         7.01877
     2009.47570        -9.93953         6.87850
     2009.47843        -4.06266         6.92046
     2009.48117        -8.23779         7.30173
     2009.48391        -1.14992         7.06913
     2009.48661         2.50388         8.99588
     2009.48973       -15.57745        13.36493
     2009.49212         2.14369         7.27176
     2009.49486         1.81056         7.07153
     2009.49760        -2.42257         6.98281
     2009.50034        -5.34371         7.03076
     2009.50308        -4.79384         7.78612
     2009.50581        -3.44597         6.91446
     2009.50856        -7.49209         7.26097
     2009.51129         9.76377         7.52714
     2009.51403        -2.43136         6.93005
     2009.51676        -0.66149         6.98161
     2009.51950         4.99438         7.46719
     2009.52224        -6.39275         6.96003
     2009.52498         1.84611         6.87730
     2009.52772       -10.40001         7.15426
     2009.53028       -15.44851         7.90002
     2009.53399         1.26844        11.20558
     2009.53593         5.10159         7.07992
     2009.53835        -6.64421         7.92400
     2009.54161        -8.69723         8.32925
     2009.54409        -4.54093         7.28974
     2009.54651        -3.06972         8.25012
     2009.54973         8.42518         7.46359
     2009.55236         3.31380         7.52474
     2009.55509         6.55267         6.99839
     2009.55783        -5.91446         7.22260
     2009.56057        -6.85459         7.58109
     2009.56331        -2.10572         7.28255
     2009.56605         5.19416         7.31612
     2009.56878         1.30402         6.98520
     2009.57152         2.12188         7.12908
     2009.57426         1.13675         7.24658
     2009.57700        -3.56138         7.93599
     2009.57937        -0.95029         8.29448
     2009.59342       -15.04216         7.45040
     2009.59616         7.19270         7.28255
     2009.59890         1.70057         7.56790
     2009.60164        -1.13756         6.91806
     2009.60438        -0.59269         7.15426
     2009.60711        -3.27282         7.11829
     2009.60985        -2.61295         7.04755
     2009.61259        -1.25608         7.31252
     2009.61533        -1.09721         7.15546
     2009.61807        -0.04934         6.92286
     2009.62080         7.05552         7.69260
     2009.62355        -1.63360         6.92885
     2009.62628        -0.81974         6.99959
     2009.62902         2.64213         7.27296
     2009.63175         1.98800         6.97561
     2009.63449         0.97487         7.19023
     2009.63723        -3.17826         7.63624
     2009.63997        -5.28839         7.15066
     2009.64271         0.61449         7.54632
     2009.64544         2.13834         7.08352
     2009.64818        -5.31379         8.01872
     2009.65092         0.07608         7.16985
     2009.65366        -9.95005         7.10030
     2009.65639        -3.23218         7.31972
     2009.65913         2.80869         7.20342
     2009.66188        -9.30443         7.15186
     2009.66461         1.21743         7.04275
     2009.66735        -5.62270         7.71058
     2009.67008        -0.92084         7.45520
     2009.67282         6.36303         7.21780
     2009.67556         2.45990         7.35449
     2009.67830        -3.67723         7.39285
     2009.68104        -5.24935         7.38806
     2009.68377       -18.57849         7.34489
     2009.68651         9.17738         7.19382
     2009.68925         3.26525         6.97082
     2009.69199        -1.09088         7.22859
     2009.69472        -2.97602         7.12428
     2009.69746        -0.78715         7.02237
     2009.70114        23.50174        13.46924
     2009.70294        15.04059         7.03676
     2009.70568         2.63646         7.28615
     2009.70841        -0.90867         7.16985
     2009.71115       -15.97180         7.67341
     2009.71389         2.03407         7.44201
     2009.71663         0.91793         7.25138
     2009.71937        -2.98719         7.28615
     2009.72210        -6.04133         7.29334
     2009.72484        -5.74146         7.16505
     2009.72758       -14.20159         7.51155
     2009.73032        -3.93872         7.22859
     2009.73305         7.07315         7.30773
     2009.73579         8.23902         7.54872
     2009.73854         3.30290         7.27296
     2009.74127         1.60775         7.43002
     2009.74401         0.19262         8.02711
     2009.74698         1.65399         8.06428
     2009.74948         5.87036         7.15905
     2009.75222         0.23323         7.69140
     2009.75496         4.55510         7.88323
     2009.75770        -1.00502         7.52114
     2009.76043         5.28684         7.22859
     2009.76317        11.75871         7.87964
     2009.76591         3.64557         7.55831
     2009.76865        -0.99556         7.39405
     2009.77138         1.00831         7.35928
     2009.77418        -2.40069         7.33051
     2009.77687         2.83806         7.10870
     2009.77960         4.19492         7.49597
     2009.78234         9.30379         7.85446
     2009.78507        12.18666         8.36522
     2009.78781         4.18853         7.60627
     2009.79055        -2.44561         7.51035
     2009.79329         5.54526         7.38086
     2009.79603       -10.55086         7.75614
     2009.79876         0.90100         8.00073
     2009.80150        -1.75913         7.66382
     2009.80424         3.64474         7.51755
     2009.80698        -5.25939         8.02471
     2009.80978        -0.38839         8.55586
     2009.81245         4.55635         7.74175
     2009.81519         8.40421         7.79811
     2009.81793         9.74208         7.80290
     2009.82067         1.54795         7.38926
     2009.82340         4.34282         7.83527
     2009.82614        10.31869         7.40964
     2009.82888        -8.51344         8.70693
     2009.83162        -0.16557         7.73456
     2009.83436         3.78530         7.13268
     2009.83709        -3.04183         7.81249
     2009.83983        -3.23497         7.16985
     2009.84257         1.61490         7.71058
     2009.84531        -2.72123         7.39165
     2009.84804        -1.93536         7.69859
     2009.85078         8.60551         7.19862
     2009.85352        14.37939         7.29574
     2009.85626         9.21325         7.44561
     2009.85900        -0.24988         7.28615
     2009.86173        -9.21901         7.31972
     2009.86447         1.45485         7.71178
     2009.86721         4.94072         7.82448
     2009.86995         4.21359         7.29214
     2009.87269        10.19547         7.23819
     2009.87542        -5.81467         7.29214
     2009.87816         8.31920         7.39525
     2009.88090        -2.75593         7.43961
     2009.88364        11.22794         7.19502
     2009.88615         7.35432         7.83408
     2009.88911         7.12367         7.03796
     2009.89185         2.61155         7.12069
     2009.89459         3.58541         7.18663
     2009.89733        -5.57872         7.15186
     2009.90006        -4.47885         7.08472
     2009.90280        -1.70698         6.97082
     2009.90554        -2.70911         7.13388
     2009.90828         1.00376         7.15426
     2009.91102        -0.04537         7.11110
     2009.91375        -4.30551         7.23219
     2009.91649        -6.27964         7.20941
     2009.91923        -7.62377         7.47798
     2009.92197       -12.36590         7.02357
     2009.92470        -3.47603         7.05355
     2009.92744        -3.83316         7.08112
     2009.93018        -5.72829         7.07153
     2009.93280        -5.98967         7.33410
     2009.93657        -6.33660        14.84686
     2009.93839        -2.65269         7.31372
     2009.94113         1.39618         7.11709
     2009.94387        -4.14495         7.17584
     2009.94661         2.97292         7.17224
     2009.94935         1.49680         6.92885
     2009.95208        -2.57934         7.08951
     2009.95482        -6.10547         6.95523
     2009.95756        -4.93660         7.01758
     2009.96030        -7.50974         7.00079
     2009.96303        -2.19987         6.95283
     2009.96577        -1.99900         7.11229
     2009.96851        -6.60712         7.11349
     2009.97125         3.59974         7.21661
     2009.97399        -1.69039         7.16025
     2009.97672        -5.42252         6.96122
     2009.97946        -8.25665         7.04875
     2009.98220        -7.93778         7.05355
     2009.98494        -6.24292         7.04875
     2009.98768        -5.77404         7.01997
     2009.99041         2.99482         6.82454
     2009.99315        -8.21431         7.01638
     2009.99589        -1.53644         7.10030
     2009.99863        -3.23357         7.27056
     2010.00410         1.04117         6.89049
     2010.00684       -11.83595         7.15666
     2010.00958       -11.30610         7.42163
     2010.01232        -5.56423         7.22859
     2010.01505       -13.28036         7.04036
     2010.01779        -5.11849         7.12189
     2010.02053        -0.13862         7.27056
     2010.02327        -9.98975         7.21541
     2010.02601        -7.67287         6.88449
     2010.02874        -8.92601         7.41683
     2010.03148         3.13385         7.00199
     2010.03422        -5.08628         7.23699
     2010.03696        -3.91341         7.58709
     2010.03969        -1.45154         7.66742
     2010.04243        -0.79567         6.99360
     2010.04517         8.71021         7.07752
     2010.04776         8.37874         7.76573
     2010.05724        14.44308        19.33460
     2010.05886         9.66854         7.18064
     2010.06160         1.13641         6.98640
     2010.06434        -1.73071         7.13508
     2010.06707        -9.85685         7.01997
     2010.06981        -5.81298         7.10390
     2010.07212        -6.98204        10.24161
     2010.07637       -33.13691        15.41037
     2010.07802         2.70663         7.02357
     2010.08076        -3.27251         7.18423
     2010.08361         2.15761        11.33507
     2010.08624         6.56123         6.92406
     2010.08898        12.51410         7.25377
     2010.09171         4.16997         7.12908
     2010.09445         3.60584         7.11829
     2010.09719        -1.56129         7.20462
     2010.09993        -1.12542         6.86051
     2010.10267         3.00846         7.00319
     2010.10540         4.27031         7.13148
     2010.10814        -0.46982         7.01877
     2010.11088         0.72705         7.25617
     2010.11362        -6.36908         7.28375
     2010.11635         4.38979         7.35569
     2010.11909         3.94666         6.97321
     2010.12183         1.27954         7.07633
     2010.12457         3.92940         6.99120
     2010.12731        -5.36373         7.31732
     2010.13004        -6.24787         7.01518
     2010.13278        -3.35600         7.04275
     2010.13552         1.54087         7.06673
     2010.13826         0.90174         7.07872
     2010.14100        -6.38438         7.08352
     2010.14373        -3.71652         7.12548
     2010.14647        -1.75465         7.27056
     2010.14921         1.43522         7.19862
     2010.15195         2.05209         7.06194
     2010.15468         2.43595         6.96842
     2010.15742         1.49782         6.95523
     2010.16016         0.75870         6.94324
     2010.16290        -4.60644         7.06194
     2010.16564         3.77343         6.98400
     2010.16837         4.02330         7.03436
     2010.17111         1.69017         7.15066
     2010.17385        -3.59196         7.30413
     2010.17659         0.17390         6.98880
     2010.17932         8.14977         7.03076
     2010.18206         8.55464         7.13867
     2010.18480         1.19151         6.96362
     2010.18754         1.24838         7.22500
     2010.19028         2.85825         7.29933
     2010.19247         7.97696         9.39274
     2010.19965        10.86334        20.07317
     2010.20123        -3.39528         7.30893
     2010.20397        -7.46641         7.34849
     2010.20670        -6.08254         7.42403
     2010.20944        -5.61667         7.01758
     2010.21218        -6.72080         7.05474
     2010.21492        -1.63193         7.19263
     2010.21766        -4.85305         7.34010
     2010.22039         6.74881         7.16145
     2010.22313         2.01468         7.14946
     2010.22581        -8.21858         7.48158
     2010.22855        -3.98171         7.63505
     2010.23134         5.34828         7.46479
     2010.23368        -5.03870         8.45155
     2010.23950         0.18277         7.53553
     2010.24230        -2.26124         7.68900
     2010.24503        -2.88137         7.32571
     2010.24777         2.87350         7.47318
     2010.25051        -2.31164         7.64704
     2010.25325         8.15623         7.23219
     2010.25599         3.31011         7.24298
     2010.25872         8.03397         7.65663
     2010.26146         4.40984         7.37967
     2010.26420         3.97371         7.43002
     2010.26694        -2.83942         7.85805
     2010.26967         2.36445         7.33291
     2010.27241        -5.89368         7.56431
     2010.27515         2.48819         7.27775
     2010.27789         4.78305         7.14587
     2010.28062         0.49292         7.67461
     2010.28336        -0.26421         7.67461
     2010.28610        -4.17234         7.28854
     2010.28884         3.67353         7.17704
     2010.29158        -2.81760         7.40245
     2010.29432         8.33628         7.37247
     2010.29705        -0.40286         7.49477
     2010.29934         8.67005         8.95751
     2010.30527         8.60475         7.55591
     2010.30800        12.31361         7.23939
     2010.31074         4.27848         7.26456
     2010.31348         8.44136         7.25617
     2010.31622        10.36122         7.20821
     2010.31895        16.72409         7.55471
     2010.32169         5.81396         7.12788
     2010.32443         9.29382         7.16145
     2010.32717         6.56369         7.48038
     2010.32991         5.69856         7.08112
     2010.33242         6.86095         8.04270
     2010.33623        -2.17989        13.18988
     2010.33812         1.13017         7.35449
     2010.34086        -0.54596         7.40844
     2010.34320         8.86505         8.36162
     2010.34593        -2.28208         8.79325
     2010.34867         6.20379         8.48871
     2010.35141         2.45667         8.08946
     2010.35495         0.19024         9.22009
     2010.35735        -1.56361         8.44915
     2010.36002         2.66212         7.16985
     2010.36276         4.06198         7.86885
     2010.36558         7.29503         7.68420
     2010.36824         3.73073         7.86285
     2010.37098         3.09060         7.48517
     2010.37371         1.86346         7.27535
     2010.37645         7.75633         7.32331
     2010.37919         0.54220         7.83048
     2010.38193        -4.69393         7.45160
     2010.38466         2.66094         7.54992
     2010.38740        -1.70219         7.31852
     2010.39014         3.61669         7.31612
     2010.39288         2.46055         7.28615
     2010.39564        -3.87152         7.17224
     2010.39835        -2.68672         7.04635
     2010.40109         2.84315         6.92765
     2010.40383         1.06102         7.24178
     2010.40657         3.08689         6.95403
     2010.40931        -3.73823         7.46719
     2010.41204         0.23063         6.92526
     2010.41437         5.80061         8.24412
     2010.41834         6.52414        11.82905
     2010.42026         5.53923         7.16505
     2010.42299         0.52910         7.08951
     2010.42573         7.06397         6.90727
     2010.42847        -8.92715         6.88809
     2010.43026       -17.50132        13.99319
     2010.43474         8.26629        23.14493
     2010.43754        -4.83671        12.65274
     2010.43942        12.04032         7.11229
     2010.44216         5.55019         7.00798
     2010.44490        -3.81295         6.93485
     2010.44764         3.45793         6.97321
     2010.45037        -4.96521         7.12908
     2010.45311         3.05766         7.12788
     2010.45585         4.20753         7.70219
     2010.45859        -3.01960         7.27775
     2010.46132         3.97727         7.05235
     2010.46406        -0.37386         7.12668
     2010.46680         2.37802         7.10390
     2010.46954        -1.41013         6.99120
     2010.47227        -2.91526         6.88689
     2010.47501        -5.88039         7.08232
     2010.47708         3.84304        10.80273
     2010.48130        20.35608        11.84943
     2010.48237        13.87837        12.43093
     2010.49144         4.20682         7.21661
     2010.49739         4.02257         8.16619
     2010.49965         5.28243         7.05355
     2010.50239         7.26630         7.00918
     2010.50412        31.44301        18.87060
     2010.51414        12.66149        13.96441
     2010.51700         8.90561        11.84223
     2010.51882        -0.65349         7.08951
     2010.52156         8.22438         7.14467
     2010.52428         3.74123         7.10630
     2010.52703         7.80212         7.49716
     2010.52977         7.82599         7.17104
     2010.53251         3.28886         7.16745
     2010.53525         3.04173         6.92286
     2010.53798        -7.25540         7.13627
     2010.54072        -2.81654         7.05594
     2010.54346        -1.59466         8.35683
     2010.54620         5.08520         7.12309
     2010.54893         4.06507         7.04515
     2010.55086        -1.28879        12.08203
     2010.55835        -6.68075        22.96868
     2010.55989         3.55755         7.04755
     2010.56263         2.71543         6.95883
     2010.56536         0.06528         7.34969
     2010.56810         3.44015         7.01398
     2010.57084         2.87402         7.06913
     2010.57348        -7.84731         8.86039
     2010.57708        13.95841        11.58326
     2010.57796        22.19429        18.61762
     2010.59103         3.61631        15.68613
     2010.59274        -6.37403         7.66982
     2010.59656         5.76317        16.18251
     2010.59822        10.41371         7.66622
     2010.60096        10.49859         7.19382
     2010.60369         8.33645         7.03796
     2010.60637        -1.17080         7.65663
     2010.60917         0.56719         7.74535
     2010.61190         2.48206         6.93365
     2010.61451        -0.01136         8.11344
     2010.61859        34.71339        23.85472
     2010.62012         1.05167         7.11349
     2010.62286        -0.11647         7.15905
     2010.62559        10.01240         7.30773
     2010.62816         0.25989         8.41558
     2010.63210        13.58035        17.56612
     2010.63381         6.23901         7.32811
     2010.63655        23.62087        10.72240
     2010.64319        16.28811        28.33887
     2010.64479         1.99354         7.62785
     2010.64750         1.79435         7.15426
     2010.65023         0.32622         7.77652
     2010.65297         4.58909         7.68300
     2010.65488         9.58217        12.10960
     2010.66247        39.47145        58.88625
     2010.66392         5.86556         7.21181
     2010.66666        10.39143         7.11829
     2010.66940         2.20730         7.08112
     2010.67214         5.22417         7.34969
     2010.67488         2.23004         7.09431
     2010.67762        13.25192         7.47558
     2010.68044         9.20196         7.47079
     2010.68309        11.18565         7.12788
     2010.68583        -0.35849        10.42265
     2010.68845         1.63314         8.35323
     2010.69130         3.32525         7.04036
     2010.69404        13.18612         7.83887
     2010.69678        -4.40200         7.14107
     2010.69952         6.35486         7.16985
     2010.70216        -0.82248        10.87586
     2010.72812        31.02918        26.14835
     2010.72958         0.91929         7.23819
     2010.73240         1.44135         7.50796
     2010.73511         2.77916         7.24778
     2010.73785         5.88602         7.48757
     2010.74058        14.21189         7.51755
     2010.74332        -1.29624         9.94426
     2010.74566        15.67777        11.59405
     2010.74961        -4.51976        12.01609
     2010.75154        10.69037         7.29933
     2010.75428         8.93725         7.69979
     2010.75701         7.19911         7.28734
     2010.75975         8.43197         7.41803
     2010.76249         1.64184         7.26936
     2010.76522         7.36171         7.41204
     2010.76796        14.64658         8.57144
     2010.77070        11.35945         7.03676
     2010.77249        22.53528        12.74746
     2010.77684        -5.39740        18.97251
     2010.77975       -16.54016        15.84680
     2010.78152         8.86564         7.86885
     2010.78522        10.41458        12.06764
     2010.78713        18.17366         8.99828
     2010.78987         5.77653         7.33890
     2010.79261         1.46141         7.07513
     2010.79534         2.09327         7.35688
     2010.79808        11.41914         7.33770
     2010.80082        11.70801         7.21780
     2010.80355        15.00288         7.29214
     2010.80629        17.47774         6.85092
     2010.80903         2.44461         7.36168
     2010.81177         4.18249         7.54632
     2010.81451        22.10735         7.16385
     2010.81724        13.35822         7.27655
     2010.81998        14.95609         7.05474
     2010.82272         2.86696         7.39285
     2010.82546         7.70583        12.91052
     2010.82820         7.49570         7.27655
     2010.83094        11.07457         7.50676
     2010.83367        12.00343         7.39165
     2010.83641        -1.86770         7.12788
     2010.83915        -2.59683         7.32811
     2010.84181         3.08089         7.17344
     2010.84466        14.43400         7.55471
     2010.84736         6.14578         7.37007
     2010.85010        16.49866         6.87370
     2010.85284         6.98252         7.01997
     2010.85540        -4.29898        20.80334
     2010.86467         2.34089        12.36139
     2010.86558        -8.34917        11.95614
     2010.86955        -7.12966         8.54746
     2010.87200        -5.14540         6.97321
     2010.87480         4.39759         7.23939
     2010.87748         0.40534         7.21780
     2010.88021        10.80020         6.91566
     2010.88295         5.07707         6.92885
     2010.88569         4.33194         6.98520
     2010.88843         4.75282         7.24418
     2010.89117         8.83168         7.10750
     2010.89390         9.73055         6.96602
     2010.89664         5.84942         6.98281
     2010.89938         5.79329         7.07633
     2010.90212         0.73516         7.02957
     2010.90485         2.56302         6.96962
     2010.90759         9.89889         6.77299
     2010.91033         5.44376         6.92885
     2010.91307        -8.05537         6.75860
     2010.91581        -2.97250         7.02237
     2010.91854        -0.81963         7.01398
     2010.92128         4.30024         6.86531
     2010.92402         4.98011         6.62911
     2010.92676         0.23899         6.76819
     2010.92950        -1.43316         6.86890
     2010.93223         3.52271         6.73222
     2010.93497         2.92058         6.71184
     2010.93771         0.40345         6.79097
     2010.94045         2.66232         6.97681
     2010.94318        -0.72781         6.81135
     2010.94593         3.70607         6.81855
     2010.94866         8.45693         6.97082
     2010.95140         3.15079         6.96362
     2010.95414         2.96966         6.86411
     2010.95687         1.69153         6.91446
     2010.95961         1.18940         7.07153
     2010.96235         6.08427         6.93245
     2010.96509        13.39514         7.00079
     2010.96783         2.30301         6.92166
     2010.97056         1.86188         8.38200
     2010.97330        -4.84025         7.12189
     2010.97604        -0.71639         7.08592
     2010.97878         2.54848         6.87010
     2010.98151         4.62735         6.79816
     2010.98426         7.44523         6.91087
     2010.98699         5.33109         6.90967
     2010.98973         6.44996         7.18183
     2010.99247         4.42483         8.21415
     2010.99520         7.89770         7.09071
     2010.99749         2.59659         8.93113
     2011.00711         7.47222        11.37943
     2011.00889         6.63604         7.08712
     2011.01163        -0.60309         6.93605
     2011.01437         2.70878         6.93005
     2011.01711         1.52865         7.17104
     2011.01984        -2.56448         6.88089
     2011.02259        -2.71160         6.87610
     2011.02532        -3.02475         7.11110
     2011.02806         2.45912         7.15426
     2011.03080        -8.18301         7.12309
     2011.03353         4.40686         6.78258
     2011.03553        -6.69186        10.32194
     2011.04209         3.05121         8.22374
     2011.04449         2.08634         6.87730
     2011.04722         2.29621         7.02477
     2011.04996        -5.45993         7.04635
     2011.05270         4.48594         6.84612
     2011.05544        -3.69819         7.15546
     2011.05817        -2.47232         7.09551
     2011.06092        -2.51444         7.01278
     2011.06365         3.75842         6.71064
     2011.06639        -1.77371         7.02957
     2011.06913        -8.98384         7.29334
     2011.07186        -5.82597         6.94564
     2011.07460        -5.81511         7.10390
     2011.07734         0.95076         6.75500
     2011.08008        -5.74936         6.77179
     2011.08282       -11.25050         6.89528
     2011.08555       -16.05963         6.89528
     2011.08829        -7.32876         7.20102
     2011.09103       -15.56689         7.05115
     2011.09377         4.01298         6.81255
     2011.09650        -5.03815         6.92406
     2011.09925        -2.22828         6.79337
     2011.10198        -6.85842         7.07872
     2011.10472        -1.80755         7.05115
     2011.10746        -9.49768         7.05474
     2011.11019        -3.44281         6.89768
     2011.11293         1.51306         6.97921
     2011.11567         1.39393         6.88329
     2011.11841         0.94281         7.16025
     2011.12115         1.94366         6.99719
     2011.12388        -1.83947         7.26576
     2011.12662        -0.46160         7.11709
     2011.12936         1.62927         6.93844
     2011.13210         1.03214         6.83773
     2011.13483        -4.67799         7.11469
     2011.13758         0.93189         7.01877
     2011.14031        -4.73925         6.98880
     2011.14305        -0.53538         6.92406
     2011.14579        -0.90852         6.89888
     2011.14852        -2.35765         7.02357
     2011.15126         0.00422         6.85811
     2011.15400         2.64309         7.21900
     2011.15674         7.39797         7.10030
     2011.15948         5.66983         7.26936
     2011.16221         2.36570         6.81495
     2011.16495        -3.74643         7.30653
     2011.16769        -6.32556         6.97561
     2011.17043        -8.45170         7.24538
     2011.17316        -9.40083         6.84732
     2011.17591        -9.92995         6.84373
     2011.17864         2.38591         6.98520
     2011.18138         0.80478         7.01158
     2011.18412        -9.83735         6.87370
     2011.18685         0.32552         6.91207
     2011.18959        -0.33261         6.93245
     2011.19233        -1.64574         6.79337
     2011.19507         3.66213         7.16385
     2011.19780         2.38999         7.28375
     2011.20054         0.15586         7.05834
     2011.20328        -0.85627         7.19862
     2011.20602         5.37860         7.35569
     2011.20876        -0.39853         6.97082
     2011.21149        -5.05466         7.25257
     2011.21424        -3.81078         6.96362
     2011.21697        -2.16392         7.16625
     2011.21971        -4.91206         7.42163
     2011.22245         0.92281         7.16865
     2011.22518         3.07368         7.15905
     2011.22792        -0.61445         6.99599
     2011.23066        -0.71058         6.90128
     2011.23340        -0.85470         6.94444
     2011.23613         1.67716         7.02597
     2011.23887        -2.04697         6.94804
     2011.24161         7.27890         6.82214
     2011.24435        -0.08924         7.11469
     2011.24709        -1.27437         7.10270
     2011.24982         3.50950         6.98041
     2011.25257         3.34938         6.90607
     2011.25530         2.80624         6.92765
     2011.25804         1.49911         7.85446
     2011.26078         2.63198         7.30293
     2011.26351         3.17385         6.95763
     2011.26625        -0.44329         7.44681
     2011.26899        -0.47342         7.12788
     2011.27173         0.68346         7.27655
     2011.27446        -0.60268         7.29933
     2011.27720        -1.89581         7.40364
     2011.27994         3.45906         7.04036
     2011.28268        -0.26607         7.16745
     2011.28502       -15.06206         8.40119
     2011.28815        -4.97633         6.96003
     2011.29090         9.29754         7.04995
     2011.29483        18.75797        18.91736
     2011.29911        -4.73486         7.06074
     2011.30184        -0.44499         7.09191
     2011.30458         3.43088         7.01518
     2011.30732        13.21775         7.05714
     2011.31006        12.07763         7.04995
     2011.31279         6.99649         7.28974
     2011.31553         9.69435         6.89648
     2011.31784        -4.69869         8.46713
     2011.32181         2.76781        10.77395
     2011.32375         5.27196         7.04515
     2011.32648        -4.81217         7.18064
     2011.32923        -5.83329         6.96362
     2011.33196        -3.52043         6.97801
     2011.33470        -6.85956         7.09311
     2011.33744         1.28431         7.14946
     2011.34017         2.99117         7.72377
     2011.34291         6.53304         7.28854
     2011.34565         1.44591         6.96962
     2011.34839        -0.26921         6.97801
     2011.35112         1.03065         7.13388
     2011.35386         1.43652         6.99959
     2011.35660        -0.39561         6.88329
     2011.35934       -14.91074         6.98281
     2011.36208       -16.65387         6.90128
     2011.36481        -7.77701         7.30293
     2011.36756         1.01987         7.26576
     2011.37029         0.49273         7.04395
     2011.37303         4.05460         7.01398
     2011.37577        -6.14653         7.14347
     2011.37850       -10.14666         7.06913
     2011.38124         0.02221         7.11949
     2011.38398         3.57208         7.13627
     2011.38672        -1.82104         7.04395
     2011.38945        -1.48419         7.23579
     2011.39219        -9.55432         7.02837
     2011.39493        -7.11245         7.25138
     2011.39767        -1.31958        11.03773
     2011.39918        39.10167        25.35943
     2011.41796        37.85292        18.13683
     2011.41957        -2.87363         7.31492
     2011.42231        -9.99876         7.21661
     2011.42505         0.75012         7.21661
     2011.42778         3.40398         7.25977
     2011.43052        -4.66015         7.39525
     2011.43326       -21.58528         7.73816
     2011.43600        -8.41442         7.12309
     2011.43874        -8.85555         7.13987
     2011.44147        -4.52568         7.16865
     2011.44422         2.40920         7.17104
     2011.44695        -8.49294         7.48038
     2011.44969         0.12293         7.23339
     2011.45243        -4.76120         7.02957
     2011.45516        -7.95833         7.12788
     2011.45790        -6.58746         7.22859
     2011.46064        -1.75960         7.07033
     2011.46338        -4.60172         7.33770
     2011.46611        -7.33086         7.26097
     2011.46885        -3.19899         7.59068
     2011.47159        -4.45712         7.30173
     2011.47433         0.20675         7.41683
     2011.47707         1.25362         7.24538
     2011.47980        -2.00251         7.14587
     2011.48255         0.93737         7.24058
     2011.48528         5.60422         7.17344
     2011.48802        -1.15591         7.31972
     2011.49076         3.30696         7.18903
     2011.49349        -4.19417         7.29694
     2011.49623         1.47770         7.18423
     2011.49897         5.28357         7.27895
     2011.50171         1.89945         7.75255
     2011.50444        -5.69869         7.24538
     2011.50718        -4.34582         7.28375
     2011.50992         0.49904         7.18543
     2011.51266        -4.78509         7.61706
     2011.51540        -1.51822         7.21421
     2011.51813         8.93465         6.98640
     2011.52088         4.35253         7.22500
     2011.52361         4.68439         7.37487
     2011.52635        -0.94674         7.16025
     2011.52908        -0.03487         7.22859
     2011.53182        -2.81000         7.29933
     2011.53456         5.53986         7.11469
     2011.53730         4.79573         7.24178
     2011.54004        -4.36139         7.40484
     2011.54277        -5.83253         7.05115
     2011.54551         2.57534         7.05714
     2011.54825        -0.03379         7.15666
     2011.55099        -0.06592         7.41084
     2011.55373        -2.40505         7.29094
     2011.55646        -1.34518         7.27535
     2011.55920        -1.63032         7.39525
     2011.56194       -11.45245         7.48158
     2011.56468         6.01042         7.24058
     2011.56741         5.24829         7.21301
     2011.57015         1.92116         7.36887
     2011.57289        -0.54897         7.11709
     2011.57563        -0.57810         7.38806
     2011.57837         2.66677         7.29214
     2011.58110         3.28363         7.67701
     2011.58384         1.18350         7.18183
     2011.58658         4.88237         7.26936
     2011.58932         1.09324         7.19982
     2011.59206        -8.25689         7.22500
     2011.59479         1.23798         7.33650
     2011.59754         7.25286         7.17704
     2011.60027         5.52972         7.31492
     2011.60301         0.65459         7.40964
     2011.60574         1.02445         6.97681
     2011.60848         9.45532         7.72377
     2011.61122         3.01519         7.48517
     2011.61396         1.76006         7.23699
     2011.61670         5.78194         7.12069
     2011.61943         0.49280         7.40364
     2011.62217        -1.43633         7.37247
     2011.62491         3.47054         7.30053
     2011.62765        -1.27959         7.03556
     2011.63039        -0.38573         7.25857
     2011.63312         5.77614         7.17464
     2011.63587         9.67502         7.26696
     2011.63860         8.04188         7.27655
     2011.64134        -3.80225         7.75374
     2011.64407        -4.59838         7.24778
     2011.64681         6.70549         7.45640
     2011.64955         5.83036         7.39525
     2011.65229         2.56323         7.56191
     2011.65503        -5.48190         7.75255
     2011.65776         5.99896         7.73936
     2011.66050         5.03683         7.57989
     2011.66324         0.05170         7.26936
     2011.66598         3.40857         7.34130
     2011.66872         3.68044         7.73336
     2011.67145        -1.04969         7.13388
     2011.67420        -0.66281         6.98400
     2011.67693         4.92005         7.20342
     2011.67967         7.51691         7.20462
     2011.68240         7.14478         7.40964
     2011.68514         1.01865         7.31732
     2011.68788        -4.52048         7.63624
     2011.69062        -3.96761         7.19382
     2011.69336         5.03827         7.28015
     2011.69609        -1.16387         7.66022
     2011.69883         8.19900         7.30293
     2011.70157        -3.89213         7.38686
     2011.70431        13.29273         7.29334
     2011.70705         3.67660         7.37367
     2011.70978         5.29647         7.55591
     2011.71252         2.63734         7.35209
     2011.71526       -13.45879         7.71178
     2011.71800        -3.04192         7.50436
     2011.72073         5.11795         7.51275
     2011.72347         9.87782         7.33291
     2011.72621        19.09168         7.28255
     2011.72895         1.05855         7.43122
     2011.73169         2.72343         7.37367
     2011.73442         2.62129         7.20342
     2011.73716         5.99716         7.51395
     2011.73990         7.20603         7.30533
     2011.74264         4.22890         7.47079
     2011.74538         8.56277         7.40245
     2011.74811        15.72564         7.48517
     2011.75085         4.52950         7.49477
     2011.75359         6.35237         7.58469
     2011.75633        14.58824         7.21900
     2011.75906        12.72011         7.15905
     2011.76180        11.14498         7.22140
     2011.76454        11.16385         7.38686
     2011.76728         7.14972         7.16145
     2011.77002         2.86760         8.37721
     2011.77275         4.65246         8.21295
     2011.77549         7.95832         8.66256
     2011.77823         1.91819         7.25737
     2011.78097         9.38506         7.19382
     2011.78371         7.20293         7.18903
     2011.78644         8.88180         7.04875
     2011.78919         4.63968         7.04515
     2011.79192         7.65854         7.02477
     2011.79466         1.51341         6.97681
     2011.79739         8.03828         7.28255
     2011.80013        10.60814         7.08712
     2011.80287         0.58101         7.09791
     2011.80561         3.51588         7.49237
     2011.80835         3.55176         7.13627
     2011.81108         8.75662         7.13268
     2011.81382         5.78449         7.69499
     2011.81650         1.30324         7.12428
     2011.81930         2.13923         7.26576
     2011.82203        10.45710         7.18183
     2011.82477         7.36696         7.45880
     2011.82752         4.71384         7.23939
     2011.83033        -5.83811         7.76573
     2011.83299         2.28357         7.27176
     2011.83572        -1.11956         7.33890
     2011.83846         4.53231         7.43841
     2011.84120        10.08818         7.47918
     2011.84394         9.62305         7.43602
     2011.84668         1.04093         7.67461
     2011.84941        -2.06222         7.37967
     2011.85215        -0.51535         7.38086
     2011.85489        -6.23648         7.35089
     2011.85763         8.58839         7.42643
     2011.86036        14.12626         7.52234
     2011.86310         2.16113         7.73576
     2011.86585         3.86101         7.36168
     2011.86858        15.58587         7.10030
     2011.87132         6.17574         7.40245
     2011.87405         7.94660         7.66862
     2011.87679        -0.11253         7.73456
     2011.87953         9.70634         7.28974
     2011.88227         6.64321         7.19862
     2011.88501         8.97409         7.18663
     2011.88774         3.40895         7.29334
     2011.89048         7.90282         7.34609
     2011.89319        15.35061         7.47438
     2011.90788        14.25311        13.60832
     2011.90965         5.95590         7.25257
     2011.91238         5.65977         7.24298
     2011.91512         5.94164         7.16745
     2011.91786         0.79251         7.40604
     2011.92060        -2.37963         7.20102
     2011.92334        -5.24976         7.18423
     2011.92607        -7.01189         7.39285
     2011.92881         5.40498         7.47438
     2011.93155         2.27585         7.19502
     2011.93429         2.19672         7.30773
     2011.93702         2.31559         7.23219
     2011.93976         1.12946         7.21421
     2011.94251        15.74334         7.21421
     2011.94524        18.56619         7.12548
     2011.94798         5.36406         7.06074
     2011.95071         6.88593         7.15666
     2011.95345         4.20080         7.28015
     2011.95619         3.69667         7.47079
     2011.95893         4.57054         6.92526
     2011.96165        10.28438         7.22740
     2011.96449         6.65047         7.28974
     2011.96714         4.87915         7.28015
     2011.96988        12.21001         6.95763
     2011.97262         2.48088         6.98281
     2011.97535        -1.95325         7.19023
     2011.97809        -6.26438         7.09191
     2011.98084         0.24850         7.06793
     2011.98357         7.70236         7.13867
     2011.98631        15.83723         7.00798
     2011.98904         2.09910         7.20941
     2011.99178        11.98797         7.28615
     2011.99452        13.39383         7.22140
     2011.99726         6.94870         7.06434
     2012.00273         4.74644         7.01278
     2012.00547         5.27731         7.29574
     2012.00821         6.04918         6.99480
     2012.01095         6.98405         7.08832
     2012.01368         6.85892         7.03316
     2012.01642         9.34579         6.98520
     2012.01916         7.75666         6.97921
     2012.02190         2.35052         7.09431
     2012.02464         7.97939         7.12908
     2012.02737         2.57326         6.89888
     2012.03011         0.96613         7.00319
     2012.03285         0.68600         7.05594
     2012.03559         2.09287         6.90727
     2012.03833        11.36575         7.05594
     2012.04106        11.52160         6.81255
     2012.04380         8.43047         6.92166
     2012.04654         7.14234         7.06434
     2012.04928        14.99821         7.19622
     2012.05201        16.25508         7.06074
     2012.05475        13.14095         7.06194
     2012.05749         6.48783         7.08951
     2012.06023        11.56969         7.04755
     2012.06297         5.79156         7.02237
     2012.06570         8.07442         7.06434
     2012.06844         7.13829         7.08472
     2012.07118         2.16116         6.94804
     2012.07392         0.80703         6.88569
     2012.07666         7.60091         6.97202
     2012.07939         5.38077         6.91686
     2012.08213         9.18264         6.88929
     2012.08487         7.45851         6.96722
     2012.08761         0.09538         7.21061
     2012.09034        -5.47176         7.05235
     2012.09308         1.36911         7.45040
     2012.09582        10.27599         7.03196
     2012.09856         3.01785         6.90128
     2012.10130         8.35372         7.45400
     2012.10403        -2.91341         7.20342
     2012.10677        -1.51654         7.32571
     2012.10951         7.47033         7.39285
     2012.11225         1.05420         7.20941
     2012.11499         3.62107         7.52474
     2012.11772         5.77593         7.21421
     2012.12046         8.59880         7.45040
     2012.12320         4.13767         7.24658
     2012.12594        -0.02946         7.39885
     2012.12867         3.46741         7.10630
     2012.13141        -5.83872         7.41324
     2012.13415         2.50716         7.29214
     2012.13689        10.67802         7.38086
     2012.13963         4.33888         7.56551
     2012.14236         4.62975         7.83767
     2012.14510        -1.79438         7.38926
     2012.14784         0.37849         6.96722
     2012.15058         1.83736         7.26696
     2012.15332        -0.65276         7.15186
     2012.15605         3.07110         7.36887
     2012.15879         2.49297         7.52954
     2012.16153         7.35284         7.32331
     2012.16427        10.94070         7.29933
     2012.16700         1.15357         7.41084
     2012.16974         1.44344         7.25977
     2012.17248         2.60532         7.48158
     2012.17522        12.29618         7.29094
     2012.17796         5.61005         7.04515
     2012.18069         0.37792         7.16625
     2012.18343        -4.71221         7.31972
     2012.18617        -2.85734         7.24058
     2012.18891         4.53952         7.21181
     2012.19165        12.14340         7.44441
     2012.19438        12.51326         7.48517
     2012.19712         6.75513         7.20821
     2012.19986         2.38300         7.28495
     2012.20260        14.57087         7.34370
     2012.20533         9.96874         7.45760
     2012.20807        16.96461         7.16865
     2012.21081         7.94449         6.96362
     2012.21355         4.75734         7.41444
     2012.21629         0.24621         7.43362
     2012.21902         3.35808         7.38446
     2012.22176         4.74995         7.32931
     2012.22450         3.92082         7.35569
     2012.22724         3.21069         7.10150
     2012.22998         6.49657         7.24778
     2012.23271         9.39343         7.23939
     2012.23545        13.04229         7.17704
     2012.23819        12.46216         7.20102
     2012.24093         5.49603         7.12788
     2012.24366        -1.88510         7.36768
     2012.24640         2.47177         6.94444
     2012.24914         6.51065         7.42403
     2012.25188        10.76451         7.14946
     2012.25462         3.39538         7.26097
     2012.25735         6.52625         7.52834
     2012.26009        -1.19789         7.20581
     2012.26283         0.93298         6.95283
     2012.26557         1.97085         6.98520
     2012.26831         1.79873         7.05355
     2012.27104         6.40859         7.47558
     2012.27378         6.77646         7.11229
     2012.27652         5.93233         7.29694
     2012.27926         9.76820         7.47199
     2012.28199         1.59607         7.43961
     2012.28473        16.48093         7.05834
     2012.28747         1.91781         7.14946
     2012.29021        -3.41533         7.42163
     2012.29295        -2.13346         7.38806
     2012.29568        -3.21659         7.43722
     2012.29842         1.74228         7.15666
     2012.30116        -1.64785         7.31372
     2012.30390         3.23502         7.35089
     2012.30664        -8.06010         7.25377
     2012.30937         4.23875         7.52834
     2012.31211        -3.01738         7.79930
     2012.31485        14.14149         7.38686
     2012.31759         2.27836         7.25737
     2012.32032         3.35623         7.37007
     2012.32306         0.25610         7.20821
     2012.32580         1.91198         6.89168
     2012.32854         5.41284         7.18064
     2012.33128         4.39771         7.33770
     2012.33401         4.72657         7.01038
     2012.33675         0.36444         6.98640
     2012.33949         1.70831         7.09311
     2012.34223        -9.03382         6.98281
     2012.34497        -6.71694         7.29214
     2012.34770        -1.65208         7.30893
     2012.35044        -1.27122         7.10270
     2012.35318         1.00266         7.10870
     2012.35592         0.93652         7.33051
     2012.35865        -3.25361         6.96003
     2012.36139         0.50726         7.00319
     2012.36413        -3.09386         7.99714
     2012.36687        -0.02300         7.08951
     2012.36961        -0.65913         7.11469
     2012.37234        -0.28226         7.24298
     2012.37508        -1.07539         7.13148
     2012.37782         1.75548         7.25138
     2012.38056        -4.73066         7.35808
     2012.38330         1.09722         7.24778
     2012.38603        -1.00992         7.41204
     2012.38877        -1.35805         7.41683
     2012.39151        -3.37418         6.98520
     2012.39425        -2.28231         7.50796
     2012.39698         1.77056         7.50676
     2012.39972         1.07843         7.08592
     2012.40246        -2.30869         7.21061
     2012.40520        -5.59184         7.31372
     2012.40794        -6.97397         7.43722
     2012.41067        -2.92910         7.02717
     2012.41341         1.91677         6.97082
     2012.41615         0.84964         7.08352
     2012.41889        -1.58949         7.74535
     2012.42162         1.78538         7.10390
     2012.42436         5.59025         7.00679
     2012.42710        -2.49388         7.07633
     2012.42984         4.59398         7.18663
     2012.43258        -7.66515         7.23939
     2012.43531       -11.45928         7.37367
     2012.43805         5.01959         7.03076
     2012.44079        -8.46453         7.27296
     2012.44353        -4.70967         7.00679
     2012.44626         3.53820         7.36288
     2012.44900        -7.91993         7.30773
     2012.45174         4.33494         7.12189
     2012.45448         2.45480         7.09551
     2012.45722        -1.52233         7.13388
     2012.45995        -6.37146         7.53553
     2012.46269         5.09941         7.22020
     2012.46543        -0.56872         7.06913
     2012.46817        -0.06985         7.23579
     2012.47091        -3.67798         7.44561
     2012.47364         0.05089         7.32931
     2012.47638        -4.97724         8.27650
     2012.47912         6.15863         7.24178
     2012.48186         4.37649         6.94684
     2012.48459        12.00136         7.11229
     2012.48733         2.00023         7.13867
     2012.49007        -1.81990         7.17824
     2012.49281         4.23097         7.24178
     2012.49555         5.62184         7.29454
     2012.49833         4.58481         7.42762
     2012.50102         8.97557         7.07633
     2012.50376        -5.85156         7.23339
     2012.50650         3.09831         7.16745
     2012.50924         9.58818         7.14227
     2012.51197        -3.95595         7.28495
     2012.51471         2.69392         7.20222
     2012.51745        -1.28020         7.20342
     2012.52019         7.56766         7.39525
     2012.52292        -5.49447         7.26576
     2012.52566         6.70639         7.13508
     2012.52840        -4.41574         7.28854
     2012.53114         1.56513         7.16505
     2012.53388       -11.82100         7.31612
     2012.53662         4.49688         7.25497
     2012.53935        -2.93726         7.27895
     2012.54209         2.88561         7.16505
     2012.54483         5.74548         7.04395
     2012.54757         4.34035         7.07752
     2012.55030        -5.27079         7.36048
     2012.55304         5.34808         6.99240
     2012.55578         4.90296         6.94804
     2012.55852        -4.56018         7.07393
     2012.56125         5.39869         6.88209
     2012.56399        -0.68444         6.93485
     2012.56673        11.93443         7.06793
     2012.56947         8.26330         7.39765
     2012.57221         9.26017         7.11829
     2012.57494        -2.34897         7.00199
     2012.57768         4.95690         7.25737
     2012.58042        -1.20423         7.71178
     2012.58316        12.59164         7.19622
     2012.58590         4.85051         6.95883
     2012.58858        11.56026         7.11110
     2012.59138         8.72927         6.95163
     2012.59411         9.03913         6.99240
     2012.59685        13.67899         7.30893
     2012.59958        12.85185         6.94084
     2012.60232         2.45872         7.38446
     2012.60506         0.96259         6.85691
     2012.60780         8.54646         7.35209
     2012.61054        12.83533         7.12548
     2012.61328        10.65021         6.99599
     2012.61601         4.21607         7.15306
     2012.61875         5.03394         7.35569
     2012.62149         5.43581         7.39165
     2012.62423        13.54467         7.01038
     2012.62696         4.31854         7.09431
     2012.62926        10.15546         8.92274
     2012.65520        26.58807        13.12513
     2012.65708        16.81310         7.39165
     2012.65982         6.78697         7.17104
     2012.66256         6.08584         7.11469
     2012.66529         6.43271         7.21541
     2012.66803         7.35058         7.25138
     2012.67077        10.01346         7.10990
     2012.67351         5.47631         7.22500
     2012.67624         4.94918         7.00079
     2012.67898         3.17205         7.13747
     2012.68172         2.34092         7.18303
     2012.68446        10.93479         6.99000
     2012.68720         7.00266         6.83893
     2012.68994        -3.13946         7.74295
     2012.69267        -6.23060         7.51035
     2012.69541         8.54326         7.40005
     2012.69815         0.99113         7.18903
     2012.70089        -1.09400         7.19023
     2012.70362         0.50187         7.05355
     2012.70636         3.09674         7.10630
     2012.70910        -3.86338         6.94204
     2012.71184         0.42248         7.20941
     2012.71457         5.35635         7.29574
     2012.71731        11.15722         7.22979
     2012.72005        11.32608         6.98640
     2012.72279         3.06495         6.98880
     2012.72553        10.92282         7.31252
     2012.72827         2.66670         7.25857
     2012.73100         4.76756         7.27655
     2012.73374        18.73843         7.19982
     2012.73648         4.90430         7.21900
     2012.73921         1.56717         7.35688
     2012.74195         0.55304         7.51994
     2012.74469         1.76590         7.22620
     2012.74743         6.01978         7.26456
     2012.75017         8.46364         7.28255
     2012.75290         2.92551         7.36528
     2012.75564         5.28138         7.52354
     2012.75838         6.73925         7.00319
     2012.76112         3.04212         7.16265
     2012.76386        11.12799         6.92406
     2012.76659        10.08586         7.23699
     2012.76933         7.49372         7.14826
     2012.77207         9.31659         7.44921
     2012.77481         4.59447         7.47438
     2012.77754         3.86033         7.42043
     2012.78028        11.26020         7.36648
     2012.78302        -3.57593         7.48158
     2012.78576         9.19195         7.35089
     2012.78850         7.04381         7.34729
     2012.79123        -1.70732         7.75135
     2012.79397        10.65354         7.37367
     2012.79671         5.78241         7.57150
     2012.79945        13.32728         7.83168
     2012.80219        15.00515         7.92520
     2012.80493         7.45503         7.42403
     2012.80766        -0.91811         7.90362
     2012.81040         3.69876         7.54273
     2012.81314         3.69663         7.40604
     2012.81587        -0.59051         7.35089
     2012.81861        -4.78764         7.91800
     2012.82135        -3.20377         7.55232
     2012.82409        -1.32989         7.47438
     2012.82659         2.12947         8.00673
     2012.83307         3.69235        12.25108
     2012.83504         0.11558         7.42283
     2012.83778         4.12645         7.87844
     2012.84052        -5.61869         8.72731
     2012.84325        -2.76583         7.90841
     2012.84611        -1.42868         9.19491
     2012.84873        -4.20508         8.43596
     2012.85147         2.63679         7.89043
     2012.85420         7.51566         7.59788
     2012.85694         3.77653         7.80290
     2012.85968        -0.92360         7.20102
     2012.86242       -11.69872         7.32931
     2012.86516        23.61013        10.00301
     2012.86789         5.62700         7.45760
     2012.87063         2.60387         7.50556
     2012.87337         1.80374         7.19982
     2012.87611         2.48861         7.34609
     2012.87885         4.46948         7.43602
     2012.88158         9.80435         7.05954
     2012.88432        16.24722         7.33410
     2012.88706         6.10209         7.51875
     2012.88980         9.88395         7.92879
     2012.89247        -3.51431         7.34130
     2012.89527        -7.29931         7.00079
     2012.89801         5.70656         7.22140
     2012.90075         4.80144         7.13508
     2012.90349        -1.53470         7.38926
     2012.90622        -9.62183         7.88803
     2012.90896        -5.95396         7.37127
     2012.91170        12.47791         9.79799
     2012.91444         8.25877         9.75722
     2012.91718        13.37664         9.78360
     2012.91992         1.85052        10.59890
     2012.92265        -7.82062        10.39867
     2012.92539        -3.22975        10.10732
     2012.92816        -4.75381        11.69956
     2012.93086        -0.74101         9.06782
     2012.93360         4.99886         9.77761
     2012.93634        -2.72627         7.96236
     2012.93908        -2.85141         8.18537
     2012.94182        -7.98554         9.14695
     2012.94459        11.92640        10.89625
     2012.94732        20.35527        11.11686
     2012.95003        -4.69293        13.50041
     2012.95277         3.07994         8.25851
     2012.95551         7.50081         7.95637
     2012.95825        13.78269         7.50915
     2012.96098        19.50355         7.34729
     2012.96372         8.00941         7.28135
     2012.96646         4.49328         7.10030
     2012.96919        -4.95785         7.48997
     2012.97193        -8.60898         8.09065
     2012.97467        12.77889         7.08712
     2012.97741         8.53277         7.42163
     2012.98015         4.42363         7.82089
     2012.98288        -4.96551         8.22254
     2012.98567         4.22048         6.96722
     2012.98836         5.67323         7.11709
     2012.99110         8.22310         7.07393
     2012.99384         0.59497         8.27170
     2012.99657         1.42184         7.69859
     2012.99931        -8.16329         7.95157
     2013.00205        10.10158         7.86405
     2013.00479         3.11645         7.06673
     2013.00752        -7.92768         7.21541
     2013.01026         0.48718         7.22260
     2013.01300         2.57405         7.17464
     2013.01574         2.63293         7.04036
     2013.01848         4.85079         7.11949
     2013.02121        -2.04034         7.01158
     2013.02395        -7.45747         7.55711
     2013.02669         5.85740         7.39645
     2013.02943        -0.07973         7.28015
     2013.03216         3.10114         6.87250
     2013.03491        -5.02499         7.02357
     2013.03764        -8.24713         7.23219
     2013.04038       -10.78926         7.09791
     2013.04312        -4.56139         7.26336
     2013.04585        -7.47952         7.44801
     2013.04859        -3.12365         7.25857
     2013.05133        -8.11878         7.16745
     2013.05407        -3.20490         7.28375
     2013.05681        -3.63204         6.95883
     2013.05954        -4.25918         7.22859
     2013.06228        -9.84031         7.35688
     2013.06502        -2.16844         7.21661
     2013.06776        -4.19457         7.24418
     2013.07049         4.46630         7.37967
     2013.07324         1.68818         7.56910
     2013.07597        -2.45196         7.28375
     2013.07871        -5.22109         7.12309
     2013.08145         7.75678         7.21061
     2013.08418        -3.16536         7.16745
     2013.08692        -0.98749         7.04275
     2013.08966        -6.47862         6.88809
     2013.09240        -9.66374         7.23699
     2013.09514         0.67612         7.36768
     2013.09787         3.05399         7.46839
     2013.10061         0.13886         7.45280
     2013.10335         4.26773         7.19502
     2013.10594        -4.78871         7.74295
     2013.11720         1.92042         7.58589
     2013.11978        -3.47206         7.34489
     2013.12251        -9.03619         7.17344
     2013.12525       -12.76932         6.95163
     2013.12799        -4.26345         7.01278
     2013.13073        -2.46759         7.11110
     2013.13347        -3.90272         7.27296
     2013.13618        -2.57090         7.33770
     2013.13894         0.78402         7.29574
     2013.14168        -0.31911         7.27895
     2013.14442         2.66576         7.24298
     2013.14715         1.52163         7.48038
     2013.14990        -5.92049         7.22500
     2013.15263        -4.98563         7.06434
     2013.15537       -10.70077         7.19982
     2013.15811        -8.09990         7.28255
     2013.16084        -1.00303         7.16265
     2013.16358       -12.28916         7.44561
     2013.16632       -10.89529         7.18663
     2013.16906         9.32558         7.10270
     2013.17180        -4.46655         7.17104
     2013.17453        -0.77868         6.99360
     2013.17727         0.34119         7.43602
     2013.18001         2.48605         7.34849
     2013.18275         4.29292         6.90607
     2013.18548        -2.02421         6.88569
     2013.18823       -15.85833         7.26816
     2013.19096        -8.19047         7.13028
     2013.19370        -8.36860         7.03316
     2013.19644         4.00227         7.13747
     2013.19917        -6.44586         7.24418
     2013.20191        -0.01199         7.09911
     2013.20465        -3.72613         7.09551
     2013.20739         0.69875         6.94564
     2013.21013         1.19361         7.25018
     2013.21286         5.27048         6.79936
     2013.21560         0.22735         7.13747
     2013.21834        -5.68278         7.13508
     2013.22108        -9.97891         7.07752
     2013.22381        -4.93804         7.11110
     2013.22656         0.35984         6.95883
     2013.22929        -8.00831         7.22140
     2013.23203       -10.20744         7.02477
     2013.23477        -7.11557         6.95403
     2013.23750        -7.00870         7.10990
     2013.24024        -4.03983         7.19023
     2013.24298        -5.66496         7.05714
     2013.24572        -4.28408         7.22380
     2013.24846        -3.79722         7.27895
     2013.25119         1.61965         7.13987
     2013.25393        -4.59849         7.01997
     2013.25667        -0.57562         7.47079
     2013.25941         1.13525         7.42403
     2013.26214        -6.06388         7.47199
     2013.26489         3.26900         7.32451
     2013.26762        -0.42314         7.16145
     2013.27036        -5.82427         7.51035
     2013.27310       -15.43140         7.70938
     2013.27583        -5.58854         7.42043
     2013.27857        -6.98467         7.45880
     2013.28131         3.60320         7.51875
     2013.28405        -3.38592         7.20581
     2013.28679        -9.49906         7.34010
     2013.28952        -8.28019         7.20462
     2013.29226       -11.28232         7.46479
     2013.29500        -5.43945         7.24178
     2013.29765        -7.64777         7.58229
     2013.31690        -6.34750         7.28495
     2013.31964       -13.32763         7.49477
     2013.32238        -6.46075         7.46839
     2013.32512        -7.86690         7.57150
     2013.32785        -5.82103         7.32451
     2013.33059        -9.27116         7.11110
     2013.33333       -19.79029         7.53074
     2013.33607       -17.05242         7.44681
     2013.33880        -5.22255         7.42283
     2013.34155        -8.08167         7.31732
     2013.34428        -5.32381         7.33291
     2013.34702         1.34306         7.39645
     2013.34976        -5.60908         7.42403
     2013.35249        -5.70821         7.21301
     2013.35523        -2.48334         7.50796
     2013.35797        -5.78047         7.33171
     2013.36071        -1.35159         7.52474
     2013.36344        -3.86473         7.31612
     2013.36618        -5.30986         7.39046
     2013.36892         1.59501         7.24058
     2013.37166        -7.18812         7.21421
     2013.37440        -4.87426         7.08951
     2013.37713        -7.56439         7.32211
     2013.37987       -15.27152         7.33890
     2013.38261       -10.10665         7.32092
     2013.38535        -5.57878         7.26097
     2013.38809         1.26009         7.22859
     2013.39082        -1.41604         7.28615
     2013.39907        -4.86036         8.55346
     2013.40177        -0.40457         7.34969
     2013.40451        -7.57870         7.31132
     2013.40725        -1.63883         7.79571
     2013.40999        -6.44796         7.72976
     2013.41273        -5.80809         7.49956
     2013.41546       -10.83422         7.58349
     2013.41821        -4.32134         7.61586
     2013.42094         3.07552         7.54992
     2013.42368       -12.41962         7.62306
     2013.42642        -7.44775         7.76334
     2013.42915        -0.58288         7.28135
     2013.43190        -9.76100         7.47558
     2013.43463        -2.37914         7.32571
     2013.43737       -13.03426         7.43961
     2013.44010        -5.27040         7.32092
     2013.44284         7.09047         7.47678
     2013.44558        -6.06867         7.37487
     2013.44832        -7.33980         7.32331
     2013.45106        -7.51193         7.28135
     2013.45379         1.24894         7.12668
     2013.45654        -3.77118         7.29214
     2013.45927        -8.86132         8.67335
     2013.46201       -11.41645         7.31372
     2013.46475        -3.07358         7.47438
     2013.46748        -9.55571         7.17464
     2013.47022        -4.28885         7.37127
     2013.47296        -1.93498         7.12548
     2013.47570        -4.87910         7.37127
     2013.47806         1.93897         9.55939
     2013.48121        -1.17530         9.98503
     2013.48391        -8.06750         8.06428
     2013.48665        -2.74663        10.15049
     2013.48939        -7.25076         7.99953
     2013.49212        -2.44389         9.10139
     2013.49487       -14.60002         9.35437
     2013.49760       -11.46416         7.95637
     2013.50034        -8.08929         7.47079
     2013.50308         0.52058         7.22740
     2013.50581        -1.71255         7.23459
     2013.50855         1.53632         7.28015
     2013.51129         2.84619         6.97321
     2013.51403         7.08107         7.24898
     2013.51676        -6.54207         7.50196
     2013.51950        -0.12421         7.10510
     2013.52224        -3.33934         7.17224
     2013.52498         0.16453         7.41084
     2013.52772         1.99340         7.21900
     2013.53023        -3.51022         7.84247
     2013.54798         9.32085        19.72787
     2013.54855        -5.36594        16.60335
     2013.56149         0.76879        13.69944
     2013.56331        -4.12130         7.74655
     2013.56605        -4.20943         7.24418
     2013.56878        -2.39557         7.39285
     2013.57152         1.10730         7.35808
     2013.57426         6.50017         7.35089
     2013.57700         2.78904         7.37847
     2013.57974        -4.32209         7.37127
     2013.58247        10.88878         7.44441
     2013.58521        -2.46235         7.40005
     2013.58795         0.78252         7.19862
     2013.59069        13.22838         7.41803
     2013.59342        -3.79175         7.61826
     2013.59616        -9.76288         7.62186
     2013.59890         1.92199         7.31252
     2013.60164         2.71386         7.18423
     2013.60438         5.50173         7.30533
     2013.60711         3.02960         7.45280
     2013.60985         4.22847         7.97915
     2013.61259         5.96034         7.45400
     2013.61533         5.44720         7.51635
     2013.61807        -3.01593         7.63145
     2013.61981         5.23682        13.04720
     2013.62446        -2.91922        14.69219
     2013.62628         2.27268         7.08112
     2013.62902         2.11155         7.52114
     2013.63175         2.60342         7.33890
     2013.63449         4.88929         7.33410
     2013.63723        13.07516         7.18903
     2013.63997         2.96802         7.31852
     2013.64271         0.68789         7.50316
     2013.64544         7.30876         7.30773
     2013.64818         7.56863         7.19742
     2013.65092         7.29950         7.30053
     2013.65366         3.56237         7.53433
     2013.65639        12.45724         7.39165
     2013.65913         6.17411         7.62066
     2013.66187        -0.36902         7.70938
     2013.66461         7.65284         7.15905
     2013.66735        10.53071         7.23099
     2013.67008         4.01858         7.45880
     2013.67282        -0.95655         7.94558
     2013.67556        -2.25868         7.79211
     2013.67830         8.20019         7.50436
     2013.68104         0.18806         7.72017
     2013.68377         2.22793         7.69140
     2013.68651        -1.83620         7.33291
     2013.68925         6.40566         7.10030
     2013.69199         7.47853         7.22859
     2013.69472         7.62040         7.31732
     2013.69746         7.13727         7.36768
     2013.70020         7.25914         7.26097
     2013.70294         5.29801         7.22979
     2013.70568        -0.24612         7.59908
     2013.70841         5.69875         9.44429
     2013.71115        16.15462         7.15186
     2013.71389         7.16148         7.30293
     2013.71663        -4.21365         7.27535
     2013.71937        -1.06878         7.29454
     2013.72210         8.25509         7.38926
     2013.72484        17.82596         7.13148
     2013.72758         9.85783         7.53193
     2013.73032         2.56070         7.16265
     2013.73305         1.11757         7.20581
     2013.73579        12.46344         7.09191
     2013.73853         7.44830         7.23579
     2013.74127         3.43617         7.17944
     2013.74401         9.96904         7.63265
     2013.74674        -4.01009         7.39645
     2013.74948        13.83078        10.96579
     2013.75222         3.11965         7.39046
     2013.75496        -2.21848         7.20222
     2013.75775        -3.36550         7.70099
     2013.76043        -4.50875         7.23819
     2013.76317        -5.09788         7.42163
     2013.76591         0.58999         7.53553
     2013.76865         4.65186         7.29094
     2013.77105         3.25202         8.47552
     2013.77807         1.55807        26.77661
     2013.77960         2.56734         7.17224
     2013.78182        -1.38389         9.49825
     2013.78587       -13.27521        11.86981
     2013.78781        -8.09506         7.29334
     2013.79055         2.87981         7.31132
     2013.79329        -5.98032         7.41803
     2013.79603         5.05655         7.16985
     2013.79876        -0.65658         7.19382
     2013.80150        -2.49271         7.53793
     2013.80424         6.72416         7.29334
     2013.80698         7.43803         7.13987
     2013.80971        10.48889         7.11229
     2013.81245         8.63376         7.21661
     2013.81519         3.54163         7.15786
     2013.81793        -2.33750         6.97321
     2013.82067         0.48737         7.40245
     2013.82340         3.19724         7.17224
     2013.82569         8.73413         8.75728
     2013.82888         7.67098         7.13268
     2013.83162         6.53485         7.06673
     2013.83436        11.42471         7.59908
     2013.83672        -2.54922         8.86399
     2013.84330        -1.63312        10.92862
     2013.84531        -0.11981         7.38566
     2013.84804         2.20006         6.94923
     2013.85078        -6.41007         7.36288
     2013.85315        -1.88099         8.62300
     2013.86221         3.07643         9.22848
     2013.86447        -3.36173         7.35329
     2013.86721        -5.47086         7.28854
     2013.86995        -5.55999         7.24658
     2013.87269         8.04288         7.24778
     2013.87542        16.08975         7.07273
     2013.87816         7.88662         6.98640
     2013.88071         8.10309         7.68780
     2013.88743         3.22348        14.45719
     2013.88858         5.49496         9.25725
     2013.89225        -2.89518         8.04150
     2013.89459        -6.85917         7.05714
     2013.89733         0.27770         7.19862
     2013.90006        -7.67943         7.20462
     2013.90280        -4.50356         7.06074
     2013.90554        -2.52970         7.23459
     2013.90828         4.94917         7.22140
     2013.91102         0.84904         7.13867
     2013.91375        -6.27509         7.04635
     2013.91649         5.74478         7.07153
     2013.91923         3.81965         7.55352
     2013.92197         0.02052         7.08951
     2013.92470        -1.41161         7.02957
     2013.92744        -3.18874         7.31492
     2014.02105         4.84092         9.13016
     2014.02216         0.67429        16.85993
     2014.02725        19.81320        26.50924
     2014.02874         6.22040         7.20342
     2014.03148         8.04527         7.34010
     2014.03422         9.70314         7.38326
     2014.03696        -0.86199         7.22020
     2014.03969         5.96588         7.12908
     2014.04243        -1.66225         7.13987
     2014.04517        -3.52538         7.45640
     2014.04791        -1.22451         7.18783
     2014.05065         3.74635         7.24058
     2014.05338        -1.99078         7.16985
     2014.05612        -7.84691         6.97681
     2014.05886        -6.69304         7.22859
     2014.06160         2.46283         7.27655
     2014.06404        -1.12494         8.15780
     2014.07341        11.97016        11.29670
     2014.07529        -2.44183         7.57869
     2014.07802       -11.06096         7.08592
     2014.08076         8.29091         7.00918
     2014.08350        -1.09822         7.21900
     2014.08624        -4.46735         7.27176
     2014.09017         3.94309        29.96108
     2014.09171        -1.00561         7.36288
     2014.09445        -5.00074         7.17704
     2014.09712        -6.31403         7.51994
     2014.09995        -2.11995         7.25377
     2014.10220         4.61586         9.16973
     2014.36921       -14.10577        15.50509
     2014.37097        -4.84499         7.37007
     2014.37371        -4.31012         7.33890
     2014.37645         0.62875         7.06194
     2014.37919         1.56162         7.12668
     2014.38193        -6.02051         7.30053
     2014.38466         6.52036         7.15426
     2014.38740         3.56423         7.12309
     2014.39014        -4.12391         7.39165
     2014.39288        -5.50504         7.42882
     2014.39561         1.10583         7.29574
     2014.39835         2.84570         7.23579
     2014.40109         5.94357         7.25617
     2014.40383        -1.73256         7.17224
     2014.40657       -21.07069         7.34010
     2014.41001       -26.72532        13.80015
     2014.41153       -35.33204        19.00369
     2014.41605        -7.09935        37.49901
     2014.42842       -45.10484         8.50070
     2014.43394       -41.63100         9.51983
     2014.43668       -29.64613        11.06770
     2014.43817       -49.60595        40.71825
     2014.44490       -31.37653        13.41768
     2014.45946       -43.16630        13.13472
     2014.46132       -47.99731        11.49813
     2014.46406       -38.62545        10.66485
     2014.47302       -37.44124        12.35060
     2014.47501       -26.82998        14.70058
     2014.47866       -40.14516        12.88294
     2014.48596       -34.91449         7.32811
     2014.48870       -39.52963         7.56071
     2014.49144       -34.89776         7.17224
     2014.49418       -37.34089         7.20581
     2014.51557       -31.45003         8.88317
     2014.51903       -32.44462         8.13502
     2014.52156       -35.10120         6.95283
     2014.52429       -30.38333         6.55238
     2014.52703       -31.97246         6.65788
     2014.52977       -34.58759         6.61832
     2014.53800       -28.83096         6.65429
     2014.54072       -29.98112         6.70105
     2014.54303       -19.33318         7.82568
     2014.55824       -57.65956        18.84063
     2014.56262       -31.93617         6.68426
     2014.56536       -33.47330         6.63750
     2014.57067       -34.48892         7.03076
     2014.57478       -42.08911        23.52860
     2014.57905       -29.82895         6.66148
     2014.58179       -33.81008         6.76339
     2014.59822       -32.22587         6.96842
     2014.60095       -34.45400         6.81375
     2014.60369       -31.81613         6.76819
     2014.60864       -34.99352         8.57264
     2014.61276       -32.98770        12.05445
