# ================= DQRFIT RESULTS ================
# INPUT FILE: series/MYRA.rad
# OUTPUT: LDETRENDED
# FILTER FUNCTION: f(t)
# f(t)=+line(t)+annual(t)
# line(t)=+P 1+P 2*t
# annual(t)=+P 3*sin(2*pi*t+P 4)
# heav(t)=(t<0?0:1)
# TOTAL OBSERVATIONS MTOT= 1298
# INITIAL TIME INTERVAL= 2022.4995 - 2012.0520 = 10.4475
# TOTAL OBSERVATIONS AFTER PREFILTER M= 1281
# TIME-SPAN= 2022.4995 - 2012.0520 = 10.4475
# OBSERVATIONS: USED M=  1281 REJECTED MTOT-M=    17 %USED=   98.6903
# N=  4 PARAMETERS
# MAXSIG= 175.00000
# MAXRES=  24.87835
# SCALE FACTOR FOR LENGTHS: SCL=  10.00000
# SCALE FACTOR FOR SIGMAS: SCLSIG=   1.00000
# CHI^2=   1939.283 DOF=  1277 CHI^2/DOF=   1.51862
# RMS=      8.970 SDEV=      8.932 MEAN=   -0.86408
#  P #       PARAMETER +-    SIGMA %error PARAMETER NAME
# P 1 =    -11801.26861 +-  382.309   3.24 YZERO                              
# P 2 =         5.86166 +-    0.189   3.23 SLOPE                              
# P 3 =         6.42940 +-    0.344   5.35 ANNUAL AMPLITUDE                   
# P 4 =        -2.89893 +-    0.073   2.53 ANNUAL PHASE                       
#       T            LDETRENDED       SIG_OBS
     2012.05201         0.45255         7.85977
     2012.92539        -1.29188         8.17278
     2012.92813        -6.96292         8.14197
     2012.93086         2.47803         8.20728
     2013.39082        -7.08510         8.17771
     2013.39630        -4.18619         7.97930
     2014.66940        11.97232         8.08035
     2014.68856         6.98698         7.98053
     2014.69130         2.53493         8.09637
     2014.80903         8.74285         8.11116
     2014.93497       -22.71637         8.03969
     2014.93771       -15.02242         8.10746
     2015.77002         2.51088         8.56589
     2016.07118        -4.93744         8.50550
     2016.07392        -4.27549         8.48456
     2016.07666        -3.18154         8.55480
     2016.07939         6.43242         8.45991
     2016.08213       -10.06363         8.54247
     2016.08487        -5.30168         9.38415
     2016.08761       -12.90273         8.33791
     2016.09034        -6.84878         8.26890
     2016.09308        -1.74183         8.32066
     2016.09582       -16.02887         8.31819
     2016.09856       -11.71192         8.29478
     2016.10130       -16.39397         8.31326
     2016.10403       -15.46502         8.35270
     2016.10677        -8.53707         8.25165
     2016.10951        -8.99512         8.35146
     2016.11225        -3.93216         8.42787
     2016.11498        -7.89821         8.38104
     2016.11772        -5.32326         8.27876
     2016.12046        -9.49631         8.24795
     2016.12320        -5.89736         8.31573
     2016.12594        -9.76341         8.57821
     2016.12867       -14.63645         8.34284
     2016.13141         5.50850         8.20235
     2016.13415        -4.26355         8.20605
     2016.13689       -10.68360         8.24672
     2016.13963        -6.30865         8.26890
     2016.14236       -21.41670         8.21098
     2016.14510       -15.31874         8.22823
     2016.14784       -20.33679         8.18880
     2016.15058       -16.94884         8.30464
     2016.15331       -11.97089         8.42047
     2016.15605        -5.81194         8.27136
     2016.15879       -10.86999         8.41062
     2016.16153        -3.07603         8.43649
     2016.16427       -19.41408         8.47346
     2016.16700        -8.12313         8.14936
     2016.16974        -9.69618         8.26397
     2016.17248       -12.75423         8.46114
     2016.17522        -6.05028         8.40199
     2016.17796        -0.82032         8.42664
     2016.18069       -12.00937         8.36748
     2016.18343       -13.85442         8.44019
     2016.18617         0.31553         8.13827
     2016.18891        -5.68152         8.16415
     2016.19164        -2.68757         7.99532
     2016.19438        -4.39761         8.05940
     2016.19712       -12.75666         8.03722
     2016.19986       -11.74271         8.27752
     2016.20260       -11.26576         8.36872
     2016.20533       -17.15281         8.63120
     2016.20807       -14.00786         8.42417
     2016.21081       -18.36090         8.33175
     2016.21355       -13.96195         8.19003
     2016.21629        -2.48100         8.07912
     2016.21902        -6.79405         8.14690
     2016.22176        -4.86310         8.05201
     2016.22450       -17.52015         8.21714
     2016.22724        -6.90419         8.04215
     2016.22997        -6.84124         8.06310
     2016.23271       -12.78329         8.25041
     2016.23545       -13.14134         8.10993
     2016.67077         7.89497         8.39952
     2016.67351         3.88292         8.05201
     2016.67624         6.89887         8.04708
     2016.67898         3.85783         8.06926
     2016.68172         9.00978         8.09144
     2016.68446        12.62573         8.41308
     2016.78028        -7.28596         8.19742
     2016.78302        -2.29801         8.33298
     2016.78576         4.32694         8.31449
     2016.78850        11.56689         8.24548
     2016.79123        10.39784         8.24056
     2016.79397        13.49780         8.18387
     2016.79671         7.28375         8.10746
     2016.79945       -11.92630         8.17278
     2016.80219        -9.48135         8.35639
     2016.80492        -2.62840         8.18510
     2016.80766         3.35755         8.13581
     2016.81040        -5.87749         8.16292
     2016.81314        -1.03654         8.17278
     2016.81587        -9.00459         8.05571
     2016.81861         2.81236         8.20851
     2016.82135         0.04431         8.30094
     2016.82409        -2.68774         8.03722
     2016.82683         1.79722         8.15183
     2016.82956        10.42917         8.04954
     2016.83230         5.48612         7.99779
     2016.83504        -3.53993         8.02983
     2016.83778        -0.17898         8.20975
     2016.84052        -3.84203         8.12348
     2016.84325       -13.44108         8.32189
     2016.84599        -2.07212         8.29847
     2016.84873         0.29883         7.98793
     2016.85147        -5.09722         8.11116
     2016.85420        -9.23527         8.12965
     2016.85694        -4.76932         8.15676
     2016.85968         1.88763         8.47470
     2016.86242        -1.34441         8.04092
     2016.86516         5.49454         8.41555
     2016.86789        -0.79651         8.05571
     2016.87063         1.67444         8.21837
     2016.87337         8.52839         8.16785
     2016.87611        -3.06866         8.16662
     2016.87885        -5.15370         8.05571
     2016.88158       -12.16675         8.10870
     2016.88432         0.24420         8.21714
     2016.88706        -1.03285         8.23809
     2016.88980         1.58410         8.15306
     2016.89253         3.08205         8.20482
     2016.89527       -31.91399         8.26274
     2016.89801        -7.30904         8.27136
     2016.90075        -3.74509         8.16538
     2016.90349        -3.75714         8.45251
     2016.90622        -1.11919         8.24056
     2016.90896        -5.61824         8.00641
     2016.91170       -10.06828         8.12225
     2016.91444        -1.00633         8.10130
     2016.91718        -3.66838         8.30340
     2016.91991        -8.06643         8.31696
     2016.92265        -1.43148         8.09637
     2016.92539       -11.39453         8.06556
     2016.92813       -11.07057         8.14197
     2016.93086        -7.85862         9.41496
     2016.93357        -9.51550        12.46989
     2016.93740         6.53507        24.17698
     2016.94558       -21.81588        16.00050
     2016.94729        -7.96991         8.13704
     2016.94913       -11.84067        14.84582
     2016.95387         8.72753        26.35080
     2016.95659       -23.80244        22.03766
     2016.95936        -4.23965        23.27122
     2016.96214        -5.29495        26.39393
     2016.96502       -14.09581        68.80685
     2016.96708        -0.79693        10.91593
     2016.96919        -3.32630         8.18757
     2016.97193        -5.65435         8.11116
     2016.97467        -2.84140         8.44759
     2016.97741         0.79556         9.68114
     2016.98015       -14.59152        22.44063
     2016.98660       -20.25833        15.48046
     2016.98836        -7.21264         8.11116
     2016.99110        -5.57269         8.26150
     2016.99384        -5.96973         8.26027
     2016.99657         4.49222        12.40581
     2016.99931       -14.31083        34.03434
     2017.00202       -38.43671        34.03311
     2017.00588       -21.94836        25.77530
     2017.00868       -11.99477        26.60712
     2017.01126       -15.36385        28.46423
     2017.01406        -8.19429        18.13982
     2017.01574       -18.98212        13.95238
     2017.01848        -1.67217         9.85367
     2017.01992       -13.19464       302.88013
     2017.02466       -25.39842        12.65967
     2017.02574        -3.42877        15.20196
     2017.03055       -13.60397        24.51587
     2017.03328        -6.93293        23.45730
     2017.03876         2.51694        32.00224
     2017.04154         8.44964        33.66341
     2017.04579         3.90671        14.75462
     2017.04872        10.94657        13.49149
     2017.05133        15.79025        12.29860
     2017.05407         8.97620        11.53826
     2017.05681        12.92015        11.29549
     2017.05954         0.98310        11.36327
     2017.06208         5.90823        13.11933
     2017.06502       -17.55002        12.50440
     2017.06776        -9.69604        11.76500
     2017.07049        -5.77309        11.71201
     2017.07323        -8.76614        11.61466
     2017.07597        -6.23919        11.64670
     2017.07871       -22.12723        11.94862
     2017.08145       -10.56928        11.82416
     2017.08418       -19.65933        22.14364
     2017.08692       -11.66138        26.31260
     2017.09514       -18.23752        17.08248
     2017.10335       -22.88770        23.82453
     2017.11159        -6.61495        11.59618
     2017.11430       -12.80286        11.34848
     2017.11704       -14.50891        12.04721
     2017.11953       -13.73554        12.39842
     2017.12261        -1.95656        12.00161
     2017.12525         1.77994        11.59001
     2017.12799         1.27790        11.68860
     2017.13349         2.59566        12.68062
     2017.13620        -3.60425        11.36819
     2017.13867        -6.53474        13.51121
     2017.14974       -22.07257        18.69560
     2017.15534        -7.95639        12.21357
     2017.16358       -11.90873        11.54319
     2017.16632         6.67722        11.43474
     2017.16906       -12.56183        11.53826
     2017.18001       -37.57802        16.14961
     2017.19097       -12.68930        11.52224
     2017.19370        -5.40526        11.37189
     2017.19608       -12.81325        13.52476
     2017.20465       -13.14946        12.60422
     2017.20739       -19.37451        11.67751
     2017.21013        -3.69156        11.70955
     2017.22108        -1.99075        11.60234
     2017.22381        -7.33880        12.36638
     2017.22655       -21.67185        12.25793
     2017.22872       -11.28952        15.77252
     2017.23221       -13.26300        17.41275
     2017.23477       -13.08199        11.59125
     2017.23725        -8.87556        12.79030
     2017.24299       -10.34922        16.12127
     2017.24576       -22.63543        14.38616
     2017.24846       -15.16623        13.41509
     2017.25101       -24.35319        17.33388
     2017.25372        -0.54307        22.17322
     2017.25685       -13.15346        12.21480
     2017.25940        -5.06537        12.41074
     2017.26212       -42.18031        12.40951
     2017.26499       -21.48114        12.08294
     2017.26742       -15.45940        12.67323
     2017.27039       -10.06781        11.75145
     2017.27273       -14.92852        13.47054
     2017.27556       -10.62313        20.77083
     2017.27880       -16.52510        12.08418
     2017.28131       -19.99981        12.05090
     2017.28405       -13.63686        12.63133
     2017.28669       -16.18832        12.77797
     2017.28968       -16.19985        13.23024
     2017.29228       -15.01309        11.76993
     2017.29500       -12.79705        11.52100
     2017.29774       -17.31410        11.70215
     2017.30338       -16.63520        29.03110
     2017.30608       -21.47000        11.61343
     2017.30869        -4.27130        13.94622
     2017.31170       -14.92393        15.27220
     2017.31431       -14.96426        12.65474
     2017.31690       -17.10744        12.09650
     2017.31928       -22.85540        13.52476
     2017.32200       -25.23231        21.83679
     2017.32550       -19.98887        15.15143
     2017.32785        -4.74363        13.33252
     2017.33031       -21.98901        14.15941
     2017.33334       -15.24579        14.39725
     2017.33607       -10.47578        11.63931
     2017.33880        -7.17483        12.60791
     2017.34154       -11.47688        12.21727
     2017.34428        -9.72492        12.28012
     2017.34702       -15.49497        11.74282
     2017.34976       -11.69002        11.80197
     2017.35249       -14.58807        11.30042
     2017.35523       -11.90712        12.85315
     2017.35797       -11.83717        11.41749
     2017.36071       -13.42121        11.58755
     2017.36344       -15.53126        11.27331
     2017.36618       -13.04031        11.36573
     2017.36892        -6.24836        11.53456
     2017.37166        -5.01941        12.04351
     2017.37440       -11.62148        11.69599
     2017.37713        -9.56750        11.43351
     2017.37987       -12.93555        11.56906
     2017.38261        -5.68360        11.29056
     2017.38535       -19.43465        11.25112
     2017.38809        -3.98170        11.49266
     2017.39082        -3.04375        11.49266
     2017.39356        -5.52680        11.46432
     2017.39630        -6.58884        11.42735
     2017.39904        -6.27289        11.45323
     2017.40177        -4.14294        11.31274
     2017.40451        -4.00499        12.22836
     2017.40725        -5.41304        11.52100
     2017.40999        -1.59609        11.31028
     2017.41273        -3.60513        11.47910
     2017.41546        -9.00918        11.24743
     2017.41820         3.53777        11.83525
     2017.42094        -2.65128        11.59864
     2017.42368       -16.76233        11.35094
     2017.42642        -3.16638        11.30658
     2017.42915        -5.97842        11.36450
     2017.43189        -4.13147        12.04967
     2017.43463       -14.21752        11.62082
     2017.43737        -4.02757        11.45446
     2017.44010       -12.19762        11.48157
     2017.44284        -2.10167        11.34848
     2017.44558        -6.15371        11.49759
     2017.44832        -5.13076        11.40147
     2017.45106        -4.99681        11.46678
     2017.45379         5.16214        12.25793
     2017.45653        -5.80791        12.15565
     2017.45927        -2.02696        11.49020
     2017.46201        -1.16300        11.31397
     2017.46475        -0.56705        11.35834
     2017.46748       -15.07110        11.49020
     2017.47022        -5.89315        11.48403
     2017.47296         2.30980        11.65902
     2017.47570        -9.64225        11.44213
     2017.47843       -12.18629        11.35094
     2017.48117        -7.41134        11.63561
     2017.48391       -11.66939        11.75391
     2017.48665        -1.93044        11.42365
     2017.48939         1.06251        11.31274
     2017.49212         1.49846        11.51484
     2017.49486        -7.64758        11.82908
     2017.49760       -12.62063        12.14456
     2017.50034        -0.63968        11.37805
     2017.50308        -5.67773        11.50868
     2017.50581        -4.00078        11.53702
     2017.50855        -9.07783        11.43104
     2017.51129       -26.28087        11.59248
     2017.51403         9.35208        11.85620
     2017.51676        -2.27897        11.62945
     2017.51950       -15.09202        11.55797
     2017.52224         6.51093        11.56660
     2017.52498        -2.59012        11.39284
     2017.52772       -14.07016        12.03735
     2017.53045         1.37479        11.62082
     2017.53319         5.25074        11.26468
     2017.53593         0.83769        11.67504
     2017.53867        -5.02936        11.46925
     2017.54141         2.01459        11.60603
     2017.54414         3.45655        11.51607
     2017.54688         9.17050        11.78226
     2017.54962        -3.67155        11.75391
     2017.55236       -13.24060        11.74405
     2017.55509        -2.62365        11.68737
     2017.55783        -7.13170        11.75884
     2017.56057        -4.71374        11.58755
     2017.56331        -1.64079        11.62082
     2017.56605        -1.68484        11.74898
     2017.56878        -6.00489        11.95232
     2017.57152        -4.00194        11.87222
     2017.57426       -12.98199        11.70585
     2017.57700       -14.73003        11.70585
     2017.57974        -9.12508        12.00284
     2017.58247         0.31487        11.69969
     2017.58521        -9.52818        11.45446
     2017.58795       -11.20023        11.70832
     2017.59069        -6.38228        11.71078
     2017.59342         0.12167        11.66272
     2017.59616        -0.19137        11.63068
     2017.59890         4.51358        11.52593
     2017.60164         2.40653        11.62452
     2017.60438        -6.55952        11.41009
     2017.60711         1.55543        11.82785
     2017.60985       -13.15462        11.63931
     2017.61259        -1.98466        12.29367
     2017.61533        -7.04071        11.90179
     2017.61807        -4.77176        11.57523
     2017.62080       -13.42481        11.49759
     2017.62354         8.31314        11.78349
     2017.62628        -7.38091        11.65656
     2017.62902         1.29905        12.14086
     2017.63175       -15.13900        11.73173
     2017.63449        -8.58905        12.07678
     2017.63723        -7.85310        11.67011
     2017.63997         4.37685        11.74405
     2017.64271         8.73780        11.81183
     2017.64544         5.28376        11.58385
     2017.64818        -1.85429        11.77856
     2017.65092        -1.82834        11.44337
     2017.65366        -4.91339        11.63191
     2017.65639       -10.48644        11.45446
     2017.65913         7.62351        11.67135
     2017.66187       -15.67153        11.77117
     2017.66461         5.41142        11.75761
     2017.66735         6.84837        12.02009
     2017.67008         9.76132        11.42242
     2017.67282        -8.88873        11.78719
     2017.67556        -3.23378        11.81060
     2017.67830         5.54318        12.13963
     2017.68104         4.53713        11.90179
     2017.68377         2.09608        13.03183
     2017.68652        -3.53500        12.09773
     2017.68925        15.77098        12.04721
     2017.69199         2.60893        11.74405
     2017.69472         8.91489        11.54811
     2017.69746        -0.26516        12.04844
     2017.70020         2.24279        11.35094
     2017.70294         3.96674        11.59494
     2017.70568        -5.14131        11.42488
     2017.70841         1.64964        11.45076
     2017.71115         2.13260        11.87715
     2017.71389        13.55055        11.59741
     2017.71663        12.79350        11.55058
     2017.71937         4.44645        11.55428
     2017.72210        -5.64260        11.55304
     2017.72484        -5.62565        11.62452
     2017.72758         0.72831        11.46678
     2017.73032         0.36326        11.58632
     2017.73305        -0.32279        11.54935
     2017.73579       -12.14584        11.57769
     2017.73853        -0.82389        14.21363
     2017.74401        14.05102         8.09884
     2017.74674        16.82297         8.08405
     2017.74948        24.56892         7.99779
     2017.75222         9.73587         7.92385
     2017.75496         9.57582         7.90413
     2017.75770         7.74077         8.19249
     2017.76043         9.48473         8.00025
     2017.76317        15.03868         8.06187
     2017.76591        14.33363         7.90660
     2017.76865        15.44858         7.85730
     2017.77138        11.54953         7.98423
     2017.77412         9.96048         7.95835
     2017.77686         6.86943         7.90536
     2017.77960         9.75739         7.90290
     2017.78234         8.49634         7.84621
     2017.78507         7.10029         7.85484
     2017.78781        19.02424         7.97191
     2017.79055        10.20519         8.18387
     2017.79329         7.79814         8.15183
     2017.79603         7.91610         7.93987
     2017.79876        11.86605         8.34777
     2017.80150        22.70100         8.21961
     2017.80424        17.55195         8.07049
     2017.80698         9.89090         8.35886
     2017.80971        18.99085         8.05201
     2017.81245         9.77381         8.10007
     2017.81519        10.27776         8.27752
     2017.81793         4.62371         7.88072
     2017.82067         6.86966         7.99902
     2017.82340         2.60561         7.87455
     2017.82614         4.66556         7.99409
     2017.82888         5.27652         7.85607
     2017.83162        10.54147         8.18264
     2017.83436        10.55142         7.88811
     2017.83709         6.03737         8.11239
     2017.84257       -15.30573         8.01750
     2017.84531       -29.30277         8.12348
     2017.84804         1.22118         7.81787
     2017.85078        11.80513         7.95219
     2017.85352         0.58608         7.92754
     2017.85626        13.56403         8.36995
     2017.85900        18.81498         8.33175
     2017.86173        24.03794         8.37365
     2017.86447        20.03089         7.93864
     2017.86721         2.18284         8.08405
     2017.87542       -12.69731         8.03106
     2017.87816         8.73865         7.92508
     2017.88090        17.66160         7.89797
     2017.88364         7.60655         7.90660
     2017.88637        22.95350         7.95589
     2017.88911        10.63245         7.92754
     2017.89185         6.59740         8.11609
     2017.89459        10.61736         7.97191
     2017.89733        13.03831         8.20605
     2017.90006         6.35226         8.08775
     2017.90280         3.49321         8.02490
     2017.90554        13.92416         7.98793
     2017.90828         5.92911         8.14197
     2017.91102        13.59407         8.21344
     2017.91375         7.72602         8.29971
     2017.91649        11.28897         8.03969
     2017.91923       -12.75508         8.00765
     2017.92197        14.28187         8.05324
     2017.92470         8.86782         8.12595
     2017.92744         1.01778         8.09514
     2017.93018        -0.50227         8.04092
     2017.93292        10.80468         8.12841
     2017.93566         7.72263         8.09884
     2017.93839        11.11158         8.15676
     2017.94113         4.30153         8.23316
     2017.94387        11.13949         8.08898
     2017.94661        15.95744         8.22823
     2017.94935         7.30739         7.98300
     2017.95208         7.22334         8.16045
     2017.95482        13.92429         8.07912
     2017.95756        10.11124         8.00148
     2017.96030        17.49719         8.04585
     2017.96303        20.05015         8.11732
     2017.96577        11.29010         8.24918
     2017.96851       -26.06495         8.07912
     2017.97125       -10.01100         8.02243
     2017.97399       -11.25005         8.01504
     2017.97672       -17.01710         7.98670
     2017.97946        -9.89314         8.03722
     2017.98220       -30.32119         8.15060
     2017.98494       -31.21724         8.12841
     2017.98767       -23.54529         8.07173
     2017.99863         2.35952         8.10130
     2018.00136        -6.45553         8.25165
     2018.00410        -1.33958         8.09268
     2018.00684         5.72437         8.01627
     2018.00958        19.51832         8.08159
     2018.01232         8.31628         8.16785
     2018.01505        16.68023         8.19126
     2018.01779       -10.80482         8.10377
     2018.02053        10.00413         8.01134
     2018.02327       -15.31392         8.05078
     2018.02600         4.36303         8.03845
     2018.02874         4.83999         8.11609
     2018.03148        -0.85906         8.06556
     2018.03422        11.18989         8.06433
     2018.03696         9.02284         8.02860
     2018.03969         6.23879         8.24795
     2018.04243        -4.21526         8.19619
     2018.04517        -2.67130         8.15799
     2018.04791       -19.42735         8.13704
     2018.05338        -1.69645         8.13088
     2018.05612       -39.45450         8.37981
     2018.05886       -15.78255         8.16292
     2018.06160       -20.01259         8.15676
     2018.06433         3.27136         8.44266
     2018.06707       -25.29969         8.35516
     2018.07255       -14.58879         8.24918
     2018.07802       -16.79088         8.48456
     2018.08076       -19.60393         8.36379
     2018.08350       -11.38998         8.31203
     2018.08624       -11.44703         8.31573
     2018.08898       -16.37408         8.48948
     2018.09171        -0.28113         8.29971
     2018.09445         0.32683         8.32559
     2018.09719         1.52978         8.46484
     2018.09993        -2.34127         8.18757
     2018.10266        -1.93232         8.32189
     2018.10540        -9.24737         8.51536
     2018.10814        -2.95942         8.14936
     2018.11088        -5.17146         8.27260
     2018.11362        -3.94051         8.33051
     2018.11635        -6.27456         8.12965
     2018.11909       -10.67161         8.38843
     2018.12183        -7.00866         8.35393
     2018.12457        -1.61071         8.14320
     2018.12731        -8.90075         8.35270
     2018.13004         3.07520         8.30587
     2018.13278        -2.16385         8.10500
     2018.13552         3.24410         8.11609
     2018.13826        -3.70695         8.10377
     2018.14099        -2.62700         8.20482
     2018.14373        -5.57604         8.16662
     2018.14647        -2.17609         8.58807
     2018.14921        -4.32314         8.32066
     2018.15195       -10.20719         8.14197
     2018.15468        -5.67624         8.21468
     2018.15742        -4.39329         8.28369
     2018.16016         0.96666         8.26274
     2018.16290       -18.75138         8.45005
     2018.16564        -4.03143         8.34530
     2018.16837        -7.84848         8.17031
     2018.17111        -7.12453         8.14074
     2018.17385        -6.66358         8.22946
     2018.17659        -2.46963         8.16908
     2018.17932        -0.05367         8.27506
     2018.18206         0.22128         8.29478
     2018.18480        -0.30977         8.33544
     2018.18754        -6.88682         8.08159
     2018.19028        -3.38487         8.19989
     2018.19301         0.63908         8.14813
     2018.19575       -10.47696         8.14690
     2018.19849        -1.17101         8.08775
     2018.20123         0.89394         8.23686
     2018.20397         2.81189         8.07049
     2018.20670         2.52284         8.01997
     2018.20944         2.01179         8.07049
     2018.21218        -3.39725         7.95712
     2018.21492       -21.31930         8.00395
     2018.21765        -2.59935         8.07173
     2018.22039         1.64260         8.12472
     2018.22313       -16.24145         8.29354
     2018.22587       -10.92750         8.22946
     2018.22861       -10.30054         8.06064
     2018.23134        -4.68359         8.11116
     2018.23408        -4.91464         8.21837
     2018.23682        -6.43769         8.09021
     2018.23956        -1.66574         8.18757
     2018.24230         3.03621         8.22207
     2018.24503        -5.36783         8.07419
     2018.24777        -5.30188         8.07049
     2018.25051        -2.06393         8.11239
     2018.25325        -3.35298         8.08159
     2018.25598         0.01497         8.05201
     2018.25872       -24.38608         8.28862
     2018.26146         8.58188         8.30464
     2018.26420       -10.31417         8.36256
     2018.26694        -1.58422         8.00765
     2018.26967        -8.48127         8.00518
     2018.27241        -9.32832         7.96328
     2018.27515         8.66663         8.00518
     2018.27789        -3.45941         8.19126
     2018.28062        -6.99046         8.39213
     2018.28336        -7.16351         8.10993
     2018.28610        -3.73856         8.04215
     2018.28884         5.42639         7.94849
     2018.29158         1.00134         8.26643
     2018.29431        -1.88870         8.13827
     2018.29705        -3.70675         8.03352
     2018.29979       -12.92880         8.08651
     2018.30253        -4.67985         8.08159
     2018.30527        -3.29090         7.98177
     2018.30800        -5.79295         7.98300
     2018.31074        -2.31499         8.01504
     2018.31348        -3.77804         7.98053
     2018.31622        -6.79709         7.99902
     2018.31895         3.63486         8.19989
     2018.32169        -2.36419         8.03969
     2018.32443         3.39576         8.02983
     2018.32717         2.36472         7.99409
     2018.32991         1.27667         8.22207
     2018.33264        -1.45438         7.96821
     2018.33538        -5.30143         8.24425
     2018.33812        -1.91548         8.25041
     2018.34086        -0.66953         7.98546
     2018.34360        -7.66358         7.99163
     2018.34633        -7.33862         8.02860
     2018.34907         4.97833         8.12841
     2018.35181        -0.47672         8.08405
     2018.35455         5.84923         7.94233
     2018.35728        10.83218         7.97561
     2018.36002         0.44813         7.88934
     2018.36276         5.43109         8.16169
     2018.36550        -0.30196         7.88441
     2018.36824         2.56399         7.96451
     2018.37097         2.75594         7.96698
     2018.37371         1.78189         7.99163
     2018.37645        -2.39916         8.31326
     2018.37919         4.46880         8.05817
     2018.38193        -0.13925         7.93864
     2018.38466         4.96070         7.98670
     2018.38740         7.39365         8.02490
     2018.39014         6.90360         8.01257
     2018.39288        -2.22745         8.05078
     2018.39561         1.28851         8.13334
     2018.39835         4.16246         7.93247
     2018.40109         2.77141         7.99902
     2018.40383         4.06036         7.97068
     2018.40657         6.75431         8.00025
     2018.40930        12.06726         8.20605
     2018.41204        13.63722         7.99532
     2018.41478         1.21817         7.94480
     2018.41752         4.88912         8.14690
     2018.42026        -1.46293         7.96575
     2018.42299        -1.23898         7.96082
     2018.42573         9.30697         7.96944
     2018.42847         8.44893         7.96698
     2018.43121         7.39288         8.02983
     2018.43394        10.27383         7.91769
     2018.43668        -2.18922         7.94233
     2018.43942         3.39573         7.95466
     2018.44216         9.83468         7.94110
     2018.44490         6.89064         8.04954
     2018.44763         5.25659         8.15060
     2018.45037         2.06754         7.88811
     2018.45311         6.99849         7.92754
     2018.45585        11.63844         7.96205
     2018.45859         5.19639         7.95589
     2018.46132         3.86735         7.92015
     2018.46406        12.63730         7.94603
     2018.46680         4.78225         7.90783
     2018.46954         4.70420         8.02983
     2018.47227        12.16715         8.26274
     2018.47501        16.40810         7.89797
     2018.47775         7.41806         8.05817
     2018.48049         1.88501         8.03229
     2018.48323         4.48896         7.97807
     2018.48596         1.47691         8.06926
     2018.48870         3.76886         8.00888
     2018.49144        13.61681         7.93494
     2018.49418        16.29177         8.18633
     2018.49692         9.14272         8.17771
     2018.49965         7.38067         8.04092
     2018.50239        11.18062         7.95589
     2018.50513        10.63957         8.05940
     2018.50787        12.14252         8.13211
     2018.51060         6.94948         8.11486
     2018.51334         9.83643         8.03476
     2018.51608         9.00838         7.98793
     2018.51882         8.41433         8.01257
     2018.52156         7.34628         8.01874
     2018.52429         8.02123         8.02120
     2018.52703        11.51018         8.14936
     2018.52977         4.78614         8.08775
     2018.53251         7.28709         8.13458
     2018.53525        21.15504         7.99286
     2018.53798         8.35499         8.04585
     2018.54072         7.22994         8.06064
     2018.54346        12.68789         8.07419
     2018.54620         9.71785         7.95466
     2018.54893        11.83480         8.07912
     2018.55167         8.53275         8.08159
     2018.55441         5.44170         8.06433
     2018.55715        10.70565         8.08898
     2018.55989         6.82360         8.29478
     2018.56262         8.07756         8.05571
     2018.56536        10.84351         7.98793
     2018.56810        18.78546         8.17647
     2018.57084        20.28241         7.99902
     2018.57357        15.41436         8.37734
     2018.57631        12.89131         8.47470
     2018.57905         1.77827         8.43773
     2018.58179         9.61222         8.26397
     2018.58453        10.14717         8.34161
     2018.58726        12.58112         7.94973
     2018.59000        14.92207         8.04215
     2018.59274        19.85002         7.96944
     2018.59548        15.22298         8.18633
     2018.59822        11.94193         7.98546
     2018.60095        12.90088         8.03476
     2018.60369         6.66783         8.04585
     2018.60643         7.54278         8.02243
     2018.60917        10.82273         8.16908
     2018.61190        12.52169         7.93617
     2018.61464         9.04864         8.01257
     2018.61738        12.22459         7.93494
     2018.62012        11.09954         8.04462
     2018.62286        16.95349         8.11116
     2018.62559         2.56644         8.18387
     2018.62833         5.73440         8.04338
     2018.63107         9.75135         7.92015
     2018.63381        11.72230         8.11855
     2018.63655        10.22525         7.95342
     2018.63928         6.70020         8.30340
     2018.64202         5.63015         8.56466
     2018.64476        19.03411         8.02490
     2018.64750        11.81506         8.00641
     2018.65023        19.89601         8.53755
     2018.65297        14.35396         7.93617
     2018.65571        13.42791         8.09884
     2018.65845        11.60186         8.17894
     2018.66119        11.83282         7.90043
     2018.66392         9.89677         8.03352
     2018.66666        12.99072         7.93494
     2018.66940         4.96767         7.89920
     2018.67214         9.78462         8.10746
     2018.67488        13.32657         8.03845
     2018.67761        10.09853         7.96328
     2018.68035         8.54248         8.14074
     2018.68309        -7.07057         8.40692
     2018.68583        11.52038         8.10007
     2018.68856        13.43533         8.26767
     2018.69130        15.19328         8.39336
     2018.69404        14.87724         8.51783
     2018.69678        16.29619         8.08775
     2018.69952         8.60614         8.06187
     2018.70225         4.72609         8.29231
     2018.70499         9.57704         8.17401
     2018.70773         4.08399         8.04215
     2018.71047         6.99094         8.02983
     2018.71321         4.40490         8.05817
     2018.71594         5.64585         8.08159
     2018.71868        11.04780         8.01011
     2018.72142         2.46875         8.08528
     2018.72416        14.23070         8.22577
     2018.72689        12.15765         8.00641
     2018.72963         2.13761         8.14074
     2018.73237         5.37856         7.96944
     2018.73511         3.86051         7.96205
     2018.73785         1.25046         7.92631
     2018.74058         0.67941         7.95712
     2018.74332        10.02436         8.04215
     2018.74606         4.08532         8.01627
     2018.74880         8.70427         8.09761
     2018.75154         2.41322         7.96451
     2018.75427         3.05417         7.94726
     2018.75701         2.33012         8.06803
     2018.75975         6.17507         7.91029
     2018.76249         4.81303         7.89920
     2018.76522        10.37098         8.24918
     2018.76796        15.17593         7.96821
     2018.77070        13.24288         7.88688
     2018.77344         5.10883         8.05201
     2018.77618         9.02278         7.92262
     2018.77891        11.21474         7.85484
     2018.78165         0.61469         7.84128
     2018.78439        -0.37836         7.86346
     2018.78713        -3.67541         7.99039
     2018.78987        -6.35546         8.08898
     2018.79260         3.53749         8.00888
     2018.79534        12.02745         7.94849
     2018.79808        -5.42660         7.91029
     2018.80082         0.28735         8.16415
     2018.80355         8.31130         8.04338
     2018.80629         4.95525         8.19742
     2018.80903         7.78720         8.23932
     2018.81145         3.38299         9.74029
     2018.81550        14.06228        18.17802
     2018.81724         9.75706         8.24795
     2018.81998        14.26701         8.00025
     2018.82272         8.21596         7.99532
     2018.82546        16.15991         8.13950
     2018.82820         3.58487         7.93740
     2018.83093        15.12482         8.06433
     2018.83367         6.97277         7.91769
     2018.83641        12.39972         8.08282
     2018.83915        13.35967         8.02490
     2018.84188         4.56962         8.13211
     2018.84462        13.43658         8.03845
     2018.84736        11.90453         7.97684
     2018.85010        10.87048         7.88565
     2018.85284         9.52143         8.01627
     2018.85557         0.52538         8.09391
     2018.85831         3.54833         7.97561
     2018.86105         7.25829         7.93001
     2018.86379        11.55024         8.16785
     2018.86653        15.22219         8.09021
     2018.86926         7.25814         8.07049
     2018.87200        11.39709         7.97930
     2018.87474        19.18604         8.03229
     2018.87748         9.32000         8.17894
     2018.88021         5.46995         8.17771
     2018.88295        11.74790         8.18017
     2018.88569        19.79885         8.19003
     2018.88843         9.04580         8.15799
     2018.89117        14.33475         8.10253
     2018.89390         6.16871         8.15183
     2018.89664        10.38566         8.46854
     2018.89938        13.69761         8.09884
     2018.90212         8.41056         8.01257
     2018.90485        17.01451         8.28245
     2018.90759        14.86546         8.06926
     2018.91033        16.55841         7.87948
     2018.91307        18.54837         7.96328
     2018.91581        16.07532         7.84375
     2018.91854        15.62427         8.15060
     2018.92128         5.88922         7.90290
     2018.92402         5.64417         7.94849
     2018.92676         7.66612         7.76488
     2018.92950        12.56408         7.96944
     2018.93223         8.59603         8.19003
     2018.93497         0.50598         7.97068
     2018.93771         4.37993         8.08775
     2018.94045        13.00188         7.98793
     2018.94318        13.80583         7.84744
     2018.94592         5.97879         7.82526
     2018.94866         8.92574         8.12225
     2018.95140        11.19669         8.31203
     2018.95414        17.07564         8.00641
     2018.95961        14.06954         7.98793
     2018.96235        -8.42650         8.02860
     2018.96509         5.87745         7.96205
     2018.96783       -35.79860         8.30833
     2018.97056        10.11335         7.94603
     2018.97330       -10.79470         7.99409
     2018.97604         5.78425         8.21468
     2018.97878         9.82121         7.87948
     2018.98151        -2.92484         7.99163
     2018.98425         6.65011         8.13334
     2018.98699         3.03206         8.23316
     2018.98973       -18.91699         8.24918
     2018.99247        12.06596         8.30094
     2018.99520         1.51992         8.13827
     2019.00068        -5.23318         8.15799
     2019.00342         7.67477         8.22823
     2019.00616         5.01172         8.36132
     2019.00889         7.61667         8.22084
     2019.01163        11.97963         8.13458
     2019.01437        11.20358         8.12595
     2019.01711        -0.45947         8.05447
     2019.01984        -3.17552         8.06680
     2019.02532       -38.19162         8.47593
     2019.02806        10.15634         8.05940
     2019.03080         3.00629         8.11732
     2019.03353         4.63524         8.08282
     2019.03627         5.81819         7.98793
     2019.03901        12.96014         7.90906
     2019.04175        -8.27491         7.92754
     2019.04449        -7.76495         7.98546
     2019.04722       -23.75000         8.45498
     2019.04996        -3.36305         8.50181
     2019.05270        -9.33910         8.27876
     2019.05544        -5.39615         8.07789
     2019.05817         3.13080         8.30587
     2019.06365         6.93571         8.12348
     2019.06639         9.29066         8.15429
     2019.06913         6.26461         8.23070
     2019.07186         8.06856         8.43896
     2019.07460         3.30951         7.93371
     2019.07734        -0.52253         8.02367
     2019.08008        -3.28458         7.95589
     2019.08282         2.31737         8.19989
     2019.08555         5.06532         8.06310
     2019.08829         1.51427         7.92878
     2019.09103         0.64722         7.96451
     2019.09377        -1.53183         7.91892
     2019.09650         4.10413         7.84621
     2019.09924        -0.46992         7.91276
     2019.10198        -5.48097         7.91276
     2019.10472        -1.15902         7.89674
     2019.10746         2.18793         7.93494
     2019.11019         0.33588         7.88934
     2019.11293         4.34584         7.99409
     2019.11567        -2.37221         8.27876
     2019.11841         0.44074         7.97561
     2019.12115        19.45369         8.06433
     2019.12388        -4.90636         8.03969
     2019.12662         5.44359         8.00888
     2019.12936        -6.10745         7.96821
     2019.13210         1.44250         7.98793
     2019.13483        -2.15255         7.94603
     2019.13757        -1.24560         8.04462
     2019.14031         1.09435         8.06310
     2019.14305         4.55230         8.00148
     2019.14579        -0.34474         8.01750
     2019.14852        -7.20479         7.99655
     2019.15126         3.96716         7.98916
     2019.15400        -7.92389         8.03476
     2019.15674        -0.33994         7.96205
     2019.15948        -2.86399         8.04954
     2019.16221        -9.02803         8.10623
     2019.16495        -5.31708         7.87825
     2019.16769       -11.58713         7.90783
     2019.17043        -3.90818         7.90043
     2019.17316         1.30677         7.90536
     2019.17590        -1.50828         7.91645
     2019.17864        -4.21032         7.98300
     2019.18138        -1.90937         7.92508
     2019.18412       -11.89842         8.02613
     2019.18685        -5.81347         8.07173
     2019.18959         2.56948         8.04708
     2019.19233        -7.55957         8.06680
     2019.19507       -11.60361         7.94726
     2019.19780        -8.68266         8.10377
     2019.20054        -2.40771         8.28862
     2019.20328       -12.06976         7.99286
     2019.20602        -9.27981         7.99532
     2019.20876       -10.04886         7.93494
     2019.21149       -17.56290         7.92508
     2019.21423       -10.45895         8.10377
     2019.21697        -1.09200         7.91769
     2019.21971       -10.26505         8.15183
     2019.22245        -3.98710         7.86100
     2019.22518        -6.15215         7.88318
     2019.22792        -5.81219         7.99039
     2019.23066       -11.97324         7.96451
     2019.23340        -3.72429         7.92262
     2019.23613        -4.71134         7.86839
     2019.23887        -8.17239         7.86593
     2019.24161        -3.72544         8.14813
     2019.24435        -5.93148         8.11116
     2019.24709        -8.20753         8.05078
     2019.24982        -3.55658         7.99902
     2019.25256        -0.39263         8.19003
     2019.25530       -13.65568         7.80801
     2019.25804        -8.65073         7.97561
     2019.26078       -17.06877        10.11369
     2019.26351        -3.24982         9.25969
     2019.26625        -5.78487         7.90413
     2019.26899        -8.77192         7.95835
     2019.27173        -0.63697         8.42787
     2019.27446        -5.75202         8.03599
     2019.27720         0.72093         8.15676
     2019.27994         2.62289         7.90783
     2019.28268        -0.15516         7.94726
     2019.28542         1.14679         7.79322
     2019.29089        -0.87031         7.92631
     2019.29363         3.63664         7.92262
     2019.29637         4.80660         7.99286
     2019.29911         8.16655         7.83266
     2019.30184        -7.29750         7.96821
     2019.30458        -5.15655         8.05078
     2019.30732       -11.41260         7.94356
     2019.31006         2.89335         8.04092
     2019.31279        -8.31369         8.08035
     2019.31553         2.21426         7.85484
     2019.31827         1.07421         7.94480
     2019.32101        -4.48284         7.91399
     2019.32375       -17.39189         7.82896
     2019.32648       -10.20694         7.92754
     2019.32922        -8.49698         7.85607
     2019.33196        -2.33703         8.16662
     2019.33470        -8.26908         8.13827
     2019.33744        -0.76513         7.95712
     2019.34017        -5.47718         7.79815
     2019.34291        -3.67223         7.93617
     2019.34565        -4.58227         8.10500
     2019.34839       -10.47832         8.04585
     2019.35112        -7.73237         7.86716
     2019.35386        -2.29142         7.92508
     2019.35660         4.37353         7.85730
     2019.35934         3.20948         7.87825
     2019.36208        -1.24556         7.94480
     2019.36481        -1.49061         7.92015
     2019.36755         2.86034         7.96205
     2019.37029        -3.16771         7.87702
     2019.37303         6.25324         7.94480
     2019.37577         4.88019         8.15552
     2019.37850         1.52315         8.00025
     2019.38124        -2.66190         7.96698
     2019.38398         1.60705         7.84498
     2019.38672         0.06500         7.87086
     2019.38945        -2.90705         8.00025
     2019.39219         4.77190         7.92878
     2019.39493        -1.85714         7.92878
     2019.39767         0.02181         7.90906
     2019.40041         6.59276         7.85977
     2019.40314         4.61971         7.89797
     2019.40588         5.41966         7.98053
     2019.40862         9.59961         8.00765
     2019.41136         2.95757         7.93371
     2019.41410         0.74052         7.93001
     2019.41683         2.81047         7.91152
     2019.41957         2.52342         7.96451
     2019.42231         0.80137         8.01257
     2019.42505        -1.55368         8.00148
     2019.42778         3.02928         8.24179
     2019.43052         6.19723         7.93247
     2019.43326         1.94718         7.93124
     2019.43600        -4.37187         8.03845
     2019.43874         1.22608         8.08035
     2019.44147        -5.23097         8.21098
     2019.44421         5.27299         8.18880
     2019.44695        -6.46906         8.19742
     2019.44969         4.63889         8.10253
     2019.45243         3.67184         8.17031
     2019.45516        -4.93721         8.41678
     2019.45790         2.89974         8.27752
     2019.46064         6.02470         8.22330
     2019.46338        -3.74035         8.51167
     2019.46611         0.41660         8.42787
     2019.46885         3.69855         8.42787
     2019.47159         4.29950         8.16538
     2019.47433        10.74445         8.27260
     2019.47707         4.49240         8.16662
     2019.47980         9.74036         8.19003
     2019.48254         3.17231         8.21098
     2019.48528         2.80526         8.28738
     2019.48802        -4.43479         8.27876
     2019.49076        -4.19584         8.03229
     2019.49349         4.78211         8.03845
     2019.49623         4.17207         7.94849
     2019.49897        -2.84598         7.94973
     2019.50171        -0.91803         8.04338
     2019.50444         0.42292         8.08159
     2019.50718         7.99787         8.12965
     2019.50992         4.97782         7.90906
     2019.51266         0.53478         8.03599
     2019.51540         5.94573         8.00888
     2019.51813         1.72368         8.15183
     2019.52087         7.55463         8.06310
     2019.52361         0.63458         8.09761
     2019.52635        -5.07047         8.11855
     2019.52908        -3.28251         8.38104
     2019.53182        -6.76256         8.21468
     2019.53456        -2.10261         8.25411
     2019.53730         9.29934         8.35146
     2019.54004         6.45329         8.31819
     2019.54277         5.65724         8.25904
     2019.54551         2.68720         8.41678
     2019.54825         4.43415         8.04708
     2019.55099         3.88110         8.25041
     2019.55373         0.99605         8.34900
     2019.55646        -3.05900         8.36132
     2019.55920       -10.66505         8.42294
     2019.56194         9.46991         8.16169
     2019.56468        -3.09614         8.27506
     2019.56741         2.11781         8.11239
     2019.57015        -3.20224         7.90783
     2019.57289        -3.16129         8.17154
     2019.57563        -6.95934         8.43280
     2019.57837         2.40062         8.33668
     2019.58110         3.32757         7.99532
     2019.58384        15.53852         8.61518
     2019.58658        -0.32153         8.02736
     2019.58932         4.14942         8.04708
     2019.59206         8.50937         8.26027
     2019.59479         4.92633         8.18757
     2019.59753        -1.48672         8.35886
     2019.60027         7.67423         8.29478
     2019.60301         1.03618         8.01381
     2019.60574         4.55613         8.41185
     2019.60848         5.93808         8.33668
     2019.61122        -4.89696         8.13211
     2019.61396         7.70899         8.14320
     2019.61670        11.85294         8.10253
     2019.61943         2.10289         8.07296
     2019.62217         5.91784         8.38843
     2019.62491         4.55079         8.03229
     2019.62765         8.30875         8.04954
     2019.63039        12.98670         7.96082
     2019.63312         3.50965         8.18017
     2019.63586        20.64360         8.54987
     2019.63860         6.87555         8.16538
     2019.64134         2.21550         8.45991
     2019.64407        -4.56654         8.22700
     2019.64681         0.70141         8.25288
     2019.64955         2.67236         8.15676
     2019.65217         6.28698         8.50427
     2019.73990         9.69376         8.39583
     2019.74264        -0.23429         8.28862
     2019.74538        -0.78933         8.02736
     2019.74811         3.67862         8.24672
     2019.75085         5.05857         8.25534
     2019.75359         0.84452         8.52276
     2019.75633        -5.10853         8.30217
     2019.75906        -9.28058         8.10623
     2019.76180        -1.29162         7.96944
     2019.76454        -3.27367         8.21468
     2019.76728         0.63828         8.11609
     2019.77002        -2.10577         8.15922
     2019.77275        -0.16982         8.54494
     2019.77549        -1.82587         8.23686
     2019.77823         5.68509         8.28738
     2019.78097         4.72604         8.07049
     2019.78371         1.31799         8.04585
     2019.78644        -0.53706         8.06556
     2019.78918         8.29089         8.16292
     2019.79192        -0.17316         8.15799
     2019.79466        10.10780         8.06680
     2019.79739         7.81075         8.01011
     2019.80013        10.26570         8.08035
     2019.80287         6.21965         8.00272
     2019.80561         4.61660         8.31819
     2019.80835         3.30855         8.09268
     2019.81108         2.58151         8.18264
     2019.81382         5.22346         8.26520
     2019.81656         2.62241         8.03352
     2019.81930        -0.99364         8.02120
     2019.82203        -0.32569         8.12965
     2019.82477        -7.78074         8.03476
     2019.82751        -5.89178         8.11732
     2019.83025         0.87517         8.10130
     2019.83299         2.29912         8.12841
     2019.83572         0.22707         8.15922
     2019.83846         7.08402         8.06433
     2019.84120         9.40897         8.07789
     2019.84394         9.32892         8.27876
     2019.84668         7.56188         8.04954
     2019.84941         0.93183         7.96205
     2019.85215         9.69678         8.23193
     2019.85489        11.22073         8.13704
     2019.85763         8.53068         8.08651
     2019.86036         5.71763         8.13827
     2019.86310        -0.11841         8.01997
     2019.86584         8.89754         8.22577
     2019.86858        17.01149         8.20605
     2019.87132         7.09444         8.16908
     2019.87405         3.54039         8.07542
     2019.87679        -0.56666         8.40569
     2019.87953         9.23730         8.02367
     2019.88227        17.00125         8.10623
     2019.88501         7.64720         8.30833
     2019.88774         6.32815         8.43649
     2019.89048        15.33910         8.08405
     2019.89322        20.19905         8.18510
     2019.89596         3.25801         8.15060
     2019.89869         7.60996         8.01134
     2019.90143         7.67991         7.98793
     2019.90417        -2.42914         8.19003
     2019.90691         3.30481         8.05817
     2019.90965         2.12476         7.98546
     2019.91238         0.92172         8.03845
     2019.91512         8.40467         8.06310
     2019.91786        13.73962         8.18264
     2019.92060         7.96857         8.15922
     2019.92334         9.22252         8.17154
     2019.92607         2.92447         8.24918
     2019.92881         6.66643         8.28985
     2019.93155        14.23038         8.32189
     2019.93429         7.75633         8.02120
     2019.93702         2.07528         8.19619
     2019.93976         0.88423         8.33791
     2019.94250         7.97818         8.30464
     2019.94524        -8.11486         8.38720
     2019.94798         4.24809         8.07296
     2019.95071         1.08104         8.38104
     2019.95345         0.66399         8.00272
     2019.95619        -2.62706         8.20975
     2019.95893         7.50289         8.25165
     2019.96167         5.87785         8.27260
     2019.96440       -15.58420         8.35023
     2019.96714       -18.15525         8.45744
     2019.97262       -11.92835         8.35146
     2019.97535        -0.38340         8.14197
     2019.97809        -5.81644         8.14690
     2019.98083       -16.28849         8.09637
     2019.98357        -7.16154         8.01750
     2019.98631        -4.48759         8.12965
     2019.98904         6.36536         8.08898
     2019.99178        12.30131         8.25534
     2019.99452        -3.98073         8.13704
     2020.00000         8.88017         8.06680
     2020.00273         1.31812         8.01011
     2020.00547        -7.49993         8.38967
     2020.00821        -4.35198         8.30833
     2020.01095       -17.82902         8.37241
     2020.01368       -36.35007         8.20851
     2020.01642       -18.64612         8.30464
     2020.01916        -2.55917         7.96821
     2020.02190        -7.24522         8.08898
     2020.02464       -18.22927         8.25658
     2020.02737       -33.91731         8.02367
     2020.03011       -32.48736         7.98423
     2020.03285        -9.31541         7.80678
     2020.03559        -4.22846         7.80308
     2020.03833        -9.65051         7.80678
     2020.04106       -17.28456         8.16045
     2020.04380       -17.62561         8.09884
     2020.04928        -8.49270         7.85607
     2020.05201        -7.42775         7.90167
     2020.05475       -16.19480         7.99655
     2020.05749       -12.06285         7.96328
     2020.06023       -11.70090         7.95219
     2020.06297         1.48906         7.90783
     2020.31759        -0.71344         7.88688
     2020.32032        -5.48349         7.93371
     2020.32306        -3.62054         7.82156
     2020.32580        -2.33559         8.08035
     2020.32854       -11.76263         7.92262
     2020.33128        -5.01668         7.94973
     2020.33401         0.25627         8.08775
     2020.33675        -2.20878         7.97437
     2020.33949        -5.10583         7.84005
     2020.34223       -11.27688         8.13088
     2020.34496       -12.64092         7.90783
     2020.34770       -12.31697         7.88072
     2020.35044        -7.16402         8.16045
     2020.35318       -20.05507         8.14567
     2020.35592       -13.96812         8.07419
     2020.35865        -5.42417         8.01750
     2020.36139        -2.52121         7.92878
     2020.36413        -1.07426         7.99163
     2020.36687         1.07469         8.22084
     2020.36961        -9.80736         8.08898
     2020.37234        -1.25141         7.94356
     2020.37508        -6.25146         7.91399
     2020.37782         2.13650         7.91769
     2020.42984        -8.53442         8.03229
     2020.66803        -0.10163         8.32066
     2020.67077         0.19532         8.74458
     2020.67351        -2.37573         8.30587
     2020.67624        -0.14578         8.40076
     2020.67898        -0.60382         8.12472
     2020.68172        -8.98687         8.47100
     2020.68446         5.41208         8.31449
     2020.68720       -12.50897         8.30094
     2020.68993        -1.45402         8.30464
     2020.69267        -0.86107         8.44019
     2020.69541        -3.07311         8.77045
     2020.69815         1.29384         8.50427
     2020.70089         0.25279         8.28985
     2020.70362        -3.93626         8.38350
     2020.70636        10.54969         8.85672
     2020.70910         0.05164         8.78894
     2020.71184        -0.52840         8.67310
     2020.71457        -0.85645         8.43280
     2020.71731        -3.37750         8.49811
     2020.72005        -6.95455         8.79140
     2020.72279        -0.46360         8.38597
     2020.72553         3.71335         8.42910
     2020.72826        -9.87969         8.77292
     2020.73100         7.99126         8.57082
     2020.73374         8.53421         8.53508
     2020.73648        13.36716         8.35639
     2020.73921        -1.66789         8.32189
     2020.74195         6.25306         8.36009
     2020.74469        -2.69798         8.37611
     2020.74743         2.54497         8.31696
     2020.75017        -4.30708         8.36872
     2020.75290        -3.07513         8.09884
     2020.75564        -0.51618         8.15922
     2020.75838         4.07877         8.24548
     2020.76112        -6.48627         8.25658
     2020.76257       -14.01880        40.52376
     2022.44490        -9.04401         8.24795
     2022.44763       -13.72906         8.06310
     2022.45037       -14.06311         8.00272
     2022.45311       -22.27316         8.07296
     2022.45585       -12.37721         7.99779
     2022.45859       -23.16126         7.96821
     2022.46132       -16.32130         7.96698
     2022.46406       -11.49235         8.02243
     2022.46680       -20.58940         8.08035
     2022.46954       -11.21245         8.12348
     2022.47227       -27.66250         8.09021
     2022.47501        -8.21755         8.04092
     2022.47775       -19.63060         8.26767
     2022.48049       -15.56264         7.99902
     2022.48323        -2.70769         8.10746
     2022.48596         1.01926         8.10746
     2022.48870       -18.61479         8.13334
     2022.49144       -17.08884         7.98300
     2022.49418       -11.62289         8.22453
     2022.49692       -12.52293         8.05078
     2022.49955       -14.97937         8.60039
