# ================= DQRFIT RESULTS ================
# INPUT FILE: series/MZNT.rad
# OUTPUT: LDETRENDED
# FILTER FUNCTION: f(t)
# f(t)=+line(t)
# line(t)=+P 1+P 2*t
# heav(t)=(t<0?0:1)
# TOTAL OBSERVATIONS MTOT=  430
# INITIAL TIME INTERVAL= 2022.7488 - 2021.5743 =  1.1745
# TOTAL OBSERVATIONS AFTER PREFILTER M=  429
# TIME-SPAN= 2022.7488 - 2021.5743 =  1.1745
# OBSERVATIONS: USED M=   429 REJECTED MTOT-M=     1 %USED=   99.7674
# N=  2 PARAMETERS
# MAXSIG= 175.00000
# MAXRES=  17.01903
# SCALE FACTOR FOR LENGTHS: SCL=  10.00000
# SCALE FACTOR FOR SIGMAS: SCLSIG=   1.00000
# CHI^2=    603.931 DOF=   427 CHI^2/DOF=   1.41436
# RMS=      6.483 SDEV=      6.490 MEAN=    0.00851
#  P #       PARAMETER +-    SIGMA %error PARAMETER NAME
# P 1 =   -647008.57422 +- 1862.716   0.29 YZERO                              
# P 2 =         0.47248 +-    0.921 194.96 SLOPE                              
#       T            LDETRENDED       SIG_OBS
     2021.57426        -5.48661         6.50768
     2021.57700         2.19110         6.56357
     2021.57974         2.97881         6.41253
     2021.58247        -3.01949         6.47557
     2021.58521         0.90622         6.46129
     2021.58795         0.69292         6.53860
     2021.59069        -9.55437         6.45178
     2021.59342        -7.95066         6.39232
     2021.59616       -12.70796         6.56119
     2021.59890        -3.97725         6.69796
     2021.60164        -5.67154         6.66585
     2021.60438        -1.17284         6.45535
     2021.60711         1.93787         6.50173
     2021.60985         1.41358         6.37805
     2021.61259         0.61428         6.39232
     2021.61533        -3.50301         6.42443
     2021.61807        -0.57731         6.47319
     2021.62080        -3.67660         6.41372
     2021.62354         1.88911         6.42799
     2021.62628        -3.80719         6.56119
     2021.62902         1.73252         6.38280
     2021.63175        -6.19277         6.62541
     2021.63449         3.73593         6.51243
     2021.63723         1.02264         6.74791
     2021.63997         2.44035         6.46962
     2021.64271         0.83805         6.48151
     2021.64544        -0.59824         6.40183
     2021.64818         0.91647         6.48508
     2021.65092        -2.08083         6.46962
     2021.65366        -3.17312         6.41253
     2021.65639        -2.87442         6.32572
     2021.65913        -4.22671         6.41491
     2021.66187         5.06500         6.38756
     2021.66461         4.28370         6.40421
     2021.66735        -0.80859         6.37805
     2021.67008         0.26612         6.48984
     2021.67282        -0.93518         6.66942
     2021.67556         1.13353         6.75029
     2021.67830        -1.40176         6.64920
     2021.68104         8.08894         6.40659
     2021.68377         4.41365         6.55525
     2021.68651        -4.49764         6.52670
     2021.68925         5.13406         6.37567
     2021.69199         3.98777         6.41967
     2021.69472         5.76347         6.45892
     2021.69746         0.15118         6.42799
     2021.70020         6.41189         6.39113
     2021.70294         0.79659         6.40183
     2021.70568         9.86630         6.40540
     2021.70841         9.38701         6.42443
     2021.71115         5.38171         6.49697
     2021.71389         7.16442         6.70153
     2021.71663         4.43613         6.52076
     2021.71937        -1.98417         6.45892
     2021.72210        -0.24346         6.41967
     2021.72484        -2.19876         6.65752
     2021.72758        -3.10805         6.41729
     2021.73032         0.69866         6.74910
     2021.73305         1.95436         6.38399
     2021.73579        11.72507         6.63850
     2021.73853        16.80678         6.97506
     2021.74127         9.10548         6.59211
     2021.74401         3.98919         6.46129
     2021.74674        -3.95710         6.58022
     2021.74948         0.40360         6.42562
     2021.75222         1.16831         6.44821
     2021.75496         8.40602         6.60401
     2021.75770         1.09872         6.45654
     2021.76043         5.09143         6.66347
     2021.76317        -0.85987         6.53860
     2021.76591         1.61784         6.40183
     2021.76865         4.69455         6.50768
     2021.77138         2.79025         6.43275
     2021.77412         5.18796         6.57190
     2021.77686         5.23767         6.47081
     2021.77960         7.36437         6.41848
     2021.78234         7.36508         6.51362
     2021.78507        13.96179         6.44702
     2021.78781         8.18949         6.41016
     2021.79055         6.83720         6.35783
     2021.79329         4.38891         6.41967
     2021.79603         3.92961         6.37923
     2021.79876         6.03232         6.53979
     2021.80150         6.46802         6.68012
     2021.80424         8.31873         6.69677
     2021.80698         1.17344         6.43632
     2021.80971         4.40114         6.47675
     2021.81245        13.69785         6.77288
     2021.81519         5.33956         6.51243
     2021.81793        11.01026         6.51719
     2021.82067         3.17197         6.72293
     2021.82340         5.78368         6.53979
     2021.82614         7.89338         6.55168
     2021.82888         5.74109         6.57309
     2021.83162        11.16980         6.58617
     2021.83436         7.62150         6.60876
     2021.83709         6.57921         6.58855
     2021.83983         0.98091         6.80261
     2021.84257        -0.75938         6.71461
     2021.84531         1.24033         6.63017
     2021.84804        10.05503         6.59330
     2021.85078         1.41274         6.65990
     2021.85352         2.86745         6.53027
     2021.85626        11.20815         6.56714
     2021.85900         6.54486         6.57309
     2021.86173         1.16757         6.61471
     2021.86447        -1.39873         6.59449
     2021.86721         1.49798         6.67774
     2021.86995         4.63068         6.66585
     2021.87269         0.72439         6.90132
     2021.87542         2.10010         6.56119
     2021.87816        -3.64820         6.39470
     2021.88090         6.99851         6.73839
     2021.88364         0.85722         6.46248
     2021.88637        -3.87308         6.39945
     2021.88911        -4.64137         6.44227
     2021.89185       -12.77066         6.70628
     2021.89459        -6.74796         6.69558
     2021.89733         0.75175         6.38875
     2021.90006        -3.69154         6.50173
     2021.90280        -5.31084         6.50768
     2021.90554        -4.39113         6.47200
     2021.90828         4.42357         6.43989
     2021.91102         4.57828         6.62185
     2021.91375         0.21199         6.45535
     2021.91649         1.50369         6.43513
     2021.91923         1.05040         6.62779
     2021.92197        -6.09489         6.87873
     2021.92470        -2.07519         6.59925
     2021.92744        -2.17048         6.59330
     2021.93018        -4.95677         6.64801
     2021.93292         3.92093         6.75267
     2021.93566         7.37064         6.79905
     2021.93839         5.08335         6.69082
     2021.94113         7.12505         6.77645
     2021.94387         9.88576         6.70391
     2021.94661         0.31846         6.60639
     2021.94935         9.05617         6.57665
     2021.95208         3.50588         6.62541
     2021.95482         3.38158         6.70034
     2021.95756         1.77829         6.70391
     2021.96030        -0.80500         6.70747
     2021.96303        -0.95330         6.71104
     2021.96577         0.60641         6.78478
     2021.96851         2.55012         6.73007
     2021.97125         3.58282         6.69439
     2021.97399         3.17753         6.76575
     2021.97672         6.92623         6.73007
     2021.97946         9.62994         6.74196
     2021.98220         8.74965         6.67774
     2021.98494         8.49135         6.72888
     2021.98767         6.47706         6.65515
     2021.99041         3.06677         6.57309
     2021.99315         5.49147         6.51957
     2021.99589         3.87418         6.62898
     2021.99863        -0.78711         6.63136
     2022.00136         1.13759         6.54811
     2022.00410         2.87730         6.63612
     2022.00684        -4.26799         6.62066
     2022.00958        -4.24529         6.62898
     2022.01232       -13.01358         6.56714
     2022.01505        -1.04888         6.62898
     2022.01779        -0.03917         6.68369
     2022.02053        -4.27846         6.62303
     2022.02327        -7.20876         6.97506
     2022.02600        -6.72005         6.80024
     2022.02874        -4.01834         6.60044
     2022.03148        -8.43664         6.75385
     2022.03422        -3.26093         6.76456
     2022.03696         0.11978         6.70034
     2022.03969       -10.82252         6.53265
     2022.04243        -1.33281         6.50649
     2022.04517        -3.94510         6.51124
     2022.04791        -4.06440         6.55525
     2022.05065        -6.66069         6.56238
     2022.05338        -3.80999         6.63850
     2022.05612       -12.51428         6.59568
     2022.05886       -12.81457         6.51719
     2022.06160        -7.36687         6.50887
     2022.06433        -6.93116         6.62185
     2022.06707       -12.76345         6.60520
     2022.06981        -0.34275         6.54930
     2022.07255       -11.68104         6.43037
     2022.07529        -4.65133         6.40659
     2022.07802        -3.85063         6.52076
     2022.08076         1.14308         6.58260
     2022.08350         0.41879         6.54930
     2022.08624         1.39249         6.56476
     2022.08898        -1.46080         6.45654
     2022.09171        -5.93310         6.59449
     2022.09445        -7.22339         6.55525
     2022.09719        -9.60368         6.47081
     2022.09993        -5.54398         6.62185
     2022.10266        -5.54427         6.64563
     2022.10540        -4.95656         6.51957
     2022.10814        -1.49886         6.58617
     2022.11088        -0.93315         6.44464
     2022.11362        -0.10144         6.44583
     2022.11635         1.31626         6.40659
     2022.11909         0.74497         6.37567
     2022.12183         3.13867         6.52076
     2022.12457        -2.28262         6.61590
     2022.12731        -5.14991         6.51124
     2022.13004        -6.40321         6.43156
     2022.13278        -9.57650         6.43513
     2022.13552        -1.67379         6.41491
     2022.13826         2.16191         6.45773
     2022.14099        -0.80238         6.47913
     2022.14373        -7.71667         6.41016
     2022.14647        -1.81497         6.44583
     2022.14921         0.93874         6.72531
     2022.15195        -4.23755         6.67298
     2022.15468        -0.39485         6.49459
     2022.15742         0.25086         6.43275
     2022.16016         2.19056         6.52076
     2022.16290        -0.80673         6.59211
     2022.16564        -1.34502         6.48508
     2022.16837         1.85768         6.46962
     2022.17111        -6.56161         6.44821
     2022.17385        -0.17890         6.42918
     2022.17659        -3.52020         6.44108
     2022.17932        -6.58149         6.46367
     2022.18206        -1.98278         6.46248
     2022.18480        -2.79908         6.46011
     2022.18754        -3.31737         6.53622
     2022.19028       -12.46766         6.58141
     2022.19301        -2.64996         6.57546
     2022.19575         3.98475         6.48508
     2022.19849        -2.44955         6.50292
     2022.20123        -1.30584         6.58617
     2022.20397         3.31987         6.48984
     2022.20670        -4.66643         6.64206
     2022.20944         5.06728         6.60401
     2022.21218         4.27099         6.51362
     2022.21492        -1.13531         6.51005
     2022.21765        -5.88860         6.44346
     2022.22039        -3.46189         6.47557
     2022.22313        -8.39419         6.59211
     2022.22587        -3.50848         6.60520
     2022.22861        -0.00278         6.57665
     2022.23134         0.85493         6.47675
     2022.23408         0.30364         6.52314
     2022.23682        -0.87566         6.75267
     2022.23956         0.40205         6.51005
     2022.24230         0.63076         6.61233
     2022.24503        -2.74754         6.50054
     2022.24777         3.89017         6.52433
     2022.25051        -6.21512         6.55525
     2022.25325        -1.25642         6.51481
     2022.25598         2.75729         6.58022
     2022.25872        -0.44400         6.63493
     2022.26146        -3.61530         6.46605
     2022.26420         0.50041         6.55406
     2022.26694         0.33111         7.15107
     2022.26967         0.47982         6.55763
     2022.27241         6.67553         6.61828
     2022.27515         0.07723         6.62898
     2022.27789         1.05694         6.59449
     2022.28062        -6.74235         6.51838
     2022.28336        -0.46265         6.49935
     2022.28610        -0.73994         6.67774
     2022.28884        -5.21023         6.61828
     2022.29158        -1.09753         6.47794
     2022.29431        -4.07582         6.50887
     2022.29705        -0.80611         6.51124
     2022.29979         2.03859         6.51124
     2022.30253         0.96830         6.63017
     2022.30527        -0.43800         6.57784
     2022.30800        -5.03429         6.68488
     2022.31074        -6.56758         6.48627
     2022.31348        -5.69988         6.52195
     2022.31622        -2.17217         6.49816
     2022.31895       -22.45446         6.58617
     2022.32169        -2.20876         6.60757
     2022.32443        -0.25905         6.52314
     2022.32717        -8.35634         6.56952
     2022.32991        -4.76264         6.47557
     2022.33264       -10.88793         6.67655
     2022.33538        -5.30022         6.72888
     2022.33812        -3.10452         6.76218
     2022.34086         0.22619         6.49578
     2022.34360        -5.42311         6.54573
     2022.34633         0.23360         6.48865
     2022.34907        -4.32769         6.45178
     2022.35181        -1.49199         6.53265
     2022.35455        -1.34728         6.44702
     2022.35728        -5.12357         6.52789
     2022.36002        -2.61787         6.51600
     2022.36276        -5.75016         6.44583
     2022.36550        -4.02245         6.51719
     2022.36824        -1.94875         6.47913
     2022.37097        -7.14504         6.43275
     2022.37371        -8.09434         6.43156
     2022.37645        -2.40063         6.59211
     2022.37919        -3.70092         6.60520
     2022.38193       -13.98022         6.52908
     2022.38466        -7.58551         6.47438
     2022.38740       -21.34380         6.47438
     2022.39014        -2.33210         6.46962
     2022.39288        -8.79139         6.53979
     2022.39561        -8.32868         6.35069
     2022.39835        -8.00898         6.47794
     2022.40109        -4.52527         6.55406
     2022.40383        -0.02556         6.49459
     2022.40657        -0.88886         6.40064
     2022.40930       -12.15415         6.48032
     2022.41204        -3.00545         6.51481
     2022.41478        -2.74974         6.39113
     2022.41752        -3.87803         6.57427
     2022.42026        -0.56433         6.66942
     2022.42299        -3.38862         6.41253
     2022.42573        -8.71791         6.56714
     2022.42847        -4.18521         6.41491
     2022.43121        -1.40850         6.55763
     2022.43394         4.10821         6.55881
     2022.43668        -6.97609         6.43037
     2022.43942       -11.55038         6.48270
     2022.44216         2.75533         6.41967
     2022.44490         5.18503         6.56238
     2022.44763         1.45374         6.32215
     2022.45037        -7.09956         6.38280
     2022.45311       -12.56785         6.47319
     2022.45585        -3.82614         6.38875
     2022.45859       -17.71144         6.35545
     2022.46132       -12.23173         6.34712
     2022.46406        -6.81802         6.36496
     2022.46680        -8.60932         6.56000
     2022.46954        -7.75361         6.37805
     2022.47227       -19.92590         6.33642
     2022.47501         2.71880         6.37091
     2022.47775        -7.41749         6.53146
     2022.48049        -7.31179         6.36377
     2022.48323         5.06792         6.37210
     2022.48596        11.69263         6.34950
     2022.48870        -5.07567         6.41135
     2022.49144        -8.56896         6.35307
     2022.49418        -2.53225         6.50292
     2022.49692        -3.54255         6.33642
     2022.49965        -9.09584         6.34475
     2022.50239       -19.31613         6.35426
     2022.50513        -4.65743         6.69201
     2022.50787        10.03728         6.84543
     2022.51060       -10.13501         6.54573
     2022.51334        -7.59631         6.38994
     2022.51608       -10.26360         6.43275
     2022.51882       -14.81990         6.40421
     2022.52156        -6.46219         6.41729
     2022.52429         1.00052         6.33642
     2022.52703         2.75622         6.42443
     2022.52977         5.25993         6.42799
     2022.53251        -5.62036         6.42799
     2022.53525         8.99834         6.75980
     2022.53798        -4.17895         6.39470
     2022.54072        -7.25924         6.34475
     2022.54346        -0.11454         6.42443
     2022.54620        -1.18483         6.59925
     2022.54893         2.24288         6.41610
     2022.55167         2.89758         6.36734
     2022.55441        -1.36371         6.35902
     2022.55715        11.80099         6.38042
     2022.55989        -1.61530         6.36021
     2022.56262        -3.54359         6.40540
     2022.56536       -17.62889         6.39113
     2022.56810        -1.83518         6.35783
     2022.57084        -0.26047         6.36615
     2022.57357         5.93223         6.52195
     2022.57631        -5.89206         6.43989
     2022.57905        -6.47935         6.35902
     2022.58179         5.56335         6.39945
     2022.58453         8.69906         6.65990
     2022.58726        -3.95023         6.44227
     2022.59000         6.10247         6.68726
     2022.59274        -3.90482         6.31858
     2022.59548        -2.81912         6.32929
     2022.59822       -12.84041         6.31620
     2022.60095       -11.58670         6.35545
     2022.60369        -0.80400         6.32334
     2022.60643         4.19771         6.54573
     2022.60917         0.09842         6.41729
     2022.61190         8.65812         6.49935
     2022.61464         3.70183         6.36259
     2022.61738         8.66654         6.28171
     2022.62012         1.95924         6.28885
     2022.62286        -0.31505         6.42681
     2022.62559         6.10765         6.29836
     2022.62833         3.55136         6.40659
     2022.63107         8.54607         6.54098
     2022.63381        10.69277         6.31264
     2022.63655         5.84648         6.29718
     2022.63928         9.08319         6.29480
     2022.64202         4.91489         6.79548
     2022.64476        13.03060         6.83472
     2022.64750        10.38131         6.45773
     2022.65023         2.80701         6.52076
     2022.65297        11.63372         6.46843
     2022.65571         5.56143         6.44108
     2022.65845         6.80513         6.30550
     2022.66119         8.63084         6.29718
     2022.66392         7.20754         6.33880
     2022.66666         8.42225         6.27577
     2022.66940         7.97696         6.21036
     2022.67214         2.30266         6.27101
     2022.67488         7.73637         6.54098
     2022.67761         8.38108         6.33404
     2022.68035        10.33678         6.25674
     2022.68309        11.74849         6.74791
     2022.68583        13.55120         6.56357
     2022.68856         5.57990         6.43989
     2022.69130        10.44361         6.39588
     2022.69404         8.14332         6.61352
     2022.69678         6.91802         6.63136
     2022.69952         3.67473         6.36972
     2022.70225         7.36143         6.55763
     2022.70499        10.01514         6.51362
     2022.70773         6.04985         6.40540
     2022.71047         6.62455         6.31145
     2022.71321        12.79726         6.29480
     2022.71594        13.86597         6.27339
     2022.71868         9.60767         6.36021
     2022.72142        11.48538         6.25436
     2022.72416         4.56209         6.37329
     2022.72689        12.36379         6.38161
     2022.72963         9.66250         6.40778
     2022.73237         7.44420         6.29836
     2022.73511         4.44491         6.26031
     2022.73785        11.93262         6.26031
     2022.74332        17.01903         6.58022
     2022.74606        11.46174         6.37448
     2022.74880         4.45344         6.31264
