# ================= DQRFIT RESULTS ================
# INPUT FILE: series/NORM.rad
# OUTPUT: LDETRENDED
# FILTER FUNCTION: f(t)
# f(t)=+line(t)+annual(t)
# line(t)=+P 1+P 2*t
# annual(t)=+P 3*sin(2*pi*t+P 4)
# heav(t)=(t<0?0:1)
# TOTAL OBSERVATIONS MTOT= 2838
# INITIAL TIME INTERVAL= 2022.7488 - 2011.6304 = 11.1184
# TOTAL OBSERVATIONS AFTER PREFILTER M= 2833
# TIME-SPAN= 2022.7488 - 2011.6304 = 11.1184
# OBSERVATIONS: USED M=  2833 REJECTED MTOT-M=     5 %USED=   99.8238
# N=  4 PARAMETERS
# MAXSIG= 175.00000
# MAXRES=  41.49509
# SCALE FACTOR FOR LENGTHS: SCL=  10.00000
# SCALE FACTOR FOR SIGMAS: SCLSIG=   1.00000
# CHI^2=   4720.515 DOF=  2829 CHI^2/DOF=   1.66862
# RMS=      7.672 SDEV=      7.670 MEAN=    0.23234
#  P #       PARAMETER +-    SIGMA %error PARAMETER NAME
# P 1 =      1916.23418 +-   78.712   4.11 YZERO                              
# P 2 =        -0.95025 +-    0.039   4.11 SLOPE                              
# P 3 =         6.38142 +-    0.190   2.97 ANNUAL AMPLITUDE                   
# P 4 =         3.07178 +-    0.042   1.36 ANNUAL PHASE                       
#       T            LDETRENDED       SIG_OBS
     2011.63039        10.60445         7.13046
     2011.63312         9.73905         7.13691
     2011.63586         9.78866         7.09816
     2011.63860        12.86826         7.33326
     2011.64134        15.11586         7.52186
     2011.64386         9.18125         7.71303
     2011.64681         0.11806         7.12012
     2011.64955         0.80466         7.32809
     2011.65229         1.49027         7.26609
     2011.65503        -7.60213         7.15629
     2011.65776        -1.15553         7.13562
     2011.66050         2.27907         7.25576
     2011.66324         1.97267         7.18858
     2011.66598        -4.52773         7.34101
     2011.66872        -3.17212         7.26480
     2011.67145         1.00248         7.04520
     2011.67419         6.70508         7.11625
     2011.67693         7.37868         7.21184
     2011.67967         2.14728         7.14596
     2011.68240        -3.03612         7.14466
     2011.68514        -3.20051         7.20538
     2011.68788         5.32209         7.37460
     2011.69062         5.06369         7.26738
     2011.69337         4.81230         7.19117
     2011.69609         2.67089         7.26609
     2011.69883        -1.22051         7.09558
     2011.70157        -0.64691         7.16533
     2011.70431         7.73870         7.23767
     2011.70705        -0.85870         7.32680
     2011.70978        -3.06010         7.16017
     2011.71252        -1.08450         7.26996
     2011.71526        -5.76790         7.25059
     2011.71800         4.83770         7.24413
     2011.72073         4.27831         7.10979
     2011.72347         1.51691         7.06845
     2011.72621         1.24151         7.05424
     2011.72895         0.87011         6.95994
     2011.73169         4.70471         7.33972
     2011.73442         1.14331         7.23380
     2011.73716         1.00692         7.37847
     2011.73990         1.08152         7.05683
     2011.74264         5.33812         7.07104
     2011.74508         5.97044         8.10056
     2011.87132         4.76740         7.18083
     2011.87405        -6.62900         7.06974
     2011.87679        11.76760         7.24930
     2011.87953        18.66820         7.36685
     2011.88227        17.64280         7.43918
     2011.88501         9.15140         7.42110
     2011.88774        -7.04399         7.42239
     2011.89048        17.90961         7.51927
     2011.89322        10.55621         7.31130
     2011.89596        -0.49719         7.25188
     2011.89869         8.14241         7.25188
     2011.90143        -0.05999         7.20538
     2011.90417        -4.34238         7.20796
     2011.90691         2.68022         7.19117
     2011.90965       -10.00318         7.11625
     2011.91238        -2.55058         7.29580
     2011.91512        -3.95098         7.29322
     2011.91786         3.64462         7.30872
     2011.92060        -8.17277         7.11108
     2011.92334       -11.32417         7.21442
     2011.92607        -9.92557         7.25963
     2011.92881        -4.24397         7.37330
     2011.95893        -1.26335         7.19117
     2011.96167         2.90325         7.17825
     2011.96440         2.81285         7.15112
     2011.96714         3.45945         7.06458
     2011.96988         3.69605         7.04391
     2011.97262        -0.73734         7.10204
     2011.97535        -3.16974         7.20667
     2011.97809        -3.04814         7.14208
     2011.98083         4.60946         6.99999
     2011.98631         5.72166         7.03745
     2011.98904        15.25427         7.33584
     2011.99178        13.49187         7.30872
     2011.99452        16.05747         7.12141
     2012.08487        -0.60268         7.15242
     2012.09034        -4.93147         7.18083
     2012.09308        -3.12587         7.19763
     2012.09582        -0.46227         7.16404
     2012.09856        -2.23067         7.16792
     2012.10403        -3.80847         7.21829
     2012.10677         1.64514         7.39656
     2012.10951        -3.79226         7.34101
     2012.11225        -4.54466         7.27513
     2012.11498        -3.25506         7.20150
     2012.11772        -5.58246         7.22863
     2012.12046        -0.81386         7.22217
     2012.12320        -4.07725         7.20796
     2012.12594        -9.17965         7.23380
     2012.12867        -2.96205         7.15242
     2012.13141         1.51355         7.23121
     2012.13415         3.47815         7.25705
     2012.13689         1.67275         7.23509
     2012.13963        11.67636         7.35264
     2012.14236         6.09696         7.48698
     2012.14510        -0.29844         7.26738
     2012.14784        -7.52684         7.21829
     2012.15058        -1.28424         7.21700
     2012.15331        -3.40264         7.19892
     2012.15605        -8.12403         7.38751
     2012.15879        -6.04243         7.39397
     2012.16153        -4.32783         7.16662
     2012.16427        -4.79023         7.26092
     2012.16700        -6.82963         7.30743
     2012.16974        -6.04903         7.21184
     2012.17248        -6.41842         7.18858
     2012.17522        -2.63982         7.26351
     2012.17796        -5.17322         7.16404
     2012.18069        -6.02062         7.12141
     2012.18343        -7.55502         7.26221
     2012.18617        -9.79342         7.21054
     2012.18891        -6.64081         7.18988
     2012.19164         2.94879         7.21313
     2012.19438         3.69739         7.25576
     2012.19712         5.59999         7.17954
     2012.19986        -4.26141         7.25963
     2012.20260        -4.25181         7.36039
     2012.20533         0.36980         7.36555
     2012.20807        -0.38460         7.24025
     2012.21081        -3.40100         7.32034
     2012.21355        -9.22040         7.31518
     2012.21629        -2.38380         7.41206
     2012.21902         7.14280         7.26738
     2012.22176        -2.03459         7.33584
     2012.22450       -20.84599         7.24025
     2012.22724        -8.76839         7.19504
     2012.22997        -7.36879         7.25188
     2012.23271        -0.67819         7.24800
     2012.23545        -6.36359         6.95607
     2012.23819        -5.96399         7.10850
     2012.24093        -4.98138         6.96382
     2012.24333        -3.95410         8.14965
     2012.24640        -6.23818         7.25446
     2012.24914        -4.60458         7.10075
     2012.25188       -12.13698         7.12658
     2012.25462       -15.26138         7.09816
     2012.25735       -12.67677         7.09429
     2012.26009       -14.78417         7.12400
     2012.26283       -18.18057         7.06974
     2012.26557       -14.44497         7.11366
     2012.26830       -13.46437         7.12012
     2012.27104       -14.94777         7.24025
     2012.27378        -9.09116         7.18342
     2012.27652        -3.66356         7.21442
     2012.27926        -2.23096         7.36943
     2012.28199        -7.96536         7.10850
     2012.28473       -10.37476         7.08137
     2012.28747       -12.20616         7.05295
     2012.29021       -10.36155         7.22346
     2012.29295       -11.87795         7.22605
     2012.29568       -15.81735         7.26996
     2012.29842        -4.43375         7.16533
     2012.30116       -13.19915         7.20279
     2012.30390       -15.87955         6.94186
     2012.30663       -15.21394         7.03099
     2012.30937        -9.61834         6.98061
     2012.31211        -8.84674         7.49344
     2012.31485        -2.94414         7.26221
     2012.31759        -9.77454         7.15887
     2012.32032        -8.77994         7.18342
     2012.32306        -9.64333         7.04391
     2012.32580        -9.17273         7.04778
     2012.32854        -4.87113         7.28805
     2012.33128        -1.07053         7.18213
     2012.33401        -5.68893         7.15758
     2012.33675        -5.44533         7.01937
     2012.33949        -2.51772         7.13175
     2012.34223       -14.62412         7.09299
     2012.34496       -15.74552         6.96124
     2012.34770        -9.43292         7.15500
     2012.35044       -10.19032         6.98836
     2012.35318       -10.82472         7.02712
     2012.35592        -9.12511         6.96253
     2012.35865       -11.76251         6.99999
     2012.36139       -11.05891         6.99482
     2012.36413        -9.55431         6.92119
     2012.36687        -9.26271         6.96511
     2012.36961        -7.93211         6.97545
     2012.37234        -6.69551         6.98449
     2012.37508        -5.93390         7.08008
     2012.37782        -7.69530         7.12529
     2012.38329       -10.78310         7.09299
     2012.38603        -5.38450         7.18083
     2012.38877        -4.98690         7.27513
     2012.39151        -0.39529         7.11366
     2012.39425        -8.59569         7.04132
     2012.39698       -20.25409         7.19892
     2012.39972       -16.12449         7.09299
     2012.40246       -11.74089         6.96640
     2012.40520        -7.98929         6.94703
     2012.40794        -7.94368         6.93540
     2012.41067        -5.37508         7.06716
     2012.41341       -10.67648         7.04908
     2012.41615        -6.28788         7.06974
     2012.41889         0.48072         7.28805
     2012.42162       -15.13768         7.09558
     2012.42436         2.10593         7.12529
     2012.42710       -16.51747         7.01420
     2012.42984        -4.33487         7.00774
     2012.43258        -7.78227         7.04649
     2012.43531        -8.28367         6.96511
     2012.43805       -10.51307         7.02324
     2012.44079       -16.70646         7.00257
     2012.44353       -13.01886         7.04262
     2012.44626        -8.70826         7.08266
     2012.44900        -3.03266         7.13304
     2012.45174        -9.16506         7.48698
     2012.45448        -7.94146         7.06587
     2012.45722        -6.85285         7.23896
     2012.45995        -4.90325         7.18471
     2012.46269        -3.96365         7.04003
     2012.46543       -10.69205         6.98061
     2012.46817        -2.18745         7.03228
     2012.47091        -7.40785         7.06458
     2012.47364        -7.51024         7.17050
     2012.47638        -1.70964         7.19504
     2012.47912       -10.66604         7.05683
     2012.48186        -5.75544         7.05553
     2012.48459        -4.76584         7.01678
     2012.48733       -10.42024         7.06199
     2012.49007        -3.40863         7.08912
     2012.49281        -4.49903         7.09170
     2012.49555       -10.74643         7.07104
     2012.49828         2.13617         7.19763
     2012.50102        -3.06523         7.10333
     2012.50376        -5.00963         7.03616
     2012.50650        -6.04503         7.05683
     2012.50924        -4.74942         7.16404
     2012.51197        -3.14182         7.21571
     2012.51471        -6.88222         7.11495
     2012.51745        -4.81162         7.20538
     2012.52019       -10.56902         7.28288
     2012.52292        -5.51642         7.08654
     2012.52566        -3.91681         7.05295
     2012.52840         0.46179         7.09816
     2012.53114        -7.44061         7.19246
     2012.53388        -5.75301         7.12916
     2012.53661        -6.87741         7.06458
     2012.53935         1.78819         7.09299
     2012.54209         5.51780         7.05424
     2012.54483         1.40740         7.21184
     2012.54757        -7.26600         7.27255
     2012.55030        -7.14940         7.13304
     2012.55304        -6.63080         7.03745
     2012.55578        -1.16420         7.00257
     2012.55852        -5.40859         6.98190
     2012.56125        -3.75899         7.01420
     2012.56399         0.76361         7.19375
     2012.56673         0.02521         7.11625
     2012.57221        -2.82459         7.14079
     2012.57494        -0.69698         7.05037
     2012.57768        -3.07238         7.14337
     2012.58042         1.46422         7.13821
     2012.58316        -8.13418         7.06458
     2012.58590        -1.14558         7.06199
     2012.58863         1.36002         7.13175
     2012.59137        -0.16837         7.13046
     2012.59411        -2.64777         7.09170
     2012.59685         8.40583         7.41077
     2012.59958        -0.68357         7.14596
     2012.60232        -0.02597         7.34618
     2012.60506         0.01863         7.09299
     2012.60780         3.17024         7.05812
     2012.61054         5.09684         7.12271
     2012.61327         2.56644         7.02324
     2012.61601         6.33504         7.10333
     2012.61875         4.97564         7.04003
     2012.62149         7.01224         7.04262
     2012.62423         4.53785         7.08137
     2012.62696         6.00245         7.23896
     2012.62970         0.94205         7.29322
     2012.63244         5.28165         7.11495
     2012.63518         4.94525         7.24155
     2012.63791        -1.65015         7.10333
     2012.64065         4.34346         7.09429
     2012.64339        11.44806         7.11237
     2012.64613        10.43166         7.10204
     2012.64887        12.22626         7.11237
     2012.65434         2.14046         7.07620
     2012.65708         7.85506         7.32293
     2012.65982        12.54267         7.30097
     2012.66256        10.78527         7.06716
     2012.66529        11.79987         7.10204
     2012.66803         5.00447         7.12658
     2012.67077         6.16207         7.11754
     2012.67351         4.73967         7.13304
     2012.67624         9.08028         7.17696
     2012.67898         9.02688         7.02453
     2012.68446         8.73708         7.09687
     2012.68720         5.49868         7.02582
     2012.68993         9.86128         7.08266
     2012.69267         8.22689         7.10979
     2012.69541         7.29449         6.98320
     2012.69815         4.64109         7.11883
     2012.70089         1.37269         7.04649
     2012.70362         0.44129         7.05812
     2012.70636         5.40989         7.13821
     2012.70910         5.35650         7.06458
     2012.71184         7.34910         7.01549
     2012.71457         9.16170         6.97415
     2012.71731        12.95030         7.00128
     2012.72005         9.67190         6.99611
     2012.72279         8.79150         7.07879
     2012.72553        11.04011         7.04520
     2012.72826        14.02971         7.29192
     2012.73100         7.70931         7.19504
     2012.73648        10.04451         7.26996
     2012.73921         5.92011         7.18471
     2012.74147         9.00925         8.82781
     2012.74469         7.47732         7.26738
     2012.74743        11.17992         7.41852
     2012.75012         4.89648         7.48310
     2012.75290         6.72912         7.33455
     2012.75564         3.11172         7.21829
     2012.75838         1.68233         7.26221
     2012.76112         9.07293         7.14725
     2012.76386         9.66553         7.18988
     2012.76659         8.17413         7.27513
     2012.76933         8.43373         7.20409
     2012.77207         6.82733         7.14466
     2012.77481         6.05594         7.17825
     2012.77754         7.58654         6.98449
     2012.78028         8.57514         7.35522
     2012.78302        11.30374         7.34359
     2012.78576         7.51334         7.40172
     2012.78850        17.97394         7.52831
     2012.79123        28.30454         7.63165
     2012.79397         6.56415         7.34101
     2012.79671         4.24675         7.39914
     2012.79945         7.01735         7.62778
     2012.80219        17.08695         7.60453
     2012.80492        13.36155         7.16146
     2012.80766        11.22715         7.23767
     2012.81040        11.34876         7.18988
     2012.81314         2.58536         7.37330
     2012.81587        -1.17104         7.33714
     2012.81861        -3.50244         7.49602
     2012.82135        -2.34284         7.37718
     2012.82409        10.98276         7.92101
     2012.82683         8.05037         7.53736
     2012.82956        -2.27503         7.50765
     2012.83230         3.60257         7.40947
     2012.83504         5.59917         7.34489
     2012.83778         2.51277         7.37330
     2012.84052         9.49037         7.38751
     2012.84325         0.36298         7.59161
     2012.84599         0.41958         7.42110
     2012.84873         2.91018         7.44952
     2012.85147         9.99378         7.54382
     2012.85420         0.88638         7.37718
     2012.85694       -23.26402         7.38235
     2012.86516         3.24279         7.26996
     2012.86789         4.93039         7.53219
     2012.87063        -0.06801         7.40560
     2012.87337         0.17659         7.44693
     2012.87611         2.61420         7.34747
     2012.87885         8.02380         7.39010
     2012.88158         4.19540         7.16533
     2012.88432        10.41900         7.39656
     2012.88706        11.09060         7.76987
     2012.88980        17.01320         7.61228
     2012.89253         5.98881         7.36814
     2012.89527        -2.06659         7.57482
     2012.89801         2.59001         7.58386
     2012.90075         2.18261         7.49085
     2012.90349        -1.37179         7.47923
     2012.90622         3.57181         7.45985
     2012.90896         3.07742         7.60711
     2012.91170         0.99402         7.43660
     2012.91444        10.01062         7.44693
     2012.91718         6.68022         7.29192
     2012.91991        11.54482         7.65103
     2012.92265         8.50242         7.89130
     2012.92813        18.95563         7.76858
     2012.93086        12.40523         8.03210
     2012.93360         6.71983         7.99464
     2012.93634        14.46743         7.88355
     2012.93908         5.59403         7.98172
     2012.94182         6.07063         7.81767
     2012.94455         7.12124         7.77116
     2012.94729         8.74284         7.77504
     2012.95003         2.20844         7.61228
     2012.95277         3.35004         7.37976
     2012.95551        -5.09536         7.41852
     2012.95824        16.12824         7.52573
     2012.96098        20.14585         7.86804
     2012.96372        13.37145         7.68074
     2012.96646        17.84105         7.64070
     2012.96919        13.73165         7.67428
     2012.97467        15.63885         7.74404
     2012.97741        16.54146         7.87450
     2012.98015        15.76206         7.74791
     2012.98288         8.91766         7.78150
     2012.98836        12.19686         7.80862
     2012.99657        -3.59933         7.88742
     2012.99931        -4.46573         7.84350
     2013.00205         4.47787         7.53477
     2013.00479        -3.85853         7.39010
     2013.00752        -5.44593         7.30872
     2013.01026        -1.90232         7.39526
     2013.01300        -4.62372         7.39785
     2013.01574        -4.74112         7.37330
     2013.01848         1.84748         7.49215
     2013.02121         7.42508         7.66266
     2013.02395        13.97968         7.79441
     2013.02669        15.82729         8.14448
     2013.02943        11.66689         7.99851
     2013.03216        11.44849         7.78796
     2013.03490         0.90809         7.57094
     2013.03764        -3.24531         7.56965
     2013.04038       -15.00571         7.33197
     2013.04312        -8.42010         7.47277
     2013.04585        -4.93050         7.65103
     2013.05133        -7.94930         7.36943
     2013.05407        -5.11370         7.50377
     2013.05681        -1.88110         7.26738
     2013.05954        -2.14650         7.41335
     2013.06228        -5.32289         7.52056
     2013.06502         3.47271         7.54252
     2013.06776        -4.14669         7.64457
     2013.07049         2.84691         7.76341
     2013.07323        -4.13449         7.62649
     2013.07597        -1.74489         7.91196
     2013.07871        -0.19028         7.70270
     2013.08145         0.79332         7.73629
     2013.08418        -6.79208         7.82542
     2013.08692        -5.92248         7.45598
     2013.08966        -8.69488         7.33972
     2013.09240        -1.46628         7.45210
     2013.09514        -5.12867         7.39268
     2013.09787         1.79693         7.77891
     2013.10061        -5.82347         7.98043
     2013.10335         0.02613         7.49860
     2013.10609        -5.00227         7.26738
     2013.10882        -6.03667         7.33972
     2013.11156       -12.40406         7.58644
     2013.11430        -9.27746         7.47406
     2013.11704        -7.96486         7.49990
     2013.11978       -10.32826         7.57740
     2013.12251       -12.30166         7.41077
     2013.12525       -12.08206         7.49731
     2013.12799        -8.64145         7.56061
     2013.13073        -5.38285         7.31259
     2013.13347        -2.35625         7.39526
     2013.13620         0.41535         7.32293
     2013.13894        -3.62705         7.30097
     2013.14168        -0.80045         7.45468
     2013.14442         2.70616         7.69366
     2013.14715         1.48876         7.64328
     2013.14989       -11.75564         7.50506
     2013.15263        -4.87404         7.43014
     2013.15537       -15.29844         7.50765
     2013.15811        -8.89784         7.36555
     2013.16084       -11.49323         7.45468
     2013.16358        -5.89563         7.68978
     2013.16632        -8.08303         7.40301
     2013.16906        -8.52143         7.51927
     2013.17180        -3.12583         7.42368
     2013.17453        -3.93923         7.48956
     2013.17727        -4.59562         7.61745
     2013.18001        -7.68302         7.36943
     2013.18275        -5.89942         7.36685
     2013.18548        -9.71682         7.33843
     2013.18822       -14.25322         7.36814
     2013.19096        -3.70062         7.61099
     2013.19370        -0.73102         7.49344
     2013.19644       -10.73741         7.68720
     2013.19917        -9.20981         7.52702
     2013.20191        -7.81021         7.42885
     2013.20465        -1.80761         7.47406
     2013.20739        -3.92401         7.30484
     2013.21013        -5.21041         7.43143
     2013.21286        -5.27980         7.30872
     2013.21560         4.82880         7.64845
     2013.21834         2.85540         7.58903
     2013.22108         4.38400         7.59678
     2013.22381        -7.19140         7.59290
     2013.22655       -16.01280         7.53219
     2013.22929        -9.38019         7.45081
     2013.23203        -8.79559         7.50765
     2013.23477        -3.84499         7.44306
     2013.23750        -3.62539         7.56578
     2013.24024        -4.11079         7.63553
     2013.24298        -5.89619         7.57223
     2013.24572        -2.07358         7.52961
     2013.24846        -3.98298         7.56836
     2013.25119        -1.24938         7.42110
     2013.25393         0.46522         7.42110
     2013.25667        -5.54818         7.66653
     2013.25941         6.37542         7.53606
     2013.26214         2.18003         7.60711
     2013.26488         1.55163         7.58386
     2013.26762         3.32823         7.78796
     2013.27036       -10.56417         7.63165
     2013.27310        -2.20857         7.89388
     2013.27583         0.54803         7.32680
     2013.27857        -2.68736         7.52315
     2013.28131        -0.16176         7.22863
     2013.28405         0.25284         7.18083
     2013.28679        -3.08356         7.20409
     2013.28952        -4.33696         7.07491
     2013.29226        -7.85336         7.24542
     2013.29500        -6.31175         7.22217
     2013.29774       -14.01715         7.61357
     2013.30047        -1.93355         7.49990
     2013.30321       -11.53995         7.29192
     2013.30595        -5.66835         7.24671
     2013.30869       -12.52175         7.44693
     2013.31143        -9.96914         7.17954
     2013.31416        -3.26554         7.36555
     2013.31690        -6.88594         7.32422
     2013.31964        -7.30034         7.21184
     2013.32238        -4.97874         7.18083
     2013.32512         3.42086         7.37589
     2013.32785        -3.96754         7.06070
     2013.33059        -7.32993         7.15629
     2013.33333       -11.29333         7.25059
     2013.33607       -10.03373         7.28030
     2013.33880        -4.68613         7.14208
     2013.34154        -3.53653         7.30613
     2013.34428        -4.24793         7.40301
     2013.34702        -1.76132         7.42110
     2013.34976         0.09128         7.50119
     2013.35249        -5.19012         7.54382
     2013.35523        -2.13552         7.54382
     2013.35797        -3.68092         7.47664
     2013.36071        -7.12132         7.46244
     2013.36344        -8.01671         7.57094
     2013.36618        -6.06211         7.38751
     2013.36892        -3.09851         7.29838
     2013.37166         0.89009         7.49344
     2013.37440        -2.60131         7.57869
     2013.37713        -4.60771         7.38493
     2013.37987        -6.98110         7.40301
     2013.38261        -8.34250         7.42885
     2013.38535        -7.36190         7.47148
     2013.38809        -4.41730         7.28934
     2013.39082        -3.47870         7.36297
     2013.39356        -3.43010         7.37330
     2013.39630        -2.15749         7.41464
     2013.39904         2.23911         7.52831
     2013.40177         6.24571         7.61615
     2013.40451         1.88531         7.54769
     2013.40725        11.68491         7.73112
     2013.40999         3.25451         7.49085
     2013.41273        -2.39688         7.46760
     2013.41546        -2.72928         7.74791
     2013.41820        -5.77568         7.57869
     2013.42094        -0.92308         7.34876
     2013.42368        -3.66248         7.50248
     2013.42642         3.05712         7.47535
     2013.42915         2.19073         7.52961
     2013.43189        -4.72667         7.44177
     2013.43463        -3.95207         7.37072
     2013.43737        -2.22647         7.33843
     2013.44010         1.82013         7.44952
     2013.44250         1.92741         8.84202
     2013.44558         0.00134         7.50635
     2013.44832        -9.40806         7.36814
     2013.45106        -3.29246         7.37718
     2013.45379         2.14414         7.31001
     2013.45653        -6.54326         7.38751
     2013.45927        -7.04966         7.33714
     2013.46201        -2.16506         7.39526
     2013.46475        -2.57445         7.39526
     2013.46748        -1.82285         7.33584
     2013.47022        -0.99125         7.36426
     2013.47296        -7.78265         7.36685
     2013.47570         0.21395         7.50506
     2013.47843         8.66455         7.63165
     2013.48117        10.10616         7.49473
     2013.48391        10.57776         7.66136
     2013.48665        -1.65164         7.57353
     2013.48939        -8.47904         7.62132
     2013.49212       -12.35144         7.39656
     2013.49486        -9.79184         7.59032
     2013.49760        -2.85523         7.52315
     2013.50034         0.43137         7.43014
     2013.50308        -0.48903         7.45727
     2013.50581        -1.65643         7.33197
     2013.50855        -0.48283         7.33326
     2013.51129        -1.03223         7.48956
     2013.51403         0.73838         7.40818
     2013.51676        -3.71002         7.35910
     2013.51950        -5.11642         7.36685
     2013.52224         0.72718         7.38493
     2013.52498        -3.26122         7.51798
     2013.52772         1.45638         7.41464
     2013.53045        -6.98601         7.40431
     2013.53319        -2.39841         7.47664
     2013.53593         1.17919         7.37201
     2013.53867        -2.46321         7.45210
     2013.54141        -0.59161         7.44693
     2013.54414        -0.84901         7.53090
     2013.54688        -5.25840         7.44952
     2013.54962         1.44320         7.43014
     2013.55236         0.59780         7.43402
     2013.55509        -4.82060         7.47406
     2013.55783         6.81400         7.43272
     2013.56057         3.83960         7.55157
     2013.56331        -0.99079         7.58386
     2013.56605         2.51881         7.44693
     2013.56878         4.48441         7.41722
     2013.57152         7.18101         7.40818
     2013.57426         8.88361         7.39397
     2013.57700         1.25621         7.58128
     2013.57974         2.12682         7.40560
     2013.58247        13.14742         7.70141
     2013.58521         7.86802         7.43531
     2013.58795         7.81862         7.39268
     2013.59069        10.93722         7.42756
     2013.59342        -3.15618         7.37330
     2013.59616        10.61542         7.51669
     2013.59890         0.44503         7.47664
     2013.60164         6.86463         7.51540
     2013.60438         9.37223         7.57353
     2013.60711        -0.76617         7.53348
     2013.60985         7.28443         7.45727
     2013.61259         3.02403         7.55673
     2013.61533         6.59364         7.63553
     2013.61807         6.57224         7.63424
     2013.62080         8.83184         7.55027
     2013.62354         7.76944         7.54769
     2013.62628         6.06704         7.60840
     2013.62902        -3.03736         7.48052
     2013.63175         4.09325         7.41722
     2013.63449         8.91785         7.66524
     2013.63723        10.79645         7.49860
     2013.63997        12.15905         7.70916
     2013.64271         7.53065         7.43402
     2013.64544         8.51825         7.34876
     2013.64818         3.33086         7.54123
     2013.65092        14.56746         7.80475
     2013.65366         6.19106         7.44048
     2013.65639         4.94966         7.38751
     2013.65913         1.24026         7.65103
     2013.66187         7.14886         7.45985
     2013.66461         3.42747         7.35134
     2013.66735        12.64107         7.33972
     2013.67008        10.12467         7.22088
     2013.67282         5.72127         7.51540
     2013.67556         6.16587         7.45339
     2013.67830         9.65147         7.34747
     2013.68104        14.73208         7.49473
     2013.68377         6.94668         7.35780
     2013.68651         1.55328         7.27384
     2013.68925         6.05388         7.47535
     2013.69199         8.43348         7.26996
     2013.69472        10.66908         7.35651
     2013.69746         0.83169         7.32034
     2013.70020        10.48029         7.43402
     2013.70294         9.63489         7.42627
     2013.70568         6.22749         7.46502
     2013.70841         5.63509         7.41981
     2013.71115        14.11369         7.33972
     2013.71389        15.99430         7.49731
     2013.71663         5.11190         7.40818
     2013.71937        12.06850         7.34876
     2013.72210        16.38810         7.47664
     2013.72484        22.92070         7.58644
     2013.72758        15.26530         7.74533
     2013.73032        13.05390         7.48956
     2013.73305         7.04851         7.12916
     2013.73579         4.72011         7.33068
     2013.73853         4.65371         7.30484
     2013.74127        25.54731         7.57094
     2013.74401        20.20291         7.57998
     2013.74674        14.20251         7.37201
     2013.74948         7.73212         7.22734
     2013.75222         4.78072         7.43660
     2013.75496        -3.48968         7.14596
     2013.75770        -7.80608         7.26738
     2013.76043        -1.50648         7.20150
     2013.76317         5.69712         7.26738
     2013.76591         8.64273         7.32809
     2013.76865        -2.05367         7.25188
     2013.77138        -5.44207         7.32163
     2013.77412         5.26253         7.39914
     2013.77686         2.64813         7.22734
     2013.77960         0.08673         7.25446
     2013.78234        -6.36366         7.22863
     2013.78507        -8.55606         7.23638
     2013.78781        -9.91246         7.32809
     2013.79055         1.35714         7.21700
     2013.79329        -3.86026         7.28288
     2013.79603        -0.04466         7.34618
     2013.79876         0.34295         7.34101
     2013.80150        -1.13745         7.45081
     2013.80424        -1.58985         7.53090
     2013.80698         3.19275         7.24413
     2013.80971         4.58835         7.31001
     2013.81245         3.61395         7.21700
     2013.81519         1.33156         7.22992
     2013.81793        -0.28884         7.28288
     2013.82067        -2.30824         7.24413
     2013.82340        -2.61164         7.24930
     2013.82614         6.31296         7.34489
     2013.82888         8.37656         7.26092
     2013.83162         4.13017         7.39397
     2013.83436        11.41777         7.59936
     2013.83709        12.56837         7.61357
     2013.83983        16.26197         7.40301
     2013.84257        11.06057         7.32809
     2013.84531         7.55917         7.42110
     2013.84804        10.31378         7.39526
     2013.85078        12.08838         7.51023
     2013.85352        16.50898         7.36426
     2013.85626         2.32858         7.24930
     2013.85900         4.91918         7.25188
     2013.86173         0.83978         7.31259
     2013.86447        -1.81862         7.40560
     2013.86721         6.55299         7.30613
     2013.86995         1.46759         7.32551
     2013.87269         5.51619         7.19375
     2013.87542        23.45279         7.33326
     2013.87816        18.60439         7.34101
     2013.88090         7.19599         7.35134
     2013.88364        15.42060         7.74016
     2013.88637         9.41520         7.55932
     2013.88911         0.29580         7.15242
     2013.89185        -7.67460         7.15629
     2013.89459       -10.13200         7.24671
     2013.89733         0.28760         7.27901
     2013.90006        -4.01179         7.30484
     2013.90280        -1.09219         7.44693
     2013.90554         1.35541         7.33197
     2013.90828         7.50101         7.33714
     2013.91102         1.36761         7.22475
     2013.91375         2.37621         7.23380
     2013.91649         4.09782         7.44823
     2013.91923        17.58142         7.81637
     2013.92197        12.52502         7.69495
     2013.92470        19.07462         7.52961
     2013.92744        20.47522         7.54511
     2013.93018        17.58682         7.21571
     2013.93292        14.11943         7.45468
     2013.93566        14.17403         7.33972
     2013.93839        14.99963         7.09558
     2013.94113         3.83423         7.31518
     2013.94387        -2.07217         7.02324
     2013.94661        -0.24157         7.18213
     2013.94935         0.92704         7.25834
     2013.95208        -0.66936         7.16017
     2013.95482        -6.30776         7.14079
     2013.95756        -2.10316         7.17308
     2013.96030        -1.11556         7.25059
     2013.96303        -1.32096         7.26738
     2013.96577         3.12965         7.18729
     2013.96851        -1.59575         7.21829
     2013.97125        16.92385         7.39526
     2013.97399         2.61545         7.45727
     2013.97672        -3.89795         7.58386
     2013.97946         0.05565         7.35005
     2013.98220        -2.72574         7.31259
     2013.98494        -0.75914         7.27901
     2013.98767        -8.00554         7.26092
     2013.99041        -7.73294         7.17438
     2013.99315       -10.88234         7.23121
     2013.99589        -6.60674         7.28547
     2013.99863        -9.43414         7.30743
     2014.00410        -4.31693         7.28159
     2014.00684        -3.79633         7.30355
     2014.00958        -5.49573         7.13304
     2014.01232       -11.31313         7.36426
     2014.01505        -8.87253         7.60194
     2014.01779        -4.15992         7.37460
     2014.02053        14.02468         7.39268
     2014.02327        12.10028         8.01272
     2014.02600        16.58188         8.09798
     2014.02874        15.90148         7.95588
     2014.03148        28.79008         7.87709
     2014.03422        18.99569         7.68720
     2014.03696         1.12829         7.58644
     2014.03969        -0.03711         7.38105
     2014.04243        -1.14551         7.51411
     2014.04517         2.22109         7.68332
     2014.04791         0.42269         7.28547
     2014.05065         0.18330         7.12400
     2014.05338        -3.24310         7.45339
     2014.05612        -5.23750         7.36426
     2014.05886        -7.21090         7.38235
     2014.06160        -3.84830         7.20279
     2014.06433         0.16330         7.50248
     2014.06707        -0.69009         7.48827
     2014.06981        -0.13749         7.36297
     2014.07255         0.83811         7.24155
     2014.07529         1.24371         7.42885
     2014.07802        12.62531         7.51669
     2014.08076        12.65991         7.46889
     2014.08350        10.12252         7.49860
     2014.08624         5.44212         7.49473
     2014.08898        -2.45128         7.59290
     2014.09171        -1.12868         7.51927
     2014.09445        -4.87108         7.14079
     2014.09719        -1.94348         7.45598
     2014.09993         9.01713         7.25059
     2014.10266        12.97973         7.57353
     2014.10814        17.08193         7.90809
     2014.11635         6.51274         7.76729
     2014.11909        18.31334         7.88355
     2014.12457        20.51254         7.91326
     2014.12731        13.38614         7.34101
     2014.13004         7.65374         7.33584
     2014.13278        13.41234         8.07731
     2014.13552         7.69495         7.76729
     2014.13826         4.66555         7.73370
     2014.14099         3.92915         7.75954
     2014.14373        -1.45725         7.86934
     2014.14647        -1.64065         7.75566
     2014.14921        10.23895         7.36426
     2014.15195         3.09056         7.33972
     2014.15468        -6.11584         7.32938
     2014.15742        11.04776         7.26221
     2014.16016         8.61336         7.62390
     2014.16290         0.97896         7.27901
     2014.16564         0.05456         7.43402
     2014.16837         5.02117         7.90163
     2014.17111        -4.23423         8.13027
     2014.17385        15.06837         7.95459
     2014.17659        11.30997         7.49860
     2014.17932        13.07157         7.94813
     2014.18206        -2.67783         7.57353
     2014.18480        13.92378         7.44952
     2014.18754         4.53838         7.48827
     2014.19028        -2.07602         7.32938
     2014.19301        -6.46942         7.57094
     2014.19575         2.55918         7.39139
     2014.19849         2.02178         7.40947
     2014.20123        -8.42161         7.63424
     2014.20397        -4.97101         7.51669
     2014.20670        -2.65141         7.38881
     2014.20944        -1.72181         7.40431
     2014.21218        -2.72421         7.26092
     2014.21492        -7.30461         7.35134
     2014.21765        -1.96500         7.31388
     2014.22039        -4.73140         7.28288
     2014.22313        -4.70980         7.51798
     2014.22587        -2.78520         7.51540
     2014.22861         3.58440         7.61099
     2014.23134         5.28100         7.42110
     2014.23408         4.42061         7.49860
     2014.23682        -0.00479         8.07085
     2014.24230        -5.99659         7.48181
     2014.24503        -2.80799         7.52315
     2014.24777         0.48861         8.04372
     2014.25051       -14.66278         8.14965
     2014.25325        -0.05318         7.75179
     2014.25598         4.71442         7.66782
     2014.25872         3.91002         7.56190
     2014.26146         1.88962         7.84996
     2014.26420       -12.18478         7.55802
     2014.26694       -13.35017         7.62520
     2014.26967       -10.96357         7.62649
     2014.27241        -9.39297         7.66007
     2014.27515        -4.09537         7.76600
     2014.27789        -5.22877         7.52831
     2014.28062        -7.22417         7.41464
     2014.28336        -4.85657         7.46373
     2014.28610        -6.72796         7.66266
     2014.28884        -5.77436         7.61486
     2014.29158        -8.51676         7.47019
     2014.29431         5.96084         7.64716
     2014.29705        -8.76856         7.46244
     2014.29979        -8.42896         7.39656
     2014.30253        -7.10135         7.59678
     2014.30527        -1.45675         7.44048
     2014.30800        -2.85715         7.37718
     2014.31074         2.70845         7.74920
     2014.31348        -0.77195         7.56578
     2014.31622         2.26165         7.52315
     2014.31895         3.65526         7.51798
     2014.32169        -9.40914         7.60711
     2014.32717       -13.12094         7.77891
     2014.32991        -4.32934         7.41464
     2014.33264        -3.86474         7.45598
     2014.33538        -2.19213         7.49085
     2014.33812        -1.19353         7.62649
     2014.34086         2.70407         7.54640
     2014.34360        -5.64833         7.38493
     2014.34633        -5.23773         7.36426
     2014.34907        -4.39213         7.74662
     2014.35455         2.58208         7.61486
     2014.35728        -6.06432         7.56965
     2014.36002       -11.38872         7.46244
     2014.36276       -16.19512         7.44564
     2014.36550        -7.05052         7.37847
     2014.36824       -10.43491         7.58515
     2014.37097        -4.81331         7.55415
     2014.37371        -7.17971         7.33068
     2014.37645        -5.80911         7.43531
     2014.37919        -4.79351         7.26738
     2014.38193        -7.56791         7.57482
     2014.38466       -14.66830         7.39139
     2014.38740       -15.12070         7.46760
     2014.39014        -9.96410         7.46631
     2014.39561        -5.13790         7.41852
     2014.39835        -4.26130         7.69753
     2014.40109        -4.24469         7.51798
     2014.40383       -11.87909         7.31905
     2014.40657        -9.97549         7.24413
     2014.40930        -5.52689         7.40689
     2014.41204       -12.46129         7.40947
     2014.41478        -8.22269         7.50506
     2014.41752        -4.36609         7.53994
     2014.42026        -1.98348         7.37072
     2014.42299        -7.18488         7.42627
     2014.42573        -7.52828         7.35780
     2014.42847        -6.02668         7.48181
     2014.43121        -7.67008         7.45985
     2014.43394        -5.25348         7.56836
     2014.43668         0.91313         7.43402
     2014.43942        -3.38827         7.35393
     2014.44216       -10.71367         7.44048
     2014.44490        -3.48107         7.51411
     2014.44763         6.73353         7.68720
     2014.45037         1.73413         7.27384
     2014.45311        -5.30026         7.31905
     2014.45585        -6.55466         7.25446
     2014.45859       -10.47206         7.14208
     2014.46132        -7.89846         7.34489
     2014.46406        -8.57786         7.31905
     2014.46680        -2.21026         7.27513
     2014.46954        -3.61365         7.28805
     2014.47227        -6.05105         7.28676
     2014.47501        -7.73345         7.30613
     2014.47775        -0.25285         7.32422
     2014.48049        -4.33925         7.22734
     2014.48323         6.16835         7.57998
     2014.48596        15.86096         7.66007
     2014.48870         7.72656         7.57353
     2014.49144         1.98916         7.28547
     2014.49418        -6.03024         7.26351
     2014.49692        -8.24864         7.20538
     2014.49965        -3.97104         7.42368
     2014.50239        -6.38343         7.37589
     2014.50513         5.58817         7.43402
     2014.50787        -0.29823         7.34230
     2014.51060        -9.61063         7.30226
     2014.51334         2.61197         7.36814
     2014.51608         1.59157         7.42885
     2014.51882        10.76918         7.60324
     2014.52156         8.70178         7.52186
     2014.52429         1.28138         7.45468
     2014.52703        11.36798         7.39397
     2014.52977         3.38858         7.52186
     2014.53251        -6.90082         7.44435
     2014.53525        -6.66821         7.41593
     2014.53798         9.35039         7.36555
     2014.54072         4.37499         7.53219
     2014.54346        -2.85741         7.34101
     2014.54620         1.66619         7.39268
     2014.54893         4.28379         7.25705
     2014.55167         7.44939         7.52444
     2014.55441         9.59100         7.43143
     2014.55715         0.05060         7.63036
     2014.55989         1.41720         7.52831
     2014.56262         2.71980         7.48310
     2014.56536         4.20040         7.53090
     2014.56810        -2.78600         7.49602
     2014.57631        -2.59519         7.61357
     2014.58179         0.90301         7.80346
     2014.58354        -9.41833        15.14318
     2014.58726         2.38622         7.90809
     2014.59000         1.75282         7.46760
     2014.59274         1.79842         7.49473
     2014.59548         1.20302         7.45339
     2014.59822         2.57262         7.53865
     2014.60095         2.62522         7.93005
     2014.60369         3.53083         7.52186
     2014.60643         0.28443         7.38105
     2014.60917         2.18603         7.54898
     2014.61190        13.95563         7.84350
     2014.61464         7.68223         7.70141
     2014.61738         8.42083         7.48181
     2014.62012        10.96344         7.57998
     2014.62286         0.52704         7.32293
     2014.62559         4.09964         7.43531
     2014.62833         6.74624         7.63811
     2014.63107         8.29384         7.83963
     2014.63381         4.00444         7.82800
     2014.63655         4.29605         7.51798
     2014.63928         4.86965         7.35522
     2014.64202        -0.69875         7.44952
     2014.64476        -0.16215         7.52444
     2014.64750        -0.94555         7.41206
     2014.65023        -0.78895         7.44048
     2014.65297         7.57666         7.44823
     2014.65571         5.27726         7.41852
     2014.65845         8.76686         7.38622
     2014.66119        -1.60054         7.55673
     2014.66392        13.94306         7.58257
     2014.66666         8.81966         7.50635
     2014.66940         3.94627         7.42368
     2014.67214         1.11187         7.53477
     2014.67488        -0.07253         7.45081
     2014.67761         0.61207         7.46244
     2014.68035         4.74867         7.29451
     2014.68309        -0.97873         7.32551
     2014.68583         4.62887         7.23509
     2014.68856         9.75748         7.44952
     2014.69130         5.31708         7.31518
     2014.69404         1.76868         7.22217
     2014.69678         0.06128         7.28676
     2014.69952         1.56088         7.25705
     2014.70225         4.46748         7.24800
     2014.70499         4.26509         7.26351
     2014.70773         4.93169         7.32938
     2014.71047         8.05129         7.44177
     2014.71321         4.65889         7.38881
     2014.71594         1.49149         7.33455
     2014.71868         7.19409         7.37718
     2014.72142        12.64570         7.36814
     2014.72403         5.33218         7.62778
     2014.72637        10.98540         9.24505
     2014.72862        -2.42246        15.39378
     2014.73125        31.18504        18.82079
     2014.73389        12.43154        27.21586
     2014.73652         0.58205       142.96693
     2014.74880         7.89671         7.27513
     2014.75154         2.22831         7.50248
     2014.75427         3.25492         7.29838
     2014.75701        -0.61648         7.25446
     2014.75975         3.28712         7.21442
     2014.76249         9.88472         7.26996
     2014.76522         2.44832         7.24284
     2014.76796         5.43592         7.17954
     2014.77070         2.89253         7.24930
     2014.77344         2.94413         7.33326
     2014.77618        12.24973         7.34876
     2014.77891         5.56233         7.28417
     2014.78165         9.11693         7.32809
     2014.78439         4.93153         7.24413
     2014.78713        20.07214         7.36555
     2014.78987        11.20874         7.43789
     2014.79260         5.43934         7.27255
     2014.79534        16.41494         7.26996
     2014.79808        11.97354         7.45856
     2014.80082         6.35814         7.47277
     2014.80355        18.51375         7.48956
     2014.80629        11.87035         7.52573
     2014.80903        27.44595         7.46631
     2014.81177        19.97255         7.43660
     2014.81451         7.87815         7.56319
     2014.81724        14.17375         7.34489
     2014.81998        15.33535         7.45468
     2014.82272        11.19696         7.46244
     2014.82546        27.25756         7.42756
     2014.82820        -0.83284         7.31518
     2014.83093        -0.43424         7.36297
     2014.83367         3.63136         7.27772
     2014.83641         6.28296         7.16533
     2014.83915         2.87457         7.46760
     2014.84188        11.37617         7.56578
     2014.84462        16.59677         7.48310
     2014.84736         3.70837         7.48956
     2014.85010        11.13797         7.42885
     2014.85284         1.11357         7.23121
     2014.85557         1.38318         7.33068
     2014.85985        30.41124        24.00974
     2014.86248        16.27173        84.47523
     2014.87420         7.63388         9.56540
     2014.87683         3.92437         9.93097
     2014.88021         3.38359         7.40947
     2014.88172        -3.48698        32.19297
     2014.88569         3.89679         7.51152
     2014.88826         2.96724         8.34728
     2014.89608        17.96366        10.32495
     2014.89870        17.75316        10.95145
     2014.90134         9.44367        11.74071
     2014.90360       -21.00219        31.17895
     2014.91795        12.55544        10.57684
     2014.92057         6.61494        10.70473
     2014.92321        20.83745        11.99777
     2014.92547        29.08059        42.01285
     2014.93661        16.17918        16.38971
     2014.93982        16.64623        10.28232
     2014.94244        12.88172        10.41279
     2014.94509        10.90224        10.98245
     2014.95575        18.90737        18.35576
     2014.96169         3.26001         9.98264
     2014.96432         8.47351        10.97987
     2014.96783         1.00384         7.46373
     2014.97056         2.77144         7.45856
     2014.97311        -1.19514         7.86934
     2014.97762         6.31815        17.68146
     2014.98035        27.69274        18.75232
     2014.98883         0.21180        11.75621
     2014.99950        15.67894        22.88850
     2015.00222        10.82953        19.36849
     2015.00543       -17.53442        10.45542
     2015.00807       -16.34492        10.74865
     2015.01070        -2.04042        12.35429
     2015.01868         4.07817        17.64788
     2015.02731        -7.24663        11.17492
     2015.02993        -5.08014        11.83501
     2015.03257        -5.70763        13.10609
     2015.03788        13.94242        16.13266
     2015.04055        28.67295        20.44968
     2015.04597        33.77810        28.62258
     2015.04918        -0.10885        11.82596
     2015.05444        -1.28085        13.84497
     2015.05710         4.32367        16.02544
     2015.05976        -0.34780        19.20056
     2015.06243        23.42974        24.78479
     2015.06511        30.23329        28.76596
     2015.06784        23.31888        31.34042
     2015.07367         0.26343        13.04150
     2015.07632         8.68194        14.95587
     2015.07897        -5.09455        17.42828
     2015.08163         1.40298        20.21458
     2015.08698       -36.08793       147.36921
     2015.09473        14.22344        13.43290
     2015.09555         0.46221        13.73259
     2015.09819        13.06972        17.10663
     2015.10084        15.54724        16.68423
     2015.10350        21.37477        24.06400
     2015.10617        37.90431        33.39301
     2015.11479        -7.17050        13.39027
     2015.11841        -7.30807         7.23250
     2015.12115        -2.15947         7.10720
     2015.12357       -10.83316         8.08506
     2015.12537       -10.35145        26.09592
     2015.12804        29.54809       153.46368
     2015.13483        -7.36446         7.22475
     2015.13757        -6.36886         7.09429
     2015.14031        -8.83325         6.97803
     2015.14305        -9.72765         7.09041
     2015.14579        -9.41405         7.08912
     2015.14852        -7.66845         7.17308
     2015.15126        -8.99285         7.10462
     2015.15400        -8.91625         7.12141
     2015.15674        -2.29564         7.18729
     2015.15948         0.74096         7.20021
     2015.16221         0.32856         7.15887
     2015.16495        -2.64284         7.06199
     2015.16769        -5.73324         7.01161
     2015.17043        -5.86264         7.17825
     2015.17316       -10.19703         7.34230
     2015.17590       -11.04543         7.42885
     2015.17864        -4.23683         7.27384
     2015.18138        -3.24923         7.36039
     2015.18412        -0.21563         7.25446
     2015.18685        -2.44703         7.25317
     2015.18959         1.15758         7.23380
     2015.19233         3.58518         7.59290
     2015.19507        -3.62522         7.25317
     2015.19780        -3.16662         7.32163
     2015.20054         5.24798         7.32034
     2015.20328         4.87458         7.40431
     2015.20602        -0.15781         7.23509
     2015.20876        -6.63121         7.17954
     2015.21149       -11.07461         7.26221
     2015.21423       -11.70901         7.54382
     2015.21697        -8.09441         7.22475
     2015.21971        -1.06781         7.25705
     2015.22245       -10.61321         7.27255
     2015.22518         2.91140         7.26351
     2015.22792         1.07000         7.51152
     2015.23066        -5.97640         7.25446
     2015.23340        -0.03080         7.49344
     2015.23613         9.37380         7.51023
     2015.23887        -5.45260         7.48698
     2015.24161         2.24501         7.53606
     2015.24435         1.21261         7.64328
     2015.24709        -2.41979         7.25059
     2015.24982        -6.30319         7.12658
     2015.25256        -6.42359         7.11237
     2015.25530        -4.77799         7.19504
     2015.25804        -7.03538         7.12916
     2015.26078         7.11322         7.08266
     2015.26351         0.46682         7.07104
     2015.26625        -4.55858         7.04003
     2015.26899        -1.91898         7.17308
     2015.27173         4.13262         7.29580
     2015.27446         4.65623         7.24284
     2015.27720         3.53283         7.16662
     2015.27994        -7.25757         7.25576
     2015.28268        -7.63997         7.21442
     2015.28542        -6.36737         7.35780
     2015.28815        -7.05177         7.47923
     2015.29089        -7.21416         7.27126
     2015.29363        -2.90256         7.33326
     2015.29637       -10.79996         7.33972
     2015.29911        -0.56336         7.35780
     2015.30184         0.06124         7.29192
     2015.30458        -4.42616         7.34101
     2015.30732        -8.48655         7.09429
     2015.31006         4.51305         7.12012
     2015.31279        -4.85235         7.09945
     2015.31553        -2.61575         7.11883
     2015.31827        -7.87015         7.10333
     2015.32101        -5.92555         7.20925
     2015.32375        -5.18794         7.28417
     2015.32648       -11.76034         7.28547
     2015.32922        -7.03174         7.29063
     2015.33196        -1.78614         7.30097
     2015.33470        -3.41754         7.15887
     2015.33744        -8.56794         7.20150
     2015.34017        -6.42333         7.15758
     2015.34291        -5.18273         7.12012
     2015.34565       -11.00513         7.14079
     2015.34839        -6.90253         7.29063
     2015.35112        -7.35093         7.05812
     2015.35386        -3.42033         7.24284
     2015.35660         6.85127         7.21829
     2015.35934        -9.01612         7.26221
     2015.36208        -4.53152         7.20279
     2015.36481         1.77308         7.20150
     2015.36755         1.86768         7.29063
     2015.37029         2.19628         7.24155
     2015.37303        -2.12912         7.25705
     2015.37577        -0.83051         7.17438
     2015.37850        -0.89391         7.53606
     2015.38124         5.79669         7.34101
     2015.38398         4.80129         7.44177
     2015.38672         9.98189         7.33584
     2015.38945         2.56349         7.53090
     2015.39219       -10.00990         7.35134
     2015.39493        -2.54830         7.31259
     2015.39767       -10.63370         7.32034
     2015.40041        -3.44710         7.34489
     2015.40314        -8.49950         7.51152
     2015.40588       -13.84590         7.30097
     2015.40862        -3.79629         7.54640
     2015.41136        -3.00169         7.32293
     2015.41410        -7.92509         7.29580
     2015.41683         8.27551         7.41335
     2015.41957         1.71911         7.27772
     2015.42231         7.79671         7.31130
     2015.42505       -13.53968         7.52573
     2015.42778        -9.94508         7.36297
     2015.43052        -5.80748         7.33714
     2015.43326        -5.00288         7.25059
     2015.43600        -3.77228         7.33843
     2015.43874        -1.48668         7.39139
     2015.44147        -5.10907         7.51152
     2015.44421        -8.18547         7.28805
     2015.44695        -2.78487         7.35522
     2015.44969        -8.69127         7.26738
     2015.45243        -3.71467         7.55157
     2015.45516        -1.65207         7.43402
     2015.45790        -8.66946         7.49344
     2015.46064         3.01514         7.55932
     2015.46338        -2.15126         7.60582
     2015.46611        -3.06366         7.41464
     2015.46885         0.29194         7.41981
     2015.47159         2.53354         7.40043
     2015.47433        -5.09685         7.60324
     2015.47707        -0.23825         7.65103
     2015.47980        -4.52765         7.45985
     2015.48254         2.29595         7.57869
     2015.48528         0.86455         7.46373
     2015.48802        -2.63685         7.41852
     2015.49076         3.86375         7.65361
     2015.49349         2.65536         7.71174
     2015.49623         3.68496         7.86029
     2015.49897         1.56856         7.64586
     2015.50171         5.61216         7.26221
     2015.50444         7.64076         7.43660
     2015.50718        -5.34964         7.43660
     2015.50992         8.99497         7.44435
     2015.51266        13.16857         7.37201
     2015.51540         4.79317         7.42497
     2015.51813         9.10277         7.41593
     2015.52087         9.67837         7.49731
     2015.52361        14.36097         7.60969
     2015.52635         9.21558         7.54252
     2015.52908        12.51818         7.29580
     2015.53182         9.85578         7.36685
     2015.53456         9.64738         7.28934
     2015.53730         5.18198         7.29063
     2015.54004         2.34058         7.40301
     2015.54277        -3.43981         7.42627
     2015.54551         7.09979         7.33843
     2015.54825         1.54339         7.52444
     2015.55099         7.46599         7.31259
     2015.55373        12.74259         7.45081
     2015.55646         9.26319         7.48439
     2015.55920         7.00580         7.26996
     2015.56194         3.19340         7.34489
     2015.56468         9.31100         7.33972
     2015.57015         6.27320         7.50506
     2015.57289         4.31880         7.50377
     2015.57563         4.29441         7.19892
     2015.57837         0.72401         7.36297
     2015.58110        10.92761         7.35651
     2015.58384         8.44321         7.39914
     2015.58658         7.34481         7.35134
     2015.58932         6.67141         7.59936
     2015.59206         1.86502         7.77116
     2015.59479         7.49262         7.52444
     2015.59753         7.31022         7.44048
     2015.60027         7.26882         7.61745
     2015.60301        11.42842         7.79829
     2015.60574         4.91302         7.57482
     2015.60848         8.74763         7.48569
     2015.61122        12.92023         7.48569
     2015.61396         3.12483         7.49602
     2015.61670         1.38543         7.31388
     2015.61943         5.71303         7.29709
     2015.62217         9.68763         7.25446
     2015.62491        11.03623         7.31130
     2015.62765         8.93984         7.26996
     2015.63039         7.45144         7.22346
     2015.63312         3.78704         7.33843
     2015.63586        11.51364         7.36685
     2015.63860         5.28124         7.27642
     2015.64134         7.21084         7.33584
     2015.64407         2.70045         7.31647
     2015.64681         5.81705         7.50248
     2015.64955         7.84165         7.28547
     2015.65229         5.88825         7.37589
     2015.65503        13.87985         7.34618
     2015.65776         5.82545         7.49602
     2015.66050        15.08906         7.21442
     2015.66324        17.47566         7.36685
     2015.66598        14.99426         7.32163
     2015.66872         7.16886         7.52056
     2015.67145        12.09546         7.25446
     2015.67419         4.77306         7.39526
     2015.67693         6.52367         7.17696
     2015.67967         7.58527         7.21442
     2015.68240        11.47387         7.28547
     2015.68514         4.42347         7.30872
     2015.68788        11.26507         7.37460
     2015.69062         4.32867         7.31001
     2015.69336         2.49728         7.58644
     2015.69609         7.67488         7.25446
     2015.69883         8.11848         7.45727
     2015.70157        14.97108         7.35522
     2015.70431         9.30568         7.24542
     2015.70705        16.43628         7.20409
     2015.70978        24.01189         7.33714
     2015.71252        19.61749         7.36039
     2015.71526         8.13909         7.34876
     2015.71800        11.64069         7.23121
     2015.72073        13.02729         7.19375
     2015.72347        10.12189         7.09170
     2015.72621         1.92650         7.26351
     2015.72895         0.04310         7.29451
     2015.73169         6.88970         7.31259
     2015.73442         4.56030         7.21184
     2015.73716         6.76390         7.10204
     2015.73990        12.29350         7.21700
     2015.74264        11.19811         7.30743
     2015.74538        10.69471         7.64716
     2015.74811         8.46931         7.62261
     2015.75085         0.91091         7.22605
     2015.75359         4.89951         7.28030
     2015.75633        10.65911         7.23121
     2015.75906        13.18371         7.18729
     2015.76180         6.46532         7.27642
     2015.76413         8.56953         8.77356
     2015.77002        19.21412         7.01549
     2015.77275        18.16772         6.97286
     2015.77549        21.35632         7.44306
     2015.77823        15.92593         7.14079
     2015.78097        19.83153         7.12012
     2015.78371        19.10513         7.05812
     2015.78644        16.95373         6.98578
     2015.78918        15.95133         7.12400
     2015.79192        25.30093         6.94832
     2015.79466        32.29254         7.22605
     2015.79739        24.62814         7.09816
     2015.80013        20.35574         7.01549
     2015.80287        10.97134         7.08524
     2015.80561        12.03394         7.30355
     2015.80835        11.66254         6.99611
     2015.81108         8.97915         6.95865
     2015.81382        18.81275         7.13562
     2015.81656        20.97435         7.26221
     2015.81930        15.86195         7.26221
     2015.82203        24.39155         7.30226
     2015.82477        20.74415         7.29709
     2015.82751        17.89676         7.38622
     2015.83025        28.67336         7.45339
     2015.83299        27.12996         7.19633
     2015.83572        23.09156         7.24284
     2015.83846        14.92716         7.21571
     2015.84120        11.59576         7.13821
     2015.84394         7.29637         7.12012
     2015.84668        12.49297         7.12916
     2015.84941        12.27057         7.16533
     2015.85215        16.82517         7.19892
     2016.09164       -16.89925        41.66408
     2016.09308        -3.67989         7.34359
     2016.09582       -13.38428         7.43660
     2016.09856        -5.36368         7.24671
     2016.10130        -9.03408         7.29322
     2016.10403       -14.52548         7.28417
     2016.10677       -11.97288         7.16533
     2016.10951       -12.06728         7.19375
     2016.57319         6.95233        15.15351
     2016.57494         4.55400         7.43272
     2016.57768         8.32860         7.20021
     2016.58042         5.91820         7.01937
     2016.58316         0.75281         7.20667
     2016.58590        -4.08459         7.04262
     2016.58863         0.56001         7.17438
     2016.59137        -2.23739         7.19375
     2016.59411         6.86321         7.37976
     2016.59685        16.06681         7.29967
     2016.59958         2.02842         7.38622
     2016.60232         6.85402         7.13691
     2016.60506        -0.57938         7.13821
     2016.60780        -0.54178         7.13046
     2016.61054         3.79482         7.20538
     2016.61327         5.94242         7.20667
     2016.61601        -0.37797         7.08137
     2016.61875         3.77463         7.22346
     2016.62149         3.19923         7.18213
     2016.62423        10.15283         7.47794
     2016.62970         5.65903         7.24671
     2016.63244         1.63964         7.41852
     2016.63518         9.49924         7.26480
     2016.63791        12.13684         7.10462
     2016.64065        10.10944         7.15758
     2016.64339         7.88804         7.19375
     2016.64613         4.50964         7.22088
     2016.64887         0.24625         7.14466
     2016.65160        10.46385         7.25705
     2016.65434         4.20445         7.23250
     2016.65708         1.43505         7.28030
     2016.65982         3.72265         7.31388
     2016.66256         2.26625         7.21700
     2016.66529         8.55886         7.20925
     2016.66803        18.73146         7.24671
     2016.67077         8.94406         7.40818
     2016.67351        12.37466         7.11883
     2016.67624        17.48526         7.11754
     2016.67898         6.00886         7.21829
     2016.68172        14.97147         7.11108
     2016.68446        17.20407         7.45081
     2016.68720         8.58367         7.54511
     2016.68993         7.91227         7.22088
     2016.69267         6.08587         7.08654
     2016.69541         7.45047         7.02970
     2016.69815         7.14908         7.24025
     2016.70089        10.05468         7.18729
     2016.70362         8.12328         7.28288
     2016.70636         8.79988         7.57094
     2016.70910        10.13348         7.48052
     2016.71184        12.14908         7.01937
     2016.71457        11.81068         7.12012
     2016.71731        18.87029         7.04003
     2016.72005        10.92589         6.92894
     2016.72279         9.40549         6.95994
     2016.72553        11.51309         7.01678
     2016.72826        13.27069         7.07233
     2016.73100        15.06029         6.95994
     2016.73374         3.67290         6.99611
     2016.73648        10.12550         6.96382
     2016.73921         5.83710         6.96770
     2016.74195         7.36770         6.93798
     2016.74469         5.87330         7.13950
     2016.74743         4.98090         6.95736
     2016.75017        11.34551         6.79589
     2016.75290        14.36111         6.83723
     2016.75564        13.22671         6.86177
     2016.75838        13.18031         7.01549
     2016.76112        12.10891         6.88632
     2016.76386        13.72751         6.98836
     2016.76659        15.21512         7.00386
     2016.76933        11.42672         6.90311
     2016.77207         8.02632         7.02582
     2016.77481        12.98492         7.00257
     2016.77754        21.08552         7.01032
     2016.78028        11.34912         6.99741
     2016.78302        11.02573         7.14725
     2016.78576        23.07433         7.12787
     2016.78850        26.51593         7.07749
     2016.79123        21.38253         7.09558
     2016.79397        21.75113         7.01161
     2016.79671         7.36073         7.13562
     2016.79945         1.25134         7.03616
     2016.80219         4.10994         7.06845
     2016.80492        24.98954         7.08524
     2016.81040         6.28074         6.88890
     2016.81314         9.35434         6.96511
     2016.81587        11.82795         7.02970
     2016.81861        13.02355         6.98061
     2016.82135         9.06615         7.04003
     2016.82683        17.04035         7.03745
     2016.82956        19.96995         6.93540
     2016.83230        15.51756         6.93669
     2016.83504         4.84416         7.13046
     2016.83778         6.10676         6.89923
     2016.84052         2.58436         7.04520
     2016.84325         3.34196         7.10333
     2016.84599         2.37556         7.03745
     2016.84873        16.83116         7.05683
     2016.85147        14.51677         7.12400
     2016.85420         6.78437         7.29709
     2016.85694         4.61697         7.18083
     2016.85968         9.33857         7.33714
     2016.86242         6.96817         6.98836
     2016.86516        22.42577         7.20667
     2016.86789        16.67738         7.04649
     2016.87337        27.96658         7.38105
     2016.87611         9.65618         6.94703
     2016.88158        -0.28562         6.98707
     2016.88432         6.61999         6.92507
     2016.88706        12.50859         7.01291
     2016.88980        10.70119         6.97674
     2016.89253         7.68279         6.94057
     2016.89801         3.83899         6.90569
     2016.90349         6.69320         7.08783
     2016.90622        11.64180         7.12529
     2017.83007         7.37868        21.63034
     2017.83162         4.86115         7.67299
     2017.83436        -0.52225         7.05553
     2017.83709         3.58435         7.09558
     2017.84257         1.41656         6.98578
     2017.84531         1.43816         7.12400
     2017.85352        -8.32004         7.12658
     2017.85626        -0.84043         7.18083
     2017.85900        -6.43983         7.36814
     2017.86173         0.81577         7.28159
     2017.86447        -6.19263         7.07362
     2017.86721        -1.09703         7.12400
     2017.86995        -5.61143         7.24800
     2017.87269         0.23518         7.13046
     2017.87542        -3.66822         7.09429
     2017.87816        -1.92962         7.00128
     2017.88090        -1.06202         7.18471
     2017.88364        -5.35942         7.10204
     2017.88637         5.07118         7.27255
     2017.88911         3.09479         7.17696
     2017.89185         0.69139         7.24413
     2017.89459         8.50699         7.20021
     2017.89733         3.12559         7.30872
     2017.90006        -5.12581         7.07879
     2017.90280        -3.44521         7.17825
     2017.90554         3.29340         7.06458
     2017.90828        -1.99600         7.11754
     2017.91102         3.41160         7.24930
     2017.91375        -8.86080         7.11495
     2017.91649        -7.30820         7.06587
     2017.91923        -5.95560         7.05037
     2017.92197       -11.47499         7.01549
     2017.92470       -16.26639         7.23121
     2017.92744       -16.24579         7.04908
     2017.93018       -16.86219         7.07362
     2017.93292       -14.68659         7.05295
     2017.93566       -13.90899         7.14337
     2017.93839       -11.27639         7.21313
     2017.94113       -11.90778         7.18600
     2017.94387       -10.40718         7.07749
     2017.94661       -10.86958         7.03745
     2017.94935       -10.13398         7.21829
     2017.95208       -14.57738         7.18729
     2017.96030        -4.60957         6.97415
     2017.96303        -9.66297         7.04262
     2017.96577        -4.45537         7.20667
     2017.96851        -2.77277         6.98836
     2017.97125       -10.05017         7.08524
     2017.97399        -9.45456         6.98707
     2017.97672       -13.38696         6.87727
     2017.97946       -10.90136         6.99870
     2017.98220        -1.10676         6.98449
     2017.98494       -11.05716         6.91086
     2017.98767       -10.54156         7.09170
     2017.99041       -18.94895         7.05683
     2017.99315        -0.58635         7.11108
     2017.99589         0.81725         7.27255
     2017.99863       -12.48315         6.99870
     2018.00136       -21.64955         7.08654
     2018.00410       -16.37795         7.04649
     2018.00684       -15.52634         7.07233
     2018.00958       -11.90674         7.11754
     2018.01232        -6.47814         7.21700
     2018.01505        -4.06554         7.11883
     2018.01779        -6.12994         7.10850
     2018.02053        -6.49134         7.06328
     2018.02327        -1.79073         7.09687
     2018.02600       -11.30013         7.10204
     2018.03422       -18.92733         7.32293
     2018.03696       -15.38373         7.07749
     2018.03969       -17.67212         7.13950
     2018.04243       -18.98152         7.17696
     2018.04517       -10.15892         6.91861
     2018.04791        -3.91732         7.09816
     2018.05065        -9.77172         6.96640
     2018.05338        -9.20512         7.16275
     2018.05612       -12.75251         7.06974
     2018.05886       -15.46591         7.14854
     2018.06160       -11.50831         7.08912
     2018.06433        -8.75171         7.29451
     2018.06707        -9.51511         7.15500
     2018.06981       -10.57751         7.45339
     2018.07255       -13.62991         7.36943
     2018.07529       -11.29830         7.51669
     2018.07802       -22.22670         7.32163
     2018.08076       -10.61410         7.17825
     2018.08350       -15.08550         7.17438
     2018.08624       -22.54590         7.11366
     2018.08898        -5.84130         7.35393
     2018.09171        -8.86769         7.41335
     2018.09445         0.82691         7.21442
     2018.09719        -6.65149         7.32551
     2018.09993       -16.27789         7.23121
     2018.10266       -20.49629         7.26480
     2018.10540       -20.26069         7.18083
     2018.10814       -14.89508         7.11495
     2018.11088       -15.99348         7.01291
     2018.11362       -14.83788         7.01937
     2018.11635       -19.26128         7.07362
     2018.11909       -18.40068         7.27772
     2018.12183       -16.20408         7.21442
     2018.12457       -13.01947         7.08783
     2018.12731       -17.55587         7.05037
     2018.13004        -1.02127         7.07749
     2018.13278        10.75033         7.33068
     2018.13552         2.76893         7.12658
     2018.13826         0.50453         7.40560
     2018.14099        -5.69686         7.36814
     2018.14373        -7.76026         7.21829
     2018.14647       -21.92366         7.89000
     2018.14921       -18.50706         7.68978
     2018.15195       -13.66146         7.51152
     2018.15468        -9.73786         7.30226
     2018.15742       -14.24225         7.48827
     2018.16016       -18.27365         7.28805
     2018.16290       -18.78205         7.38493
     2018.16564       -14.52145         7.38235
     2018.16837       -18.57685         7.25059
     2018.17111       -13.91125         7.36297
     2018.17385       -17.92564         7.33197
     2018.17659       -12.63304         7.10204
     2018.17932       -14.89044         7.23638
     2018.18206        -3.76984         7.11625
     2018.18480        -5.71124         7.27772
     2018.18754        -9.40564         7.00257
     2018.19028       -12.23603         7.15758
     2018.19301        -7.21743         7.22217
     2018.19575         1.84517         7.06328
     2018.19849       -10.41923         7.00774
     2018.20123        -5.73163         7.05295
     2018.20397        -4.70303         6.83981
     2018.20670       -17.58143         7.00128
     2018.20944        -8.47382         6.88890
     2018.21218       -12.88222         6.88244
     2018.21492       -25.49962         7.03616
     2018.21765        -7.40902         7.15112
     2018.22039        -8.38942         7.09041
     2018.22313       -13.91582         7.01420
     2018.22587       -13.00021         7.04391
     2018.22861       -18.22261         7.07620
     2018.23134       -18.00101         7.03745
     2018.23408       -19.26841         7.05812
     2018.23682       -15.49781         7.18213
     2018.23956       -15.66621         7.31388
     2018.24230       -17.14860         7.15112
     2018.24503       -12.09000         7.40043
     2018.24777       -12.37940         7.07233
     2018.25051        -6.30580         7.18988
     2018.25325       -16.49220         6.97545
     2018.25598       -11.83060         7.02453
     2018.25872        -0.51599         7.44177
     2018.26146         3.06961         7.51798
     2018.26420         1.80021         7.52573
     2018.26694       -17.75719         7.10075
     2018.26967       -18.11459         7.06328
     2018.27241        -8.76299         7.23121
     2018.27515        -4.32438         6.89665
     2018.27789        -2.65278         7.15758
     2018.28062       -11.38018         7.31001
     2018.28336       -19.99858         7.13175
     2018.28610       -15.27398         7.16404
     2018.28884        -1.51638         7.15629
     2018.29158       -13.61877         7.35780
     2018.29431       -18.35217         7.25963
     2018.29705       -21.16157         6.91473
     2018.29979       -14.05697         6.97286
     2018.30253       -15.87637         7.25059
     2018.30527       -10.96977         7.17179
     2018.30800       -14.49416         7.07104
     2018.31074       -15.39656         7.01291
     2018.31348       -14.38796         7.00903
     2018.31622       -15.06736         7.18600
     2018.31895        -5.65776         7.32422
     2018.32169        -7.37316         7.07879
     2018.32443        -9.15455         6.95994
     2018.32717       -12.19895         7.09558
     2018.32991       -12.64635         7.33068
     2018.33264       -10.04275         7.04132
     2018.33538       -11.13715         7.30097
     2018.33812       -11.12755         7.34359
     2018.34086       -13.63495         6.94444
     2018.34360       -13.47134         6.99224
     2018.34633       -10.41874         7.22217
     2018.34907       -10.12414         7.28159
     2018.35181         5.35946         7.22863
     2018.35455        -4.44694         7.00903
     2018.35728        -8.09334         7.05683
     2018.36002        -6.74373         7.25834
     2018.36276       -12.17313         7.25059
     2018.36550       -13.30753         7.03745
     2018.36824        -8.72693         7.31776
     2018.37097         5.40167         7.22863
     2018.37371         0.82227         7.02970
     2018.37645        -1.44012         7.22734
     2018.37919        -3.42352         7.05037
     2018.38193        -6.90792         7.10333
     2018.38466        -1.10432         7.28288
     2018.38740        -6.22872         6.91732
     2018.39014        -3.46812         7.19892
     2018.39288        -5.64651         7.20538
     2018.39561         4.26509         7.29967
     2018.39835         8.54069         7.02712
     2018.40109        -7.82771         7.28159
     2018.40383       -11.56511         7.11108
     2018.40657        -2.04151         7.10979
     2018.40930         1.22410         7.36814
     2018.41204         0.12070         7.04520
     2018.41478        -8.92270         7.16533
     2018.41752        -8.28910         7.20021
     2018.42026       -10.69650         7.14337
     2018.42299        -3.26090         7.12141
     2018.42573        -1.68729         6.96770
     2018.42847        -1.58369         7.31905
     2018.43121        -1.90309         7.17825
     2018.43394        -5.14749         6.97674
     2018.43668         2.24611         7.36426
     2018.43942        -3.80429         7.11237
     2018.44216         4.64832         7.29838
     2018.44490        -7.10708         7.25059
     2018.44763        -1.54948         7.05424
     2018.45037       -11.82688         7.16404
     2018.45311        -3.93428         7.02582
     2018.45585        -6.65468         7.16275
     2018.45859        13.04793         7.43531
     2018.46132        -1.82147         7.12012
     2018.46406         0.74213         7.22992
     2018.46680       -10.01727         7.14208
     2018.46954        -4.18467         7.22605
     2018.47227        -6.43007         7.22217
     2018.47501        -3.64147         7.10591
     2018.47775        -5.06386         7.18858
     2018.48049        -5.63026         7.33714
     2018.48323        -7.91866         6.95994
     2018.48596        -7.93206         7.14854
     2018.48870       -10.88346         7.18342
     2018.49144        -4.20386         7.11883
     2018.49418        -6.33925         7.22605
     2018.49692        -5.23165         7.25059
     2018.49965        -9.74905         6.97932
     2018.50239        -5.27045         7.01032
     2018.50513        -9.76685         7.30613
     2018.50787        -4.90425         7.29838
     2018.51060       -11.56964         7.33197
     2018.51334       -11.61004         7.17308
     2018.51608        -7.96444         7.23896
     2018.51882        -9.42984         7.21313
     2018.52156        -2.85624         7.23380
     2018.52703        -1.04603         7.40689
     2018.52977        -9.18843         7.17825
     2018.53251        -3.22383         7.14983
     2018.53525        -3.10023         7.13175
     2018.53798        -0.80163         7.26351
     2018.54072         0.48297         7.14079
     2018.54620        -6.66582         7.07879
     2018.54893        -4.70322         7.11883
     2018.55167        -8.19162         7.03228
     2018.55441        -5.17302         7.18342
     2018.55715        -3.14042         7.37072
     2018.55989        -9.71281         7.38881
     2018.56262        -6.22021         7.05553
     2018.56536        -6.17261         7.15629
     2018.56810        -6.67201         7.23896
     2018.57084        -8.64241         7.25834
     2018.57357        -0.28581         7.31776
     2018.57631        -1.13420         7.41722
     2018.57905         3.13140         7.47019
     2018.58179         5.87000         7.38881
     2018.58453        -4.69540         7.52444
     2018.58726        -1.48480         7.08395
     2018.59000        -0.04720         6.95478
     2018.59274        10.01341         7.19633
     2018.59548         4.08101         7.17308
     2018.59822         2.37961         7.34230
     2018.60095        -0.71779         7.15112
     2018.60369         3.21581         7.18342
     2018.60643         5.38041         7.11366
     2018.60917         0.93601         6.97674
     2018.61190        -1.16738         7.06974
     2018.61464        -0.57678         7.19633
     2018.61738         2.87382         7.05812
     2018.62012         1.11542         7.16792
     2018.62286         7.54202         7.39397
     2018.62559         3.55762         7.28030
     2018.62833        -5.27877         7.29322
     2018.63107         0.15483         7.08266
     2018.63381         8.94443         7.30097
     2018.63655        -9.09597         6.87340
     2018.63928        -4.30037         7.54123
     2018.64202        -2.17777         7.27126
     2018.64476         4.03284         7.24025
     2018.64750         0.00544         7.12787
     2018.65023        -1.51196         7.18213
     2018.65297         7.41064         7.06458
     2018.65571        -0.65776         7.19504
     2018.65845         3.00084         7.14596
     2018.66119        -0.37355         7.29192
     2018.66392         9.11105         7.06587
     2018.66666         2.74265         7.03228
     2018.66940        -0.28775         7.09170
     2018.67214         1.59985         7.15629
     2018.67488        -1.29255         7.12271
     2018.67761         1.46906         7.20796
     2018.68035        -3.88434         7.30226
     2018.68309        -3.05474         7.08395
     2018.68583        -1.48314         7.27901
     2018.68856        -0.90154         7.03874
     2018.69130        -3.17494         7.33326
     2018.69404         3.74967         7.23896
     2018.69678         4.99727         7.05812
     2018.69952         0.86787         7.05812
     2018.70225         4.39847         7.24930
     2018.70499        -6.38293         7.17825
     2018.70773         2.27067         7.13433
     2018.71047        -6.46372         7.23380
     2018.71321        -1.13412         7.18083
     2018.71594        -3.14852         6.98836
     2018.71868        -8.05292         7.19504
     2018.72142        -6.57332         7.18858
     2018.72416        -7.80372         7.13433
     2018.72689         9.12089         7.10333
     2018.72963        -1.25351         7.14596
     2018.73511       -10.40631         7.52186
     2018.73785        -3.29571         7.17954
     2018.74058        -6.31511         6.89536
     2018.74332         3.99649         7.09299
     2018.74606         7.57910         7.03616
     2018.74880         3.46570         7.02453
     2018.75427        10.09390         7.27513
     2018.75975         0.16110         7.13950
     2018.76522         1.64731         7.25963
     2018.76796        11.40491         7.19763
     2018.77070        14.96951         7.13950
     2018.77344         2.88611         7.07879
     2018.77618         1.00771         7.18600
     2018.77891         2.62532         6.97028
     2018.78165        -2.91208         7.01937
     2018.78439        -0.32548         7.01549
     2018.78713        -4.89188         7.17050
     2018.78987        -9.76928         7.10075
     2018.79260        -7.34768         7.05424
     2018.79534         2.64793         7.01807
     2018.79808        -3.63147         7.02195
     2018.80082        -4.19687         6.90182
     2018.80355         0.31873         7.03616
     2018.80629         2.57633         7.11108
     2018.80903         1.58193         7.05166
     2018.81177         5.60754         7.41335
     2018.81451        -1.65786         7.06458
     2018.81724        -0.36426         7.11237
     2018.81998        15.69534         7.17825
     2018.82272        17.12694         7.33326
     2018.82546         3.02954         7.29063
     2018.82820        -1.41285         7.18342
     2018.83093         3.38475         7.13175
     2018.83367        15.97035         7.25188
     2018.83641        19.97895         7.28676
     2018.83915         0.07855         7.10720
     2018.84188       -17.64585         7.17179
     2018.84462        -3.75424         6.96253
     2018.84736        -5.20764         7.01807
     2018.85010        -1.51704         6.92636
     2018.85284        -8.68544         6.81656
     2018.85557       -10.81084         7.02582
     2018.85831        -8.34224         6.88632
     2018.86105        -6.64863         6.92378
     2018.86379        -8.87903         7.22088
     2018.86653        -3.11643         7.11237
     2018.86926        -5.72183         7.15500
     2018.87200        -2.70423         7.14983
     2018.87474        -4.24863         7.01937
     2018.87748        -2.42903         7.26867
     2018.88021        -5.70542         7.16404
     2018.88295        -5.67082         7.36943
     2018.88569        -4.65222         7.35522
     2018.88843        -2.88462         7.38493
     2018.89117        -4.62402         7.35910
     2018.89390         0.39058         7.39914
     2018.89664        -1.86681         8.02951
     2018.89938        -6.32221         7.49473
     2018.90212        -2.89461         7.21571
     2018.90485         5.42299         7.32680
     2018.90759         2.71259         7.23638
     2018.91033         6.72619         7.09041
     2018.91307        -7.31420         7.24413
     2018.91581        -1.11460         7.30872
     2018.91854        -4.30900         7.44693
     2018.92128        -7.70540         7.31388
     2018.92402        -4.11280         7.22992
     2018.92676        -3.34620         6.99741
     2018.92950        -5.63459         7.17179
     2018.93223        -3.43299         7.33714
     2018.93497        -1.29839         7.08524
     2018.93771         1.74321         7.15629
     2018.94045         3.15781         7.14854
     2018.94318         2.36441         6.96124
     2018.94866       -10.68638         7.15371
     2018.95140        -0.86578         7.50765
     2018.95414         3.50582         7.14466
     2018.95687        -1.07058         7.36426
     2018.95961         2.28902         7.18471
     2018.96783         0.66183         7.39656
     2018.97056        -1.33657         7.24542
     2018.97330       -12.42897         7.15887
     2018.97604         2.16663         7.21829
     2018.97878         2.79724         7.33326
     2018.98151       -17.33716         7.72208
     2018.98425        -1.32656         7.68203
     2018.98699       -10.63496         7.28288
     2018.98973       -12.39636         7.45339
     2018.99247       -17.07876         7.40689
     2018.99520        -0.08015         7.55157
     2019.00068       -10.57195         7.45081
     2019.00342       -16.02735         7.37201
     2019.00616        -9.26475         7.29322
     2019.00889        -2.16415         7.23767
     2019.01163        -2.87055         7.27255
     2019.01437         1.00606         7.25963
     2019.01711         6.02466         7.32938
     2019.01984        -3.60774         7.54123
     2019.02258        -5.28314         7.37201
     2019.02532        -4.56854         7.57482
     2019.02806        -4.84194         7.38105
     2019.03080        -9.24533         7.43014
     2019.03353        -7.08273         7.32809
     2019.03627       -15.87913         7.24930
     2019.03901        -1.69753         7.19504
     2019.04175        -5.39793         7.25188
     2019.04449         2.58867         7.43272
     2019.04722        -2.89872         7.69883
     2019.04996         4.16688         7.88742
     2019.05270        -0.89252         8.39379
     2019.05544        -9.00592         8.16902
     2019.05817       -13.91332         8.11735
     2019.06091        -2.53972         7.67299
     2019.06365       -15.81411         7.85771
     2019.06639        -9.49451         7.32163
     2019.06913       -15.77891         7.23121
     2019.07186        -8.22831         7.36297
     2019.07460       -10.03971         7.28288
     2019.07734        -4.29411         7.25317
     2019.08008        -5.61150         7.23250
     2019.08282        -2.01690         7.31001
     2019.08555        -4.15830         7.16662
     2019.08829        -4.25370         7.35910
     2019.09103        -0.91810         7.44048
     2019.09377         1.99850         7.41852
     2019.09650        -5.50089         7.17696
     2019.09924        -6.84729         7.38235
     2019.10198        -7.52569         7.14854
     2019.10472       -10.49309         7.20409
     2019.10746        -9.32249         7.25576
     2019.11019        -7.36389         7.26996
     2019.11293        -9.36928         7.53994
     2019.11567        -4.40868         7.82671
     2019.11841         0.88992         7.39397
     2019.12115        14.15552         7.93263
     2019.12388         7.08712         7.71691
     2019.12662         4.86472         7.60194
     2019.12936        -3.42867         7.88613
     2019.13210        -3.12507         7.82025
     2019.13483       -12.44447         7.71045
     2019.13757        -6.75587         7.86417
     2019.14031       -13.43827         7.80733
     2019.14579        -5.95006         7.89259
     2019.14852        -3.80846         7.88225
     2019.15126        -5.73286         7.78279
     2019.15400       -14.14126         7.74274
     2019.15948       -14.69506         7.48439
     2019.16221       -15.85846         7.52444
     2019.16495        -9.07685         7.37847
     2019.16769       -18.22725         7.35393
     2019.17043       -18.89865         7.31776
     2019.17316       -18.36305         7.38881
     2019.17590        -8.99945         7.25834
     2019.18138        -9.20924         7.13304
     2019.18412       -17.37464         7.32422
     2019.18685       -14.48004         7.21313
     2019.18959       -17.96644         7.26351
     2019.19233       -13.22784         7.13691
     2019.19507       -15.41424         7.14854
     2019.19780       -24.97163         7.22863
     2019.20054       -31.51803         7.52444
     2019.20328       -16.01443         7.31388
     2019.20602       -16.29183         7.36685
     2019.20876       -18.63623         7.31130
     2019.21149       -22.61963         7.15500
     2019.21423       -15.79502         7.20409
     2019.21697       -14.51742         7.29967
     2019.21971       -21.88482         7.43789
     2019.25376       -24.85946        23.13652
     2019.25645       -16.58591        18.60506
     2019.29197        -6.17015        16.79145
     2019.29363       -16.22558         7.27513
     2019.29637       -11.01598         7.33068
     2019.29911         1.70763         7.23380
     2019.30184       -10.64577         7.14208
     2019.30458       -18.59217         7.17954
     2019.30732        -3.64957         7.27513
     2019.31006        -2.61197         7.25059
     2019.31279       -14.96937         7.08266
     2019.31553        -8.01476         7.01549
     2019.31827       -12.01316         7.23638
     2019.32101       -12.28156         6.93798
     2019.32375       -20.96296         6.89148
     2019.32648       -17.82636         6.92248
     2019.32922       -15.26476         6.87340
     2019.33196        -9.55915         7.24800
     2019.33470        -5.76055         7.28676
     2019.33744       -10.98095         7.11495
     2019.34017       -11.63735         7.14725
     2019.34291       -15.71175         6.98965
     2019.34565       -12.52815         7.18858
     2019.34839       -14.07154         7.30613
     2019.35112       -12.67194         6.97932
     2019.35386       -13.00934         7.05424
     2019.35660        -6.25474         7.12400
     2019.35934        -4.73014         7.25446
     2019.36208        -1.15654         7.11108
     2019.36481        -4.98193         7.22863
     2019.36755         8.09967         7.10075
     2019.37029         5.57127         7.21054
     2019.37303        -4.13313         7.12400
     2019.37577        -0.25153         7.36685
     2019.37850        -4.41893         7.14079
     2019.38124        -5.24532         7.24413
     2019.38398        -0.28072         7.27642
     2019.38672       -12.25212         7.28288
     2019.38945        -2.94352         7.33197
     2019.39219        -7.73492         7.35651
     2019.39493        -6.09932         7.12012
     2019.40041        13.45689         7.29322
     2019.40314        11.37449         7.37718
     2019.40491        29.39417        20.70028
     2019.41060         3.35857        31.53806
     2019.41331         9.27615        24.01233
     2019.41683        -2.40950         7.35651
     2019.42231        -3.84130         7.10720
     2019.42778         6.01990         7.17696
     2019.53457        -9.80862         7.14596
     2019.53679        -0.62551         8.59659
     2019.54825        -6.85362         6.96124
     2019.55373        -3.20742         7.32422
     2019.57015       -10.36881         6.99353
     2019.57837        -3.34801         7.09041
     2019.58658        -9.49720         7.03487
     2019.60301        -6.09259         7.21571
     2019.61943        -0.18698         7.04778
     2019.62217        -1.38138         7.13433
     2019.62491        -1.84078         7.02324
     2019.62765         3.73582         7.02841
     2019.64681        -8.14697         7.08266
     2019.64955        -6.42436         7.03228
     2019.65229        -1.14676         6.96253
     2019.66050         4.11004         7.25059
     2019.67693         0.01565         7.25059
     2019.69062        13.61966         7.22605
     2019.69336         2.45026         7.08783
     2019.69609        -1.72514         6.99741
     2019.70431        -3.56733         6.90569
     2019.70705         4.42627         7.05424
     2019.71526         7.11107         7.05037
     2020.00821        -1.63555         7.05295
     2020.53114        -2.13464         7.10075
     2020.53661        -8.77644         7.01678
     2020.54483        -4.25763         7.01291
     2020.54757        -4.82403         7.12916
     2020.55030         1.18657         7.10333
     2020.55578         1.16778         7.08524
     2020.56399         2.90458         7.08395
     2020.56673        -1.39782         7.04003
     2020.57494        -0.48701         7.20925
     2020.62696        -3.68958         7.14079
     2020.64065        -0.19357         7.16017
     2020.64887        -7.93977         7.19763
     2020.65434        -3.26857         7.12271
     2020.65708        -2.24696         7.05941
     2020.66803        -0.84356         7.06328
     2020.67077         0.20404         7.07362
     2020.68993        -4.34274         7.13433
     2020.69267        -3.58414         7.21959
     2020.69541        -1.66154         7.40431
     2020.69815        -4.28094         7.20279
     2020.70362        -5.03774         7.09429
     2020.70636        -4.75213         7.40172
     2020.70910         0.38047         7.39397
     2020.72279        -6.37952         7.08008
     2020.72553         1.49708         7.24542
     2020.72823        -4.64135         7.67557
     2020.73100        10.08828         7.23896
     2020.73374         3.90288         7.20150
     2020.73648        15.20048         7.16921
     2020.73921         6.06609         7.14079
     2020.74195         1.15669         7.07879
     2020.74469         0.89129         7.08783
     2020.74743        -2.68111         7.16404
     2020.75017        -0.01851         7.07749
     2020.75290        -5.70891         7.18083
     2020.75564        -1.63630         6.96899
     2020.75838         3.05430         6.97932
     2020.76112         3.41790         7.09558
     2020.76386         0.77750         6.97415
     2020.76659        10.77910         6.90569
     2020.76933         9.32070         7.08783
     2020.77207         6.24731         7.00386
     2020.77481        13.85191         7.15371
     2020.77754         9.13051         7.16921
     2020.78028        23.15011         7.13304
     2020.78302        14.40371         7.08654
     2020.78576        15.70731         7.23121
     2020.78850        -1.30409         7.11237
     2020.79123        -0.01948         7.11883
     2020.79397         3.88612         7.12529
     2020.79671         8.87272         7.05424
     2020.79945         6.47332         7.09558
     2020.80219         3.13492         7.23638
     2020.80492         9.13452         7.12271
     2020.80766         0.85713         7.07233
     2020.81040         4.55173         7.13562
     2020.81314        17.63733         7.12529
     2020.81587        -0.16607         6.99870
     2020.81861         3.79753         7.06587
     2020.82135         2.53413         7.11366
     2020.82409         3.94274         7.08137
     2020.82683         1.87534         7.10720
     2020.82956         4.44694         7.23509
     2020.83230        12.09754         7.22992
     2020.83504         7.69914         7.20021
     2020.83778         5.75174         6.98449
     2020.84052         5.50535         6.99224
     2020.84325        -2.20305         7.21313
     2020.84599         3.98555         7.12658
     2020.84873        14.81115         7.18342
     2020.85147         5.64575         7.02324
     2020.85420         6.45435         6.88115
     2020.85694         7.30696         7.09170
     2020.85968         9.31556         7.09558
     2020.86242         9.42216         7.15887
     2020.86516        10.16076         7.23250
     2020.86789        13.67236         7.21442
     2020.87063        12.98896         7.06716
     2020.87337        18.81857         7.34876
     2020.87611        22.51117         7.44048
     2020.87885        12.22977         7.25059
     2020.88158         7.55837         7.25834
     2020.88432         4.06997         7.12400
     2020.88706         1.51657         7.40818
     2020.88980         1.07918         7.17567
     2020.89253         1.18478         7.07620
     2020.89527         0.50738         7.15242
     2020.89801         3.31798         7.29063
     2020.90075         5.19158         6.99482
     2020.90349         4.86618         7.02712
     2020.90622         1.87979         7.09558
     2020.90896         3.34639         7.36943
     2020.91170         3.96499         7.30355
     2020.91444         6.13759         7.08912
     2020.91718        -3.19981         7.03745
     2020.91991        -0.25721         7.06845
     2020.92265        -1.01861         7.10333
     2020.92539        -3.44100         7.00645
     2020.92813        -6.76240         7.06845
     2020.93086        -3.65180         7.01291
     2020.93360        -2.03820         7.06716
     2020.93634        -0.17160         7.12400
     2020.93908        -1.26700         7.06974
     2020.94182        -4.55439         7.01420
     2020.94455        -4.52079         6.98578
     2020.94729        -5.96219         6.95736
     2020.95003        -6.31359         7.08266
     2020.95277       -11.60199         7.04520
     2020.95551        -1.41339         7.10204
     2020.95824        -6.88578         7.14725
     2020.96098         3.64682         7.08395
     2020.96372        -6.95658         7.10979
     2020.96646         3.09302         7.25705
     2020.96919         5.99262         7.29709
     2020.97193         6.13122         7.09170
     2020.97467         3.51283         7.12529
     2020.97741        -4.66257         7.08137
     2020.98015        -4.52697         7.33455
     2020.98288        -0.85137         7.13562
     2020.98562         5.80523         6.92378
     2020.98836         3.11083         6.97415
     2020.99110         2.83644         6.90440
     2020.99384         1.54204         6.92248
     2020.99657        -1.42036         6.90311
     2020.99931         6.04524         6.92119
     2021.00205         4.87284         6.97674
     2021.00479        10.67544         6.98836
     2021.00752        12.66505         7.09945
     2021.01026        20.07765         7.31388
     2021.01300         7.76025         7.36814
     2021.01574        11.28885         7.14466
     2021.01848         6.47545         6.96511
     2021.02121        -3.70395         6.95349
     2021.02395        -0.45034         6.91215
     2021.02669        -6.32774         6.92248
     2021.02943        -2.89714         6.98320
     2021.03216         9.09846         7.08008
     2021.03490        20.17306         7.04778
     2021.03764        -4.42434         7.06199
     2021.04038         6.96327         7.05553
     2021.04312         0.96087         7.07362
     2021.04585        -5.40853         7.15629
     2021.04859        -1.82793         7.00128
     2021.05133        -3.72333         7.00903
     2021.05407        -0.30673         7.37330
     2021.05681        -1.00613         7.18471
     2021.05954        -2.70152         6.98061
     2021.06228        -2.62192         6.98578
     2021.06502        -3.07632         6.95865
     2021.06776         5.50228         6.94832
     2021.07049         1.36888         6.97415
     2021.07323         4.59348         6.92248
     2021.07597        -6.79691         6.93928
     2021.07871         0.42169         6.97415
     2021.08145        -0.98371         6.93282
     2021.08418        -1.48511         7.01678
     2021.08692        -6.36051         6.99870
     2021.08966         2.81109         6.91215
     2021.09240        -7.30930         6.96382
     2021.09514        -6.86470         7.10591
     2021.09787        -0.34810         7.22605
     2021.10061        -7.81350         6.94832
     2021.10335        -3.06390         6.95607
     2021.10609        -6.33730         6.95219
     2021.10882        -6.86569         6.96124
     2021.11156        -9.53109         6.97803
     2021.11430        -7.17749         6.99611
     2021.11704        -5.38389         6.97028
     2021.11978        -7.14629         7.02582
     2021.12251        -9.67469         7.24413
     2021.12525         7.35192         7.40818
     2021.13073        -4.45388         7.51927
     2021.13347       -10.14928         7.52961
     2021.13620         5.88032         7.52444
     2021.13894         0.77892         7.59807
     2021.14168        -7.90147         7.51281
     2021.14442        -2.59087         7.33584
     2021.14715         1.29473         7.17050
     2021.14989       -13.21767         6.97286
     2021.15263        -7.60607         7.10333
     2021.15537        -8.71347         7.08912
     2021.15811        -2.58886         7.25834
     2021.16084        -5.86926         7.09299
     2021.16358        -4.99866         7.10333
     2021.16632        -2.47806         7.10075
     2021.16906         3.13854         6.92894
     2021.17180        -4.35486         6.91086
     2021.17453       -10.69525         7.13433
     2021.17727         0.66935         7.07491
     2021.18001        -7.45005         7.02582
     2021.18275        -7.87645         7.31388
     2021.18548        -5.83085         6.95994
     2021.18822        -3.58825         6.86952
     2021.19096       -11.28365         6.90052
     2021.19370        -6.81304         6.98190
     2021.19644       -10.25944         6.93798
     2021.19917        -5.72384         6.96124
     2021.20191        -4.55924         6.89407
     2021.20465        -1.64964         6.84756
     2021.20739        -1.92804         6.93540
     2021.21013         3.59657         7.16921
     2021.21286        -5.05383         7.04391
     2021.21560        -1.31723         6.91215
     2021.21834        -4.92263         6.86823
     2021.22108        -7.57803         6.94832
     2021.22381        -8.43643         6.97545
     2021.22655        -4.88182         6.87986
     2021.22929         4.65378         6.93282
     2021.23203         1.50938         6.88502
     2021.23477        -8.73102         6.87340
     2021.23750        -8.51742         6.93669
     2021.24024        -3.59882         6.90182
     2021.24298        -5.11221         6.90182
     2021.24572        -3.97361         6.87340
     2021.24846        -4.36301         6.99095
     2021.25119        -0.70441         6.97157
     2021.25393        -4.81781         7.02712
     2021.25667        -5.41221         6.96511
     2021.25941         0.05640         6.93023
     2021.26214         0.70300         6.91086
     2021.26488         2.00760         6.97157
     2021.26762        -1.75480         7.01549
     2021.27036        -3.53920         7.03874
     2021.27310        -0.90060         6.89794
     2021.27583        -1.05599         6.95736
     2021.27857        -6.01839         7.06587
     2021.28131        -2.49779         6.96124
     2021.28405        -5.11119         7.03099
     2021.28679        -0.59259         6.95349
     2021.28952         1.08401         7.09299
     2021.29226        -1.19638         7.05941
     2021.29500         0.30922         7.04908
     2021.29774         0.08082         7.27255
     2021.30047         1.83942         7.13562
     2021.30321         5.34802         7.05295
     2021.30595         4.48262         7.25834
     2021.30869        10.63123         7.23767
     2021.31143         5.70883         6.91603
     2021.31416         7.39243         6.94703
     2021.31690         3.84503         6.96124
     2021.31964         5.16763         7.12787
     2021.32238         1.42623         7.21571
     2021.32512        -5.95917         6.97286
     2021.32785        -3.27056         7.01807
     2021.33059         9.07604         7.24930
     2021.33333        10.66864         7.08137
     2021.33607        -2.10276         6.98707
     2021.33880        -0.91916         7.01549
     2021.34154        -2.28256         6.97286
     2021.34428        -4.64095         7.24930
     2021.34702        -8.23635         6.99741
     2021.34976        -5.85175         6.96640
     2021.35249        -3.53815         7.00645
     2021.35523        -3.03655         7.01807
     2021.35797        -3.92095         7.05941
     2021.36071        -5.35234         7.09170
     2021.36344        -2.52674         7.06845
     2021.36618        -7.36514         7.04649
     2021.36892        -2.32754         6.99741
     2021.37166        -0.22094         7.01549
     2021.37440        -5.18034         7.11495
     2021.37713         0.03727         7.06716
     2021.37987        -2.10913         7.16017
     2021.38261        -2.22053         7.34489
     2021.38535        -4.26793         7.17696
     2021.38809        -2.70133         7.16921
     2021.39082         2.38427         7.15242
     2021.39356       -11.92912         7.11366
     2021.39630         6.42648         7.15758
     2021.39904         0.93408         7.04520
     2021.40177         0.49068         7.19892
     2021.40451        -2.19472         7.22346
     2021.40725        -2.96412         7.04262
     2021.40999        -1.69451         7.08137
     2021.41273        -2.35391         7.01937
     2021.41546         0.32969         7.14596
     2021.41820        -0.49071         7.15112
     2021.42094         7.16389         7.33584
     2021.42368         0.92749         7.12916
     2021.42642         0.91610         7.13821
     2021.42915        -0.01930         7.06070
     2021.43189         4.37530         7.06974
     2021.43463        -0.96710         7.06328
     2021.43737         4.51650         7.11883
     2021.44010        -3.28290         7.17954
     2021.44284        -3.02029         7.16533
     2021.44558        13.12731         7.28676
     2021.44832        -0.87209         7.29967
     2021.45106         4.75351         7.52444
     2021.45379        22.63711         7.36426
     2021.45653        -0.33629         7.21313
     2021.45927         4.29231         7.10333
     2021.46201        -2.43808         7.09558
     2021.46475         0.52552         7.13821
     2021.46748         1.31412         7.22605
     2021.47022        11.84372         7.25963
     2021.47296        11.63932         7.51798
     2021.47570         8.52292         7.38105
     2021.48117        -3.95287         7.15629
     2021.48391        -1.60527         7.10591
     2021.48665        -0.55467         7.08266
     2021.48939         1.44993         7.25576
     2021.49212         3.94553         7.13433
     2021.49486         4.31314         7.21700
     2021.49760         7.66674         7.51023
     2021.50034         3.46034         7.22346
     2021.50308         1.10594         7.25317
     2021.50581         1.89254         7.21571
     2021.50855         0.73814         7.16533
     2021.51129         6.58075         7.23380
     2021.51403         4.44735         7.19633
     2021.51676         7.20195         7.15371
     2021.51950         4.46455         7.30613
     2021.52224        -3.47485         7.15887
     2021.52498         4.02275         7.11883
     2021.52772         1.23936         7.09299
     2021.53045         0.06196         7.13304
     2021.53319        -0.44344         7.15112
     2021.53593         1.09816         7.41464
     2021.53867         0.98676         7.64974
     2021.54141        -1.31064         7.29967
     2021.54414        -2.12003         7.39785
     2021.54688        -4.29843         7.34747
     2021.54962         2.62517         7.36555
     2021.55236         3.94977         7.28934
     2021.55509         2.08537         7.40043
     2021.55783        -2.13803         7.28547
     2021.56057        -1.78442         7.19117
     2021.56331         5.74118         7.29709
     2021.56605        -0.02422         7.28159
     2021.56878         2.37838         7.30097
     2021.57152         4.99698         7.35780
     2021.57426        -2.98642         7.22475
     2021.57700         4.85219         7.33584
     2021.57974         2.28879         7.14596
     2021.58247        -1.83061         7.18600
     2021.58521         3.59299         7.43014
     2021.58795        -1.37041         7.21054
     2021.59069         0.03319         7.28805
     2021.59616        -1.82560         7.37589
     2021.59890         1.64200         7.17308
     2021.60164         5.44860         7.32938
     2021.60438         4.69720         7.12012
     2021.60711         2.68080         7.17696
     2021.60985        -2.61460         7.11237
     2021.61259         3.25501         7.09945
     2021.61533       -11.63139         7.16275
     2021.61807         0.99321         7.10591
     2021.62080         3.42981         7.06716
     2021.62354        -1.74159         7.21184
     2021.62628         8.88901         7.26996
     2021.62902        -5.20238         7.10204
     2021.63175        -2.99478         7.10333
     2021.63449         6.28382         7.03616
     2021.63723         6.06942         7.44952
     2021.63997         2.51902         7.22992
     2021.64271         5.56362         7.21829
     2021.64544        -1.66577         7.14337
     2021.64818         4.84683         7.05553
     2021.65092         6.03743         6.98578
     2021.65366         4.28703         7.05553
     2021.65639        -0.00637         7.07362
     2021.65913        -4.14377         7.06328
     2021.66187         6.44784         7.03874
     2021.66461         4.38444         6.98836
     2021.66735         8.04104         7.00386
     2021.67008         1.98164         7.15887
     2021.67282         1.10824         7.33326
     2021.67556        -0.48816         7.43143
     2021.67830        -4.16955         7.23896
     2021.68104         6.14505         6.98578
     2021.68377         3.25665         7.10591
     2021.68651         7.70325         7.26738
     2021.68925         5.04285         7.16017
     2021.69199        13.82245         7.20409
     2021.69472        12.97206         7.11108
     2021.69746         5.26066         7.03099
     2021.70020         8.39726         7.10591
     2021.70294         5.19986         7.04908
     2021.70568         5.30446         7.12529
     2021.70841         7.22906         7.12271
     2021.71115        16.97467         7.08137
     2021.71389         7.00927         7.24800
     2021.71663        17.18387         7.16275
     2021.71937        12.49547         7.13691
     2021.72210         0.64907         7.08783
     2021.72484        -2.14133         7.09429
     2021.72758         3.80527         6.99999
     2021.73032        -3.28912         7.42497
     2021.73305         7.19148         7.07104
     2021.73579        10.86908         7.09687
     2021.73853        21.52768         7.16275
     2021.74127        10.54528         7.02582
     2021.74401         9.61288         7.10720
     2021.74674         5.98249         7.15112
     2021.74948         5.58909         7.22475
     2021.75222         6.15269         7.10462
     2021.75496         9.94829         7.13562
     2021.75770         6.37889         7.09945
     2021.76043         8.81649         7.13175
     2021.76317         7.38510         7.19763
     2021.76591         8.58870         7.09041
     2021.76865         6.64330         7.07491
     2021.77138        11.20690         6.97674
     2021.77412        12.62350         7.25317
     2021.77686         8.42710         7.07362
     2021.77960         4.48371         7.07749
     2021.78234         4.74731         7.12400
     2021.78507        16.81591         6.97932
     2021.78781        10.43751         7.10850
     2021.79055         3.89411         7.13821
     2021.79329         8.34371         7.06587
     2021.79603        13.02232         7.09816
     2021.79876        12.93792         7.00128
     2021.80150        12.74852         7.22088
     2021.80424        17.29512         7.38622
     2021.80698        14.95372         7.29709
     2021.80971        15.31532         7.12012
     2021.81245        35.94993         7.44823
     2021.81519        24.57453         7.02066
     2021.81793        20.65413         7.10075
     2021.82067         9.31573         7.26351
     2021.82340        18.96933         7.26609
     2021.82614        19.41693         7.26867
     2021.82888        23.73054         7.24671
     2021.83162        22.43714         7.20796
     2021.83436        24.75274         7.24542
     2021.83709        24.07934         7.29063
     2021.83983        12.20294         7.22734
     2021.84257        22.21354         7.34876
     2021.84531        13.88115         7.16146
     2021.84804         1.28075         7.21313
     2021.85078         6.35035         7.16792
     2021.85352         6.18495         7.05553
     2021.85626         6.33555         7.12271
     2021.85900        11.38215         6.99095
     2021.86173        16.38775         7.24413
     2021.86447         9.84336         7.38881
     2021.86721        14.92396         7.49602
     2021.86995         9.76756         7.47277
     2021.87269         3.92516         7.20279
     2021.87542        11.69176         7.23896
     2021.87816         0.84436         7.00903
     2021.88090         3.81397         7.12658
     2021.88364        10.94557         7.15242
     2021.88637         3.26917         6.98190
     2021.88911        -2.53223         7.06199
     2021.89185        -4.66863         6.98836
     2021.89459         2.43297         7.04132
     2021.89733        -1.02742         7.03487
     2021.90006        -7.66082         7.04649
     2021.90280         2.01178         7.12141
     2021.90554        18.71638         7.12787
     2021.90828        22.95998         7.15112
     2021.91102         3.38558         7.09299
     2021.91375         2.09719         7.21959
     2021.91649         2.98379         7.03357
     2021.91923         6.94339         7.13433
     2021.92197        -5.17701         7.44177
     2021.92470        -6.55941         7.21054
     2021.92744         6.67219         7.28805
     2021.93018        -6.60520         7.24800
     2021.93292        11.09240         7.63036
     2021.93566        15.45700         7.34489
     2021.93839         9.47660         7.34618
     2021.94113        13.33920         7.45598
     2021.94387        17.67180         7.18729
     2021.94661         3.36241         7.25317
     2021.94935         5.02801         7.22088
     2021.95208         5.09761         7.27513
     2021.95482         3.82421         7.43272
     2021.95756         5.59081         7.53865
     2021.96030         4.59741         7.65361
     2021.96303         3.56202         7.50894
     2021.96577        14.76862         7.46760
     2021.96851         2.93322         7.53348
     2021.97125        -1.18518         7.40560
     2021.97399        10.12942         7.40301
     2021.97672         9.19502         7.36555
     2021.97946        13.03463         7.42885
     2021.98220        12.34923         7.49344
     2021.98494        15.38483         7.57353
     2021.98767        11.72643         7.61099
     2021.99041        10.54603         7.52186
     2021.99315        15.46463         7.63295
     2021.99589        18.49223         7.74791
     2021.99863        11.98184         7.65749
     2022.00136         7.70744         7.69883
     2022.00410        -2.55296         7.45985
     2022.00684        -3.48136         7.30872
     2022.00958         3.69024         7.27642
     2022.01232         2.29984         7.58644
     2022.01505        20.33445         7.46244
     2022.01779        13.30705         7.51411
     2022.02053        -0.24035         7.39139
     2022.02327       -10.32075         7.81508
     2022.02600       -10.16915         7.36943
     2022.02874        -7.63255         7.27772
     2022.03148        -6.04994         7.42368
     2022.03422        -7.29234         7.42239
     2022.03696        -6.89374         7.20796
     2022.03969       -14.00114         7.21700
     2022.04243        -6.84054         7.22734
     2022.04517        -5.52494         7.28547
     2022.04791        -4.40633         7.25188
     2022.05065        -3.09873         7.26221
     2022.05338         5.58987         7.31388
     2022.05612       -12.20453         7.32809
     2022.05886       -13.42793         7.19633
     2022.06160        -9.94933         7.24155
     2022.06433        -6.95272         7.24930
     2022.06707        -6.96312         7.13821
     2022.06981         1.04448         7.22863
     2022.07255       -12.40492         7.08266
     2022.07529        -3.64232         7.13691
     2022.07802        -3.16272         7.08654
     2022.08076         3.39689         7.09945
     2022.08350         4.75349         7.08524
     2022.08624        -2.54591         7.06070
     2022.08898        -3.73631         7.03357
     2022.09171        -3.91371         7.07104
     2022.09445        -7.06711         7.11366
     2022.09719        -6.25150         6.95865
     2022.09993        -6.07290         7.25188
     2022.10266        -9.07430         7.29322
     2022.10540        -5.75770         7.19504
     2022.10814        -5.68010         7.27126
     2022.11088        -2.49950         7.03099
     2022.11362        -2.21289         7.06974
     2022.11635         2.22071         7.06974
     2022.11909        -2.03869         7.13950
     2022.12183         1.18891         7.14208
     2022.12457        -2.45549         7.19892
     2022.12731        -0.68889         6.98061
     2022.13004        -9.34329         6.98061
     2022.13278        -4.95568         7.07362
     2022.13552        -2.07508         7.08266
     2022.13826         3.28552         6.99870
     2022.14099        -1.48788         6.94961
     2022.14373       -19.71128         6.98320
     2022.14647        -1.13768         6.94574
     2022.14921        -2.66307         7.32938
     2022.15195        -7.31747         7.30613
     2022.15468        -1.01487         6.97932
     2022.15742         1.08873         7.10204
     2022.16016         6.20433         7.14725
     2022.16290        14.63693         7.14854
     2022.16564        14.35454         7.22992
     2022.16837         3.88514         7.09816
     2022.17111        -2.31226         6.99095
     2022.17385        -3.23066         7.00257
     2022.17659        -2.46806         6.94832
     2022.17932        -7.45446         7.06199
     2022.18206        -6.72585         7.00774
     2022.18480        -4.99925         6.95994
     2022.18754        -1.73365         7.06845
     2022.19028       -10.48805         7.17825
     2022.19301        -1.50445         7.03357
     2022.19575         4.61115         6.99870
     2022.19849         4.42776         7.12787
     2022.20123         9.86836         7.21054
     2022.20397         4.21896         7.04908
     2022.20670        -1.72444         7.21571
     2022.20944        -1.06484         7.19246
     2022.21218         3.25076         7.10591
     2022.21492        -4.72063         6.99224
     2022.21765        -1.85003         7.09945
     2022.22039        10.01057         7.27772
     2022.22313        -3.46383         7.17438
     2022.22587        -6.17223         7.14079
     2022.22861        -2.84763         7.19504
     2022.23134         3.09598         7.09429
     2022.23408         6.24258         7.07362
     2022.23956         0.37978         7.06587
     2022.24230         0.17438         7.09299
     2022.24503         1.36998         7.01807
     2022.24777         4.10859         7.11754
     2022.25051        -1.38681         7.10462
     2022.25325        -2.31521         7.14466
     2022.25598         7.88439         7.20409
     2022.25872         9.94499         7.20279
     2022.26146        -7.34541         7.21313
     2022.26420         0.50019         7.21700
     2022.26694        -0.72020         7.30484
     2022.26967        -0.10760         7.12012
     2022.27241         3.22700         7.05683
     2022.27515         5.55060         7.23896
     2022.27789         1.54020         7.17179
     2022.28062        -5.25220         7.21829
     2022.28336         0.64941         7.15242
     2022.28610        -4.29999         7.31130
     2022.28884        -7.24339         7.16792
     2022.29158        -6.67679         6.98965
     2022.29431        -2.51419         7.10591
     2022.29705        -0.83859         7.00903
     2022.29979         5.28102         7.06328
     2022.30253        -3.22138         7.16921
     2022.30527        -0.98678         7.11366
     2022.30800        -3.49618         6.97157
     2022.31074        -2.82358         7.08137
     2022.31348        -4.35198         7.15112
     2022.31622        -9.03337         7.05683
     2022.31895       -20.54777         7.19117
     2022.32169        -1.87317         7.22992
     2022.32443        -2.53057         7.00386
     2022.32717         2.82703         7.25188
     2022.32991        -2.15437         7.10720
     2022.33264        -5.26576         7.26221
     2022.33538        -5.66216         7.32938
     2022.33812        -1.68956         7.39914
     2022.34086         7.05404         7.22992
     2022.34360        15.28064         7.41593
     2022.34633         5.95624         7.18342
     2022.34907         3.19385         7.09299
     2022.35181         2.98345         7.03874
     2022.35455        -2.88795         7.01291
     2022.35728        -5.37035         7.03228
     2022.36002        -2.91175         7.07233
     2022.36276        -2.54515         7.17308
     2022.36550         9.30246         7.15758
     2022.36824        -0.71694         7.18729
     2022.37097        -1.03534         7.17567
     2022.37371        -9.52374         7.01937
     2022.37645        -7.50114         7.10720
     2022.37919        -1.14554         7.22475
     2022.38193        -6.83393         7.10591
     2022.38466        -5.37533         7.03616
     2022.38740       -15.66573         7.03099
     2022.39014        -8.51213         7.07491
     2022.39288        -4.43953         7.08654
     2022.39561        -4.38493         7.08912
     2022.39835        -1.98232         7.10850
     2022.40109         6.96228         7.19246
     2022.40383        12.77088         7.12658
     2022.40657         7.60348         7.04262
     2022.40930        -5.47892         7.13691
     2022.41204         1.57368         7.12916
     2022.41478        -2.20072         7.12658
     2022.41752         7.91889         7.31130
     2022.42026        12.65949         7.23121
     2022.42299        16.49009         7.13950
     2022.42573        23.99869         7.43789
     2022.42847        13.62329         7.09170
     2022.43121         3.44689         7.14079
     2022.43394         9.28850         7.24542
     2022.43668        -3.19190         7.04132
     2022.43942         0.81670         7.10462
     2022.44216        21.45630         7.26867
     2022.44490        15.98990         7.44823
     2022.44763         9.23550         6.97157
     2022.45037         2.45811         7.02195
     2022.45311        -7.15429         7.07749
     2022.45585        -2.68269         7.05683
     2022.45859        -9.83909         7.10850
     2022.46132         1.10051         7.01937
     2022.46406         1.85411         7.03357
     2022.46680        -3.04528         7.06199
     2022.46954        -6.52068         7.01549
     2022.47227       -15.02808         7.01549
     2022.47501         1.94652         7.31647
     2022.47775        -4.97988         7.17696
     2022.48049        -5.35228         6.99611
     2022.48323         2.64733         7.06716
     2022.48596         1.06893         7.07879
     2022.48870        -4.31547         7.04649
     2022.49144        -6.97287         7.11883
     2022.49418        -0.94027         7.45468
     2022.49692        -6.37467         7.04003
     2022.49965        -3.54206         7.16533
     2022.50239        -6.93546         7.16792
     2022.50513         6.66314         7.57740
     2022.50787        22.93774         7.52961
     2022.51060         0.81934         7.29322
     2022.51334        -3.53206         7.10979
     2022.51608        -9.19545         7.04391
     2022.51882       -10.38585         7.19504
     2022.52156        -1.55125         7.24413
     2022.52429        -5.56065         7.10979
     2022.52703        -0.69505         7.11495
     2022.52977         8.13655         7.18083
     2022.53251        -1.87284         7.33068
     2022.53525        -1.99124         7.27642
     2022.53798        -7.85864         7.16921
     2022.54072        -5.60204         7.17567
     2022.54346        -2.55744         7.12916
     2022.54620        -4.70184         7.14079
     2022.54893         2.79376         7.18600
     2022.55167        -2.81363         7.30743
     2022.55441        -1.99503         7.20796
     2022.55715         2.32257         7.15500
     2022.55989        -4.48583         7.11495
     2022.56262        -3.88623         7.11754
     2022.56536       -13.60363         7.12141
     2022.56810        -1.45602         7.18471
     2022.57084        -4.86042         7.15242
     2022.57357        -1.75182         7.33972
     2022.57631        -5.34022         7.15887
     2022.57905        -7.02862         7.10333
     2022.58179         6.29898         7.20150
     2022.58453        -0.23241         7.47794
     2022.58726        -6.35781         7.34618
     2022.59000        -6.78921         7.36685
     2022.59274       -11.35161         7.07104
     2022.59548        -7.99501         7.10850
     2022.59822        -8.90341         7.05424
     2022.60095       -11.01180         7.26609
     2022.60369         4.64180         7.39656
     2022.60643         6.50640         7.33068
     2022.60917        -4.26600         7.29967
     2022.61190         6.92160         7.15242
     2022.61464         4.79120         7.07233
     2022.61738        -0.64219         7.01291
     2022.62012        -1.49559         7.06587
     2022.62286        -3.65499         7.05941
     2022.62559        -2.80239         7.11108
     2022.62833         1.53021         7.03874
     2022.63107         0.85481         7.13175
     2022.63381         3.32642         7.05037
     2022.63655         4.87702         7.05295
     2022.63928         2.84262         7.08008
     2022.64202         2.97222         7.60711
     2022.64476         5.79382         7.59161
     2022.64750         6.00242         7.20925
     2022.65023         3.78003         7.24025
     2022.65297         8.11663         7.35393
     2022.65571         5.61223         7.20667
     2022.65845        10.15483         7.05941
     2022.66119         6.57543         7.05941
     2022.66392         3.15903         7.12012
     2022.66666         2.14164         7.00903
     2022.66940         8.19124         6.95607
     2022.67214         2.60284         6.97415
     2022.67488         6.63544         6.99870
     2022.67761        11.56304         6.93798
     2022.68035         3.67564         7.04132
     2022.68309         7.28624         7.07620
     2022.68583         5.85485         7.27126
     2022.68856         4.73645         7.10333
     2022.69130         7.84505         7.03745
     2022.69404         3.60565         7.07362
     2022.69678         9.30425         7.22863
     2022.69952         7.97785         7.22217
     2022.70225         9.36846         7.28159
     2022.70499         8.43506         7.30355
     2022.70773         7.40766         7.06716
     2022.71047         5.88026         6.90440
     2022.71321        25.05786         7.13691
     2022.71594        10.90746         6.94703
     2022.71868         6.17807         7.04520
     2022.72142        22.27067         7.01291
     2022.72416        18.40727         7.14725
     2022.72689        13.13787         7.02195
     2022.72963        13.19147         6.89019
     2022.73237        10.97007         6.89019
     2022.73511         6.02268         6.90827
     2022.73785         9.04728         6.98320
     2022.74058        17.18388         7.26351
     2022.74332        23.88648         7.36168
     2022.74606        18.33108         7.10075
     2022.74880         5.12768         6.91086
