# ================= DQRFIT RESULTS ================
# INPUT FILE: series/NOSE.rad
# OUTPUT: LDETRENDED
# FILTER FUNCTION: f(t)
# f(t)=+line(t)
# line(t)=+P 1+P 2*t
# heav(t)=(t<0?0:1)
# TOTAL OBSERVATIONS MTOT=  466
# INITIAL TIME INTERVAL= 2022.7488 - 2021.4757 =  1.2731
# TOTAL OBSERVATIONS AFTER PREFILTER M=  465
# TIME-SPAN= 2022.7488 - 2021.4757 =  1.2731
# OBSERVATIONS: USED M=   465 REJECTED MTOT-M=     1 %USED=   99.7854
# N=  2 PARAMETERS
# MAXSIG= 175.00000
# MAXRES=  17.01964
# SCALE FACTOR FOR LENGTHS: SCL=  10.00000
# SCALE FACTOR FOR SIGMAS: SCLSIG=   1.00000
# CHI^2=    735.167 DOF=   463 CHI^2/DOF=   1.58783
# RMS=      6.955 SDEV=      6.962 MEAN=   -0.01554
#  P #       PARAMETER +-    SIGMA %error PARAMETER NAME
# P 1 =    191657.69824 +- 1760.907   0.92 YZERO                              
# P 2 =        -3.46026 +-    0.871  25.17 SLOPE                              
#       T            LDETRENDED       SIG_OBS
     2021.47570        -2.05967         6.75284
     2021.47843         1.26781         6.74780
     2021.48117        -2.12872         6.74780
     2021.48391        -2.24025         6.73141
     2021.48665        -3.24677         6.83474
     2021.48939         2.59670         6.78308
     2021.49212         3.97717         6.76922
     2021.49486        -1.51335         6.81710
     2021.49760         1.71612         6.86120
     2021.50034        -0.86040         6.85490
     2021.50308         0.66307         6.82844
     2021.50581        -6.12246         6.80828
     2021.50855        -2.02198         6.79316
     2021.51129        -1.46751         6.73645
     2021.51403         1.08996         6.74023
     2021.51676         2.47044         6.70495
     2021.51950         1.24791         6.93681
     2021.52224         2.54938         6.75410
     2021.52498        -1.76714         6.79442
     2021.52772        -0.13267         6.73771
     2021.53045        -0.35219         6.71125
     2021.53319        -1.74472         6.79946
     2021.53593        -3.84125         6.85238
     2021.53867         2.13823         7.31484
     2021.54141        -1.87630         6.94815
     2021.54414        -2.23783         6.95823
     2021.54688        -2.69035         6.86120
     2021.54962        -5.95588         6.86120
     2021.55236         0.12659         6.82718
     2021.55509        -3.33893         7.00107
     2021.55783        -4.28746         6.92043
     2021.56057         1.31202         6.81962
     2021.56331         1.46349         6.78686
     2021.56605        -1.21704         6.76292
     2021.56878         1.40244         6.80576
     2021.57152        -5.57609         6.94689
     2021.57426        -9.34862         6.81332
     2021.57700         6.86886         6.94059
     2021.57974        -1.65667         6.88136
     2021.58247        -3.94419         6.78686
     2021.58521        -3.02272         6.98469
     2021.58795        -6.86525         6.79568
     2021.59069        -2.56077         6.79442
     2021.59342        -7.20030         6.99225
     2021.59616        -6.11283         6.96705
     2021.59890        -1.31435         6.92673
     2021.60164        -3.73888         7.04518
     2021.60438        -0.43541         6.74780
     2021.60711         1.04907         6.85616
     2021.60985         3.46554         6.77678
     2021.61259         4.75502         6.79694
     2021.61533        -0.41851         6.79946
     2021.61807         0.90596         6.70873
     2021.62080         1.06744         6.80198
     2021.62354         3.35691         6.81332
     2021.62628         4.55038         6.99225
     2021.62902         2.03386         6.77804
     2021.63175         9.60433         6.93555
     2021.63449        -3.18620         6.90405
     2021.63723         1.33928         7.07290
     2021.63997         1.63675         6.87758
     2021.64271         2.74223         6.86246
     2021.64544        -2.36330         6.75158
     2021.64818         3.77317         6.72511
     2021.65092         0.03365         6.92799
     2021.65366        -2.87088         6.77930
     2021.65639        -2.09741         6.75788
     2021.65913        -2.25093         6.72007
     2021.66187         1.23254         6.78560
     2021.66461         2.03702         6.74275
     2021.66735         4.16549         6.73519
     2021.67008         2.36096         6.86750
     2021.67282         3.90544         6.99981
     2021.67556         4.49891         7.12078
     2021.67830         2.85238         6.96453
     2021.68104         4.08586         6.78434
     2021.68377         6.64633         6.78434
     2021.68651         7.91780         6.99477
     2021.68925         3.46328         6.75032
     2021.69199        -0.65725         6.85364
     2021.69472         2.79123         6.76166
     2021.69746         0.43970         6.87128
     2021.70020         5.57517         6.84986
     2021.70294         4.96265         6.81584
     2021.70568         7.36312         6.84230
     2021.70841         7.20759         6.78182
     2021.71115         8.43107         6.83600
     2021.71389        10.22054         7.10314
     2021.71663        -0.35399         6.85490
     2021.71937         0.85949         6.80954
     2021.72210         1.90396         6.77678
     2021.72484        -0.57156         6.92043
     2021.72758         2.28791         6.76292
     2021.73032         2.43638         7.21277
     2021.73305         7.49286         6.80324
     2021.73579        14.16033         6.84734
     2021.73853         3.85780         7.19639
     2021.74127         7.94428         6.90279
     2021.74401         1.13175         6.78812
     2021.74674         9.48523         6.83600
     2021.74948        10.30670         7.04644
     2021.75222         2.90217         6.81962
     2021.75496         3.55765         6.94563
     2021.75770         8.36512         6.99729
     2021.76043         5.57759         7.03762
     2021.76317         6.10607         6.86876
     2021.76591        -0.01646         6.77552
     2021.76865         5.91101         6.85742
     2021.77138         3.80449         6.88767
     2021.77412         6.23396         7.08676
     2021.77686         5.04444         6.87380
     2021.77960         9.95191         6.78182
     2021.78234         3.71438         6.77930
     2021.78507        10.71486         6.80450
     2021.78781         6.56933         6.82970
     2021.79055         6.29380         6.83726
     2021.79329         9.08528         6.82592
     2021.79603         6.36575         6.72763
     2021.79876         7.75422         6.87002
     2021.80150         5.90070         7.02250
     2021.80424         7.08917         7.10440
     2021.80698         2.51165         6.85868
     2021.80971         5.09412         6.84860
     2021.81245        15.59359         7.15606
     2021.81519        11.47807         6.77552
     2021.81793         9.44354         6.88515
     2021.82067         1.00801         6.95319
     2021.82340         7.65949         6.95193
     2021.82614         4.38696         6.93303
     2021.82888         4.05543         6.97083
     2021.83162         7.84691         6.94689
     2021.83436        -0.00062         7.24049
     2021.83709        10.39186         6.89901
     2021.83983         6.63133         7.01745
     2021.84257         1.40580         7.80123
     2021.84531         5.20228         7.02754
     2021.84804         6.16975         7.03510
     2021.85078         3.00022         6.95949
     2021.85352         5.58270         6.87758
     2021.85626         6.67917         6.81836
     2021.85900         5.31665         6.83096
     2021.86173         3.65012         6.91539
     2021.86447         0.45459         7.07542
     2021.86721         2.26607         7.04518
     2021.86995         4.07854         7.03258
     2021.87269        16.74001         7.33752
     2021.87542        -0.40451         6.96075
     2021.87816        -3.34104         6.81710
     2021.88090         5.46643         7.19387
     2021.88364        -3.83409         6.92547
     2021.88637        -7.87462         6.75914
     2021.88911        -7.43914         6.89901
     2021.89185        -5.77167         6.82214
     2021.89459        -7.24420         6.92295
     2021.89733        -1.04772         6.76922
     2021.90006        -0.30125         6.90783
     2021.90280        -5.42278         7.04896
     2021.90554        -1.38830         6.91917
     2021.90828         4.69817         6.92547
     2021.91102         4.05564         6.83474
     2021.91375        -3.11988         6.85994
     2021.91649         1.51559         6.94059
     2021.91923         0.68907         7.14976
     2021.92197        -7.36146         7.25435
     2021.92470        -4.63299         7.01871
     2021.92744         1.33949         6.97461
     2021.93018        -4.95804         7.04266
     2021.93292         3.14743         7.18757
     2021.93566         3.83791         7.26821
     2021.93839         3.42638         7.15859
     2021.94113         5.29486         7.41942
     2021.94387         8.63433         6.97713
     2021.94661        -6.17520         7.09684
     2021.94935         2.60128         7.00989
     2021.95208         2.94275         7.03636
     2021.95482         1.13822         7.12078
     2021.95756         5.25970         7.14724
     2021.96030         0.00017         7.08802
     2021.96303         2.08264         7.17497
     2021.96577         1.02412         7.21655
     2021.96851        -1.98541         7.25687
     2021.97125         2.92307         7.16237
     2021.97399         7.55754         7.21403
     2021.97672         2.22001         7.25435
     2021.97946        -1.12751         7.13464
     2021.98220         4.65896         7.17245
     2021.98494         2.61543         7.12204
     2021.98767         6.30391         7.10062
     2021.99041         6.99738         7.14850
     2021.99315         1.09285         7.12708
     2021.99589         6.92533         7.01115
     2021.99863        -3.44420         7.24805
     2022.00136         0.87328         6.98847
     2022.00410        -0.65725         6.98847
     2022.00684       -10.09178         7.07038
     2022.00958        -6.58030         7.02502
     2022.01232       -11.18983         7.06660
     2022.01505        -2.27036         7.09432
     2022.01779         2.35612         7.03510
     2022.02053        -3.10341         7.03636
     2022.02327        -8.36393         7.43707
     2022.02600       -10.16946         7.18253
     2022.02874        -3.61499         7.15228
     2022.03148       -13.24651         7.19639
     2022.03422        -4.26504         7.16237
     2022.03696        -6.89557         6.99603
     2022.03969       -10.33709         7.06156
     2022.04243        -0.92462         7.03006
     2022.04517        -0.79515         9.16969
     2022.04791        -0.79367         7.07164
     2022.05065        -1.58820         7.12708
     2022.05338        -7.79672         7.06786
     2022.05612       -14.85325         7.05904
     2022.05886       -13.91578         7.01367
     2022.06160        -9.25730         7.03510
     2022.06433        -1.40783         7.00485
     2022.06707       -10.86136         7.09432
     2022.06981        -2.51888         7.02880
     2022.07255        -9.23241         6.89649
     2022.07529        -2.92994         6.88136
     2022.07802         1.50154         6.86624
     2022.08076         5.97601         6.87128
     2022.08350        -2.91951         7.01997
     2022.08624        -4.72904         6.90027
     2022.08898        -1.83857         6.88262
     2022.09171        -5.37709         6.86876
     2022.09445        -3.67162         6.84860
     2022.09719        -5.90115         6.87254
     2022.09993        -6.01267         7.08424
     2022.10266        -0.85520         7.19135
     2022.10540        -2.51072         7.00737
     2022.10814         2.82575         6.96579
     2022.11088         0.29222         6.84860
     2022.11362         1.08170         6.89649
     2022.11635         1.33917         6.90027
     2022.11909         2.74164         6.91539
     2022.12183         1.48512         6.93807
     2022.12457         1.56759         7.20143
     2022.12731        -6.35494         6.86372
     2022.13004        -8.72346         6.89775
     2022.13278        -7.48899         6.88262
     2022.13552        -3.74351         6.87254
     2022.13826         1.99296         6.85490
     2022.14099        -1.88757         6.87002
     2022.14373       -11.64309         6.89145
     2022.14647        -4.23062         6.87884
     2022.14921        -2.67615         7.29594
     2022.15195        -4.11367         7.18253
     2022.15468         2.28080         6.92799
     2022.15742         2.86527         6.99351
     2022.16016        -2.43225         6.92169
     2022.16290        -2.96678         7.01619
     2022.16564        -2.50230         6.98217
     2022.16837        -0.86783         6.95949
     2022.17111        -1.63736         6.86120
     2022.17385        -3.18188         7.09306
     2022.17659        -1.94241         7.00737
     2022.17932        -6.17194         8.21328
     2022.18206        -2.32146         6.88767
     2022.18480        -3.11999         6.85868
     2022.18754        -1.91951         6.91539
     2022.19028        -5.65604         6.98847
     2022.19301         1.80043         7.12834
     2022.19575        -0.46909         6.94311
     2022.19849        -3.17462         6.89901
     2022.20123         3.36985         7.05400
     2022.20397         0.52533         6.88136
     2022.20670        -0.91920         7.12708
     2022.20944        -0.58173         7.04266
     2022.21218         0.89075         6.92295
     2022.21492        -3.60678         6.83096
     2022.21765        -4.25330         6.90279
     2022.22039        -3.66483         6.90153
     2022.22313        -7.50336         7.07038
     2022.22587        -6.58188         7.04770
     2022.22861         0.17759         7.04140
     2022.23134         2.66506         6.92295
     2022.23408         1.77654         6.94059
     2022.23682         5.75201         7.14346
     2022.23956        -2.14352         6.87884
     2022.24230        -4.00704         6.90783
     2022.24503         1.61243         6.88136
     2022.24777         1.96491         6.91161
     2022.25051        -5.38962         6.96831
     2022.25325        -2.45515         6.93177
     2022.25598        -2.05467         6.89649
     2022.25872         1.04780         6.91665
     2022.26146        -4.95973         6.89145
     2022.26420        -0.08125         6.97965
     2022.26694        -3.86578         7.31988
     2022.26967        -5.50030         6.93933
     2022.27241         2.91417         6.91287
     2022.27515        -1.27036         7.15480
     2022.27789        -2.35188         7.02376
     2022.28062       -11.26241         7.23797
     2022.28336        -3.20694         6.91161
     2022.28610         4.60854         6.97713
     2022.28884        -1.74399         7.01493
     2022.29158        -3.02052         6.89901
     2022.29431        -4.39104         7.00611
     2022.29705        -6.22357         6.92043
     2022.29979        -0.63709         6.89649
     2022.30253         4.06238         7.01241
     2022.30527        -0.69415         7.01241
     2022.30800        -3.36867         6.93555
     2022.31074        -1.39120         6.98469
     2022.31348        -8.76273         6.92925
     2022.31622        -4.69725         6.92547
     2022.31895       -22.38178         7.05274
     2022.32169        -3.76231         7.04014
     2022.32443        -4.63283         9.21128
     2022.32717       -10.89836         6.91413
     2022.32991        -5.33588         6.88389
     2022.33264       -12.68941         7.22789
     2022.33538        -7.59394         7.21781
     2022.33812        -3.84646         7.18631
     2022.34086        -6.38599         7.01745
     2022.34360        -5.25352         7.11070
     2022.34633        -4.27204         6.92547
     2022.34907        -9.13257         6.90909
     2022.35181        -5.29709         6.93933
     2022.35455        -6.31762         6.86498
     2022.35728        -9.17515         6.95949
     2022.36002        -8.71867         6.90657
     2022.36276        -4.86120         6.92673
     2022.36550        -7.56073         6.89775
     2022.36824        -5.38325         6.93051
     2022.37097       -11.55278         6.88515
     2022.37371       -14.33531         7.96630
     2022.37645       -12.35983         6.93555
     2022.37919        -9.03636         7.85416
     2022.38193       -12.77488         6.98973
     2022.38466       -10.75741         7.10944
     2022.38740       -24.03094         6.97965
     2022.39014        -3.89146         6.96201
     2022.39288        -9.35899         6.93177
     2022.39561       -16.72252         6.95193
     2022.39835        -8.15204         7.05400
     2022.40109        -8.33957         7.04644
     2022.40383         0.03290         7.00863
     2022.40657       -10.13462         6.88641
     2022.40930       -13.43615         6.92547
     2022.41204        -6.02267         6.94815
     2022.41478        -7.71420         6.83852
     2022.41752        -1.50873         7.04140
     2022.42026        -3.39625         7.09306
     2022.42299        -2.73678         6.80954
     2022.42573        -4.80831         6.91917
     2022.42847        -7.08883         6.81206
     2022.43121        -4.67236         7.03888
     2022.43394        -0.23988         7.06660
     2022.43668       -11.78141         6.88136
     2022.43942        -9.07994         6.85742
     2022.44216        -0.71546         6.98721
     2022.44490         4.13501         7.01619
     2022.44763         0.43748         6.85994
     2022.45037        -5.42004         6.85490
     2022.45311       -15.19057         7.06534
     2022.45585        -8.39510         6.85364
     2022.45859       -20.79562         6.79442
     2022.46132       -11.09915         6.84734
     2022.46406        -9.72067         6.89523
     2022.46680        -8.01720         6.81458
     2022.46954        -6.42173         6.86750
     2022.47227       -21.80325         6.82844
     2022.47501        -1.16178         6.84734
     2022.47775        -9.65031         6.99855
     2022.48049        -5.93583         6.74780
     2022.48323         3.23864         6.83600
     2022.48596         6.30311         6.82088
     2022.48870        -2.76641         6.85238
     2022.49144        -7.98794         6.78560
     2022.49418        -0.21046         6.96201
     2022.49692        -7.16699         6.84734
     2022.49965        -7.55552         6.79568
     2022.50239       -18.47704         6.84356
     2022.50513        -1.96057         7.23671
     2022.50787         2.64990         7.30476
     2022.51060        -8.02462         7.05778
     2022.51334        -4.49315         7.02376
     2022.51608        -9.64567         6.85616
     2022.51882       -11.90420         6.90405
     2022.52156        -8.55173         6.81836
     2022.52429        -0.19425         6.81206
     2022.52703         2.07022         6.80702
     2022.52977        11.78669         6.88010
     2022.53251        -4.21383         6.85490
     2022.53525        -1.24436         6.96579
     2022.53798        -1.37089         6.88389
     2022.54072        -8.15641         6.84104
     2022.54346        -1.68794         6.79820
     2022.54620        -1.44646         6.91539
     2022.54893         1.37401         6.90909
     2022.55167         3.07748         6.83096
     2022.55441         1.48896         6.79694
     2022.55715         8.29043         6.85490
     2022.55989        -2.92510         6.79820
     2022.56262        -4.45162         6.80450
     2022.56536       -11.65115         6.83726
     2022.56810         0.55232         6.78686
     2022.57084        -1.73320         6.81080
     2022.57357         6.75527         7.04140
     2022.57631        -8.90225         6.83600
     2022.57905        -9.80978         6.79946
     2022.58179         8.81569         6.85742
     2022.58453        12.53917         7.16111
     2022.58726        -5.67936         6.95193
     2022.59000         1.05411         6.89145
     2022.59274        -2.66641         6.91287
     2022.59548         1.98406         6.77048
     2022.59822        -8.02146         6.74149
     2022.60095       -14.38999         6.85616
     2022.60369         2.82548         6.78308
     2022.60643         1.97396         6.91791
     2022.60917        -0.15457         6.95319
     2022.61190         7.22890         6.95193
     2022.61464         9.75438         6.75284
     2022.61738        10.62385         6.82592
     2022.62012        -0.69468         6.70999
     2022.62286         5.49380         6.70495
     2022.62559         1.91927         6.78686
     2022.62833         5.16375         7.09558
     2022.63107         2.58922         6.80198
     2022.63381        10.87669         6.75410
     2022.63655         7.86917         6.66337
     2022.63928         8.09664         6.75158
     2022.64202         2.85411         8.78536
     2022.64476        11.89359         7.25309
     2022.64750        11.18906         6.87632
     2022.65023        16.44353         6.89775
     2022.65297         8.84201         6.83096
     2022.65571         6.68448         6.91791
     2022.65845        13.40896         6.88389
     2022.66119        11.31843         6.72637
     2022.66392        13.24790         6.64195
     2022.66666         6.68838         6.69865
     2022.66940        11.14885         6.68857
     2022.67214         5.29732         6.74023
     2022.67488         8.22680         6.83474
     2022.67761         8.52927         6.83474
     2022.68035        11.68975         6.73771
     2022.68309        14.93622         6.76796
     2022.68583        14.29069         7.17119
     2022.68856        14.22217         6.91035
     2022.69130        17.01964         6.87254
     2022.69404        13.42411         7.03132
     2022.69678        13.18359         7.27955
     2022.69952         1.50206         6.96831
     2022.70225        12.98853         7.04266
     2022.70499        13.40301         7.01745
     2022.70773        10.12948         6.80954
     2022.71047         9.48796         6.81206
     2022.71321        10.80343        10.81537
     2022.71594        14.10790         6.73015
     2022.71868        13.67238         6.84104
     2022.72142        14.33285         6.67975
     2022.72416         7.57532         6.79064
     2022.72689        14.09280         8.00789
     2022.72963        13.60727         6.64699
     2022.73237        16.07974         6.84482
     2022.73511        13.34922         6.68605
     2022.73785        13.97769         6.76292
     2022.74332        13.86064         7.05022
     2022.74606        12.68011         6.87254
     2022.74880        15.69759         8.18178
