# ================= DQRFIT RESULTS ================
# INPUT FILE: series/NWIS.rad
# OUTPUT: LDETRENDED
# FILTER FUNCTION: f(t)
# f(t)=+line(t)
# line(t)=+P 1+P 2*t
# heav(t)=(t<0?0:1)
# TOTAL OBSERVATIONS MTOT=  102
# INITIAL TIME INTERVAL= 2005.8058 - 2005.1390 =  0.6669
# TOTAL OBSERVATIONS AFTER PREFILTER M=  102
# TIME-SPAN= 2005.8058 - 2005.1390 =  0.6669
# OBSERVATIONS: USED M=   102 REJECTED MTOT-M=     0 %USED=  100.0000
# N=  2 PARAMETERS
# MAXSIG= 175.00000
# MAXRES=  11.25173
# SCALE FACTOR FOR LENGTHS: SCL=  10.00000
# SCALE FACTOR FOR SIGMAS: SCLSIG=   1.00000
# CHI^2=     34.874 DOF=   100 CHI^2/DOF=   0.34874
# RMS=      3.548 SDEV=      3.564 MEAN=   -0.11414
#  P #       PARAMETER +-    SIGMA %error PARAMETER NAME
# P 1 =    -45633.86606 +- 3598.547   7.89 YZERO                              
# P 2 =        22.53956 +-    1.794   7.96 SLOPE                              
#       T            LDETRENDED       SIG_OBS
     2005.13895         0.34173         3.23323
     2005.14169        -2.63498         3.22438
     2005.14443        -0.48369         3.24386
     2005.14716        -1.72640         3.30528
     2005.14990         1.33689         3.30823
     2005.15264         0.96818         3.31414
     2005.15538        -0.58653         3.26689
     2005.18002         2.43908         3.34071
     2005.18276        -4.84363         3.31768
     2005.18549        -7.70134         3.37260
     2005.18823        -0.82805         3.26512
     2005.19097         1.81324         3.33008
     2005.19371        -1.62547         3.40449
     2005.56605        -2.32581         3.60232
     2005.56878         2.09348         3.56689
     2005.57152         2.59477         3.57221
     2005.57426        -5.12694         3.53973
     2005.57700        -3.68565         3.47418
     2005.57974         6.60864         3.51138
     2005.58247        -2.12407         3.62772
     2005.58521         2.50322         3.42752
     2005.58795         4.47451         3.44465
     2005.59069        -0.64520         3.40036
     2005.59342        -1.01291         3.39209
     2005.59616         4.90338         3.40922
     2005.59890         0.28156         3.41512
     2005.60164         0.07796         3.38973
     2005.60438         1.91125         3.42575
     2005.60711        -2.26546         3.41158
     2005.60985         3.68183         3.51551
     2005.61259        -0.25388         3.45292
     2005.61533         4.25541         3.37851
     2005.61807         2.87370         3.41276
     2005.62080         1.37399         3.45055
     2005.62354         1.63328         3.51492
     2005.62628        -1.22243         3.42162
     2005.62902        -1.47114         3.41807
     2005.63175         6.49615         3.41099
     2005.63449         0.95544         3.45764
     2005.63723        11.25173         3.45351
     2005.63997         1.49802         3.44760
     2005.64271         0.30731         3.39741
     2005.64544        -3.22140         3.47949
     2005.64818         0.40389         3.40863
     2005.65092         3.19518         3.46768
     2005.65366         0.77947         3.47122
     2005.65639         0.12476         3.49130
     2005.65913         5.39705         3.54563
     2005.66187         0.18334         3.40567
     2005.66461        -2.29537         3.44406
     2005.66735         3.37692         3.45174
     2005.67008         7.20221         3.43697
     2005.67282         3.46650         3.39563
     2005.67556         8.05779         3.41335
     2005.67830        -2.32592         3.42221
     2005.68104        -5.20663         3.41512
     2005.68377        -3.42834         3.48244
     2005.68651         1.44395         3.44288
     2005.68925         2.92824         3.51374
     2005.69199         2.72453         3.43933
     2005.69473         2.99272         3.44760
     2005.69746         0.59111         3.46768
     2005.70020         5.84440         3.54268
     2005.70294         4.93069         3.57988
     2005.70568        -1.83502         3.53855
     2005.70841        -0.36773         3.49425
     2005.71115        -5.07644         3.40803
     2005.71389        -3.30925         3.40036
     2005.71663         1.79114         3.50961
     2005.71937        -0.23357         3.50961
     2005.72210        -0.09828         3.52969
     2005.72484        -4.10399         3.43638
     2005.72758        -2.92570         3.41335
     2005.73032        -4.41341         3.48422
     2005.73306        -2.03022         3.51610
     2005.73579        -0.02183         3.47654
     2005.73853         4.99246         3.58106
     2005.74127        -2.71625         3.51138
     2005.74401        -0.28096         3.45646
     2005.74674         0.76533         3.48362
     2005.74948         2.22962         3.40922
     2005.75222         2.02781         3.51374
     2005.75496        -2.32380         3.47536
     2005.75770        -6.08651         3.48658
     2005.76043        -3.56122         3.42044
     2005.76317        -2.47793         3.39681
     2005.76591        -4.08164         3.45174
     2005.76865         1.13865         3.40922
     2005.77138         0.12294         3.39918
     2005.77412        -1.13177         3.44288
     2005.77686        -4.61848         3.44170
     2005.77960        -3.12819         3.56453
     2005.78234        -3.43290         3.58284
     2005.78507        -2.19361         3.50843
     2005.78781         0.01268         3.43874
     2005.79055        -3.58003         3.43048
     2005.79329         3.20926         3.51847
     2005.79603        -0.82045         3.49485
     2005.79876        -7.16816         3.52969
     2005.80146        -5.08990         3.53677
     2005.80542        -7.63715         9.30581
     2005.80585        -6.46379        11.26937
