# ================= DQRFIT RESULTS ================
# INPUT FILE: series/ODOT.rad
# OUTPUT: LDETRENDED
# FILTER FUNCTION: f(t)
# f(t)=+line(t)+annual(t)
# line(t)=+P 1+P 2*t
# annual(t)=+P 3*sin(2*pi*t+P 4)
# heav(t)=(t<0?0:1)
# TOTAL OBSERVATIONS MTOT= 2979
# INITIAL TIME INTERVAL= 2022.5235 - 2011.9151 = 10.6084
# TOTAL OBSERVATIONS AFTER PREFILTER M= 2971
# TIME-SPAN= 2022.5235 - 2011.9151 = 10.6084
# OBSERVATIONS: USED M=  2971 REJECTED MTOT-M=     8 %USED=   99.7315
# N=  4 PARAMETERS
# MAXSIG= 175.00000
# MAXRES=  43.71740
# SCALE FACTOR FOR LENGTHS: SCL=  10.00000
# SCALE FACTOR FOR SIGMAS: SCLSIG=   1.00000
# CHI^2=   2387.593 DOF=  2967 CHI^2/DOF=   0.80472
# RMS=      5.367 SDEV=      5.363 MEAN=    0.23900
#  P #       PARAMETER +-    SIGMA %error PARAMETER NAME
# P 1 =     -1291.20689 +-   69.869   5.41 YZERO                              
# P 2 =         0.64230 +-    0.035   5.40 SLOPE                              
# P 3 =         4.44425 +-    0.132   2.96 ANNUAL AMPLITUDE                   
# P 4 =        -2.96617 +-    0.041   1.39 ANNUAL PHASE                       
#       T            LDETRENDED       SIG_OBS
     2011.91512        -6.02085         4.89705
     2011.91786        -3.86261         5.09889
     2011.92060        -8.79437         4.90423
     2011.92334        -4.94012         4.97240
     2011.92607        -5.39888         5.36890
     2011.92881        -5.02964         5.00111
     2011.93138        -1.18729         5.42093
     2011.93794         0.70550         8.37585
     2011.93976         2.08032         4.98227
     2011.94250         2.56757         5.00380
     2011.94524         3.37881         4.96074
     2011.94798         5.10605         5.00739
     2011.95071         9.97629         5.03430
     2011.95345         7.19153         4.99214
     2011.95619        -1.20423         5.02174
     2011.95893         0.83701         4.81811
     2011.96167         4.25726         5.11145
     2011.96440         4.39750         4.89436
     2011.96714         0.79674         4.93203
     2011.96988         2.58898         4.78223
     2011.97262         2.00022         4.83067
     2011.97535        -2.72454         4.91051
     2011.97792       -14.33619         5.42362
     2012.00861        -5.32790         5.99146
     2012.01095         1.06860         4.92127
     2012.01368         3.30084         4.78223
     2012.01642         7.53609         4.84502
     2012.01916         2.70533         4.82080
     2012.02190         2.47457         4.82977
     2012.02464         1.01381         4.83515
     2012.02737         1.89605         4.76967
     2012.03011         4.76429         4.81900
     2012.03285        -0.82447         4.80914
     2012.03559         2.98978         4.89256
     2012.03833        -0.97398         4.85040
     2012.04106         6.70526         4.80286
     2012.04380         8.51650         4.94998
     2012.04654        10.26974         4.81093
     2012.04928         8.23798         4.85040
     2012.05201         6.86422         4.84412
     2012.05475         4.08147         4.87552
     2012.05749         1.63171         4.84053
     2012.06023         7.01595         5.00559
     2012.06297         2.67019         4.87193
     2012.06570        -4.58857         4.96792
     2012.06844        -8.89233         5.03340
     2012.07118        -4.97208         4.76877
     2012.07392        -2.89284         4.80914
     2012.07666         0.80040         4.85130
     2012.07939         3.56764         4.84771
     2012.08213         4.23988         4.83425
     2012.08487         4.60312         4.85668
     2012.08761        -3.37664         4.85220
     2012.09034         2.57461         4.81273
     2012.09308        -1.23815         4.82977
     2012.09582         1.71909         4.82708
     2012.09856         2.42233         4.79927
     2012.10130         2.33457         4.95087
     2012.10403         0.71181         4.84950
     2012.10677         1.07405         4.95087
     2012.10951        -3.89370         4.94459
     2012.11225        -1.01746         4.92396
     2012.11498        -6.72922         4.88987
     2012.11772         5.80702         4.86475
     2012.12046         5.67426         4.92845
     2012.12320         0.04350         4.87373
     2012.12594        -8.65026         4.95177
     2012.12856        -2.80894         5.08274
     2012.15058        -3.59408         4.84412
     2012.15331        -3.34984         4.83425
     2012.15605        -0.52060         4.95356
     2012.15879        -1.94236         4.93921
     2012.16153         2.20888         4.85040
     2012.16427        -6.06587         4.94549
     2012.16700        -1.50663         4.95087
     2012.16974        -4.95039         4.89974
     2012.17248        -3.92715         4.85668
     2012.17522        -6.19591         4.92217
     2012.17796        -1.05067         4.89974
     2012.18069        -4.15143         4.88270
     2012.18343        -4.71318         4.91858
     2012.18617        -4.06794         4.94011
     2012.18891        -0.13570         5.10786
     2012.19153         2.14261         5.17603
     2012.19318        10.68555        13.19306
     2012.19712        -2.30398         4.88718
     2012.19986        -0.90774         4.85578
     2012.20260        -2.50349         4.92576
     2012.20533        -0.13625         4.90153
     2012.20807         2.48199         4.95805
     2012.21081         4.44723         4.82080
     2012.21355         0.19647         4.82080
     2012.21629        -0.67029         4.84502
     2012.21902       -13.36805         4.83784
     2012.22176        -5.35180         4.84053
     2012.22450        -8.40256         4.82977
     2012.22724         0.22668         4.82618
     2012.22997         1.01692         4.82080
     2012.23271         2.33616         4.83874
     2012.23545         1.22840         5.03699
     2012.23813        -3.06332         5.03161
     2012.24093        -0.68811         4.93562
     2012.24366        -1.10487         4.92127
     2012.24640        -0.96263         4.90871
     2012.24914         0.45061         5.00290
     2012.25188        -6.14015         4.94459
     2012.25462        -0.84091         5.03161
     2012.25735        -0.38066         4.88449
     2012.26009        -5.19242         4.91320
     2012.26283        -2.23718         4.84053
     2012.26557        -7.47994         4.84502
     2012.26830        -5.35170         5.14643
     2012.27104         1.07254         5.00649
     2012.27378        -1.33022         5.04148
     2012.27646        -0.04094         5.28278
     2012.27869        -4.66737         7.49493
     2012.28125        -5.17601         8.74813
     2012.28473        -1.61425         4.88628
     2012.28747        -2.31201         4.88180
     2012.29021        -7.72877         4.93203
     2012.29295        -5.42653         5.09171
     2012.29568        -4.45428         4.92755
     2012.29842        -4.15704         4.91230
     2012.30116        -4.15080         4.96792
     2012.30390        -7.96556         4.86565
     2012.30663        -9.84832         4.87821
     2012.30937        -3.33108         4.94549
     2012.31211        -3.76383         5.03699
     2012.31485         1.35041         4.97778
     2012.31759        -5.83735         4.91858
     2012.32032        -4.94711         4.98586
     2012.32306        -5.27487         4.83964
     2012.32580        -6.73063         4.88270
     2012.32854        -8.99039         4.97151
     2012.33128        -4.90914         5.01277
     2012.33401        -2.93990         4.96612
     2012.33675        -2.82666         4.93921
     2012.33949        -4.34542         4.85399
     2012.34223       -11.91118         4.82977
     2012.34496       -14.59494         4.89525
     2012.34770        -6.66670         5.08453
     2012.35044        -0.25145         5.01367
     2012.35306        -2.60514         5.39492
     2012.35506        -9.75642         8.56602
     2012.35779         6.17882        23.40070
     2012.36139        -4.36549         4.84053
     2012.36413        -3.98425         5.03161
     2012.36687         1.10599         5.02174
     2012.36961        -4.39876         4.84412
     2012.37234        -0.13752         4.88718
     2012.37508        -4.77628         4.95177
     2012.37782        -2.73504         5.03161
     2012.38056        -6.33380         4.98945
     2012.38329        -4.99156         4.96971
     2012.38603        -2.55931         5.07736
     2012.38877        -7.67807         5.03968
     2012.39151         1.03617         5.00111
     2012.39425        -1.86559         4.95626
     2012.39699         0.17165         4.96881
     2012.39972         0.15789         4.89077
     2012.40246        -5.53887         4.87014
     2012.40519        -9.77062         4.87642
     2012.40794        -4.41638         4.87373
     2012.41067        -0.24414         4.86206
     2012.41295        -2.94061         6.18254
     2012.41707         6.74675         9.55548
     2012.41889        -0.69742         5.74298
     2012.42157        -3.07814         6.39514
     2012.42436        -0.09293         5.45681
     2012.42710        -4.40969         4.85668
     2012.42984        -2.69745         4.87642
     2012.43258        -1.83321         4.94728
     2012.43531        -4.90997         4.91230
     2012.43805        -5.56273         4.88718
     2012.44079       -13.48049         4.83964
     2012.44353        -8.97124         4.86565
     2012.44581       -14.96571         6.52701
     2012.44900         0.19524         4.80824
     2012.45397        -3.61095         6.28749
     2012.45722        -0.94004         4.82618
     2012.45995         2.17221         4.97240
     2012.46269         0.02045         4.99214
     2012.46543        -4.56131         4.87642
     2012.46817        -3.57407         4.92217
     2012.47091        -0.40883         4.82977
     2012.47364         1.41741         4.93562
     2012.47638        -1.72735         4.89256
     2012.47912        -1.65210         4.80734
     2012.48186         1.58014         4.84502
     2012.48459        -5.75762         4.96433
     2012.48625         3.73632        12.15606
     2012.49384         4.48044         9.82639
     2012.49555        -2.02666         4.93024
     2012.49828        -1.99541         4.80196
     2012.50102         1.46683         4.93473
     2012.50376         2.91807         4.85848
     2012.50650        -3.85169         4.81273
     2012.50924        -1.94245         4.90602
     2012.51197         0.48879         4.97240
     2012.51471        -4.60997         4.80375
     2012.51745        -0.61372         4.83695
     2012.52019         2.42052         4.83246
     2012.52292        -6.88324         4.80914
     2012.52566         0.35100         4.81003
     2012.52840         0.83224         4.86834
     2012.53114        -2.59452         4.82618
     2012.53353         0.80394         5.63533
     2012.53673         2.36389         5.16886
     2012.53936         0.72120         5.50884
     2012.54209         7.15745         5.21281
     2012.54483         0.78669         4.90871
     2012.54757        -0.12307         4.93293
     2012.55030        -3.79483         5.03430
     2012.55304         2.93342         4.89077
     2012.55578         1.61366         4.90333
     2012.55852        -2.98010         4.81631
     2012.56125         3.84114         4.77864
     2012.56399         0.44338         4.85489
     2012.56673         1.08663         4.89167
     2012.56947         1.64086         4.85848
     2012.57221        -3.05089         4.86206
     2012.57494        -0.39165         4.82798
     2012.57768         3.24659         4.85130
     2012.58042         2.77083         4.83605
     2012.58316        -0.76093         4.83246
     2012.58590         1.70331         4.90064
     2012.58863         8.82755         5.68646
     2012.59137         6.02880         4.85848
     2012.59411         6.37804         4.84233
     2012.59685         5.94528         5.24780
     2012.59958        -2.51748         5.12939
     2012.60238         7.39573         5.29983
     2012.60506         6.44700         4.84681
     2012.60780         3.06124         4.82708
     2012.61054         4.86049         4.81273
     2012.61327         6.59373         4.86565
     2012.61601         5.69397         4.86296
     2012.61875         8.34421         4.91051
     2012.62149        11.42045         4.86027
     2012.62423        11.05669         4.96343
     2012.62696         4.92594         4.97509
     2012.62970         3.68318         5.02533
     2012.63244        -0.15658         5.00111
     2012.63518         7.86866         4.92127
     2012.63791         4.80390         4.83605
     2012.64065        10.24214         6.40501
     2012.64339         8.54638         4.94818
     2012.64613         5.27263         4.88628
     2012.64887         5.45887         4.89436
     2012.65160        14.46011         4.94190
     2012.65434         7.82835         5.22896
     2012.65705         7.86461        11.23926
     2012.65983         3.85983         6.61223
     2012.66256        11.86607         5.48014
     2012.66529         7.11332         4.90871
     2012.66803         5.86556         5.19577
     2012.67077         5.16980         4.96523
     2012.67351         7.30204         4.96792
     2012.67624         6.40028         4.87462
     2012.67898         7.12752         4.87193
     2012.68172        10.52876         4.88898
     2012.68446         6.23701         4.88987
     2012.68720         4.46525         5.07287
     2012.68959        15.58371         5.89548
     2012.69279        13.62066         7.76405
     2012.69541         4.62397         4.91140
     2012.69815         6.16021         4.99034
     2012.70089         4.22846         5.01815
     2012.70362         1.87470         4.99034
     2012.70636         3.40194         4.88090
     2012.70910         4.58318         4.89167
     2012.71184         8.72342         4.85220
     2012.71457         7.55766         4.85130
     2012.71731         8.76990         4.86834
     2012.72005         9.77215         4.80196
     2012.72279        10.58839         4.80106
     2012.72553         6.81063         4.86745
     2012.72826         9.71587         5.05583
     2012.73100         6.45811         4.96971
     2012.73374         4.44435         5.28996
     2012.73648         5.44259         4.85489
     2012.73921         7.78184         5.00918
     2012.74195        11.00908         4.96164
     2012.74469        11.58932         4.85040
     2012.74669        11.28904         7.18993
     2012.75108         4.55022        10.18611
     2012.75290        10.15904         5.08453
     2012.75564         5.15028         4.88449
     2012.75838         5.21053         4.85668
     2012.76112        10.54077         4.88539
     2012.76386         8.00501         4.85040
     2012.76659        11.83825         4.90692
     2012.76933        10.99749         4.97599
     2012.77207         7.21873         5.06390
     2012.77481         4.04197         4.88270
     2012.77754         4.64122         4.90692
     2012.78028         6.73346         4.98765
     2012.78302         8.87770         4.95536
     2012.78576         8.02694         4.94280
     2012.78850        15.16218         5.09081
     2012.79123        11.32942         5.15002
     2012.79397         4.54267         5.01277
     2012.79671         4.90691         5.26215
     2012.79928        11.44126         5.69364
     2012.80856         7.01230         9.21370
     2012.81040         7.55611         4.95626
     2012.81314         1.50436         4.94101
     2012.81587        -2.80740         4.98137
     2012.81861        -6.11216         5.02084
     2012.82135         2.87708         4.94280
     2012.82409         5.95032         5.07556
     2012.82683         4.37556         5.06390
     2012.82956        -0.60020         4.97599
     2012.83230         2.49205         4.91678
     2012.83504        -0.02371         5.06928
     2012.83778         4.12253         5.15630
     2012.84052         3.26677         4.99214
     2012.84325         3.90901         6.14665
     2012.84599         3.29125         5.03968
     2012.84873        -1.08251         4.93114
     2012.85147         1.00374         5.12490
     2012.85420         0.51198         4.92755
     2012.85694         2.76922         4.95984
     2012.85968         2.94746         4.94011
     2012.86242        -2.98230         4.94190
     2012.86516         5.98394         4.99573
     2012.86789         2.22419         5.08364
     2012.87063        -1.54857         4.92486
     2012.87337        -1.22233         4.93742
     2012.87611         1.25191         4.90064
     2012.87885         0.73515         4.94728
     2012.88158         2.74539         4.88628
     2012.88432         3.23163         4.97509
     2012.88706         5.19188         5.23793
     2012.88944         1.86935         6.13140
     2012.91170         1.82105         5.09620
     2012.91444         0.60429         5.01815
     2012.91718        -1.80647         4.96792
     2012.91991         4.11577         4.84771
     2012.92265        -5.43699         5.00201
     2012.92506        -5.94553         5.78334
     2012.92813         1.75950         4.90423
     2012.93086        -1.36726         4.93114
     2012.93360        -2.80902         4.94728
     2012.93634         0.55822         4.87642
     2012.93908        -4.24654         5.07826
     2012.94182         4.21371         4.84771
     2012.94455         8.12295         4.88718
     2012.94729         5.06219         4.93114
     2012.95003         3.09043         4.94459
     2012.95277         6.26767         4.86386
     2012.95551         8.57691         4.82977
     2012.95824         7.53115         4.87552
     2012.96098         5.59740         5.33481
     2012.96372         4.72264         5.03520
     2012.96646         5.24788         4.87103
     2012.96919        -2.55288         4.94011
     2012.97193         6.71936         4.95984
     2012.97467         8.34860         4.88628
     2012.97741         5.28784         4.86206
     2012.98015         0.13109         4.88987
     2012.98288         1.51033         4.93742
     2012.98562         4.12457         4.88539
     2012.98836         4.33381         4.86206
     2012.99110         6.61105         4.84412
     2012.99384         2.94629         4.91140
     2012.99657         3.95153         5.21012
     2012.99931         1.34378         4.88359
     2013.00205         3.47802         4.88180
     2013.00479         3.48126         5.00918
     2013.00752         1.00650         4.95446
     2013.01026         3.67674         4.89974
     2013.01300        -0.00102         4.88539
     2013.01573         3.76923         4.86027
     2013.01848         0.16947         4.94280
     2013.02121         5.98471         4.89525
     2013.02395        -0.19605         4.98048
     2013.02669         6.46319         5.03789
     2013.02943        -0.37457         4.91320
     2013.03216        -8.19433         5.18411
     2013.03490        -4.89608         4.90423
     2013.03764        -5.17384         4.89974
     2013.04038        -7.54960         4.90871
     2013.04312        -7.04436         4.98855
     2013.04585        -4.90512         4.99752
     2013.04859        -5.60188         5.00021
     2013.05133        -3.51764         4.91589
     2013.05407        -1.47939         4.89705
     2013.05681         0.16485         4.86745
     2013.05954         1.39909         4.93473
     2013.06228        -2.64467         5.03251
     2013.06502         2.27857         5.04865
     2013.06776         3.55381         5.02443
     2013.07049         5.26205         4.94728
     2013.07323        -0.47570         4.91948
     2013.07597        -0.20646         4.86296
     2013.07871         1.14678         4.87103
     2013.08145         1.30102         4.92665
     2013.08418        -3.18574         4.87911
     2013.08692        -6.32450         4.86206
     2013.08966        -9.10326         4.86386
     2013.09240        -1.31801         4.90153
     2013.09514         1.79723         4.90871
     2013.09787        -3.77453         5.13567
     2013.10061        -2.39829         5.32853
     2013.10335        -0.50105         4.95177
     2013.10609        -2.41581         4.86475
     2013.10882        -2.18856         4.85220
     2013.11156        -6.01132         4.98317
     2013.11430        -0.35708         4.91768
     2013.11704        -7.33184         4.95895
     2013.11978        -5.65060         5.05224
     2013.12251        -7.62136         4.86834
     2013.12526        -7.82912         4.91051
     2013.12799        -6.04187         4.94280
     2013.13073        -4.73463         4.93203
     2013.13347        -3.61039         4.96792
     2013.13620         7.34685         4.90781
     2013.13894         2.64609         4.91140
     2013.14168         2.74233         4.95267
     2013.14442         2.99257         5.07287
     2013.14715         3.16982         5.19308
     2013.14989       -10.45594         4.90333
     2013.15263        -4.41270         4.91409
     2013.15537       -10.95646         4.89167
     2013.15811        -5.90622         4.89974
     2013.16084        -5.61398         4.92845
     2013.16358        -7.67774         5.11683
     2013.16632        -6.21649         4.90692
     2013.16906         0.37275         4.89256
     2013.17180        -2.19801         4.84861
     2013.17573         8.60846        13.12040
     2013.17727         2.67747         5.08453
     2013.18001        -5.37429         5.01008
     2013.18275        -2.33704         4.88000
     2013.18548        -5.05880         4.86206
     2013.18822       -10.73256         4.90692
     2013.19096        -7.55132         4.84143
     2013.19370        -4.35208         4.90243
     2013.19644        -2.91584         4.96881
     2013.19917        -2.58360         5.00201
     2013.20191        -0.53035         4.85220
     2013.20465         0.92689         4.88359
     2013.20739        -4.64987         4.87911
     2013.21013        -3.54463         4.86386
     2013.21286        -2.47039         4.89525
     2013.21560        -7.39015         4.91499
     2013.21834        -2.96091         4.84592
     2013.22108        -6.88466         4.86206
     2013.22381        -6.76442         4.91678
     2013.22655        -5.11118         4.84771
     2013.22929        -3.42494         4.85668
     2013.23203        -5.37770         4.85040
     2013.23477        -4.00346         4.81273
     2013.23751        -4.85122         5.01008
     2013.24024        -8.71397         4.97778
     2013.24298        -3.30873         4.96881
     2013.24572         5.53151         4.94190
     2013.24846         1.70575         4.95356
     2013.25119         1.22499         4.95267
     2013.25393        -2.38277         4.95446
     2013.25667         0.95347         5.13298
     2013.25941        -0.69228         4.96881
     2013.26214         2.90396         5.03520
     2013.26488        -5.02580         5.05134
     2013.26762        -1.53456         4.92755
     2013.27036        -4.96832         4.95805
     2013.27310         1.90492         5.09978
     2013.27583        -5.22383         4.99124
     2013.27857         0.27641         4.99931
     2013.28130        -1.05735         4.97689
     2013.28405        -0.61611         5.08364
     2013.28679        -0.04387         4.94370
     2013.28952        -3.77563         4.97689
     2013.29226        -8.40839         4.96702
     2013.29500        -3.37814         4.94908
     2013.29774       -11.75190         4.93652
     2013.30047        -9.10866         4.96343
     2013.30321        -9.27142         4.97958
     2013.30595        -6.94918         4.91320
     2013.30869        -7.13694         4.86117
     2013.31143        -8.49970         4.96433
     2013.31416        -2.41245         4.95177
     2013.31690        -4.30721         4.99573
     2013.31964        -5.45197         4.92396
     2013.32238         1.33427         4.97868
     2013.32512         0.97451         5.15181
     2013.32785        -3.37725         4.93742
     2013.33059       -11.06901         4.94728
     2013.33333        -7.46776         4.91140
     2013.33607        -4.78752         4.92486
     2013.33880         2.74072         4.98137
     2013.34154        -0.27104         4.94818
     2013.34428        -1.96380         5.14105
     2013.34702        -4.64956         4.97958
     2013.34976        -4.15831         4.89525
     2013.35249        -8.01307         4.93024
     2013.35523        -6.26483         5.01187
     2013.35797        -4.76759         5.01367
     2013.36071        -7.22035         5.16258
     2013.36344        -2.71610         5.09440
     2013.36618        -0.07887         5.06480
     2013.36892         3.17438         5.12490
     2013.37166        -3.57339         5.10068
     2013.37440        -4.19214         4.97689
     2013.37713        -9.04990         4.99931
     2013.37987        -5.08366         4.94101
     2013.38261        -8.68442         4.92127
     2013.38535        -1.67918         5.03789
     2013.38809        -3.90293         4.89167
     2013.39082        -3.52469         5.15899
     2013.39356        -3.96745         4.91948
     2013.39630        -6.02921         6.17357
     2013.39904        -0.69797         6.10539
     2013.40177         1.41527         5.32226
     2013.40451        -0.05549         5.12670
     2013.40725         1.65676         5.10876
     2013.40999        -1.90300         4.94011
     2013.41273        -0.16976         4.92755
     2013.41546        -4.30252         5.00739
     2013.41820        -2.80428         4.96792
     2013.42094         0.16796         4.92396
     2013.42368        -4.10179         5.00739
     2013.42642         3.67345         4.94728
     2013.42915         1.35369         5.18770
     2013.43189         3.57793         5.44426
     2013.43463        -4.62283         6.31799
     2013.43737        -1.74559         6.35836
     2013.44010         2.01965         5.78783
     2013.44284        -0.88410         4.94459
     2013.44558        -0.67686         5.05493
     2013.44832        -7.70462         4.88628
     2013.45106        -6.39038         4.94459
     2013.45379        -4.65114         4.98137
     2013.45653        -4.00490         5.01726
     2013.45927        -6.55966         4.97868
     2013.46200         0.83959         4.98137
     2013.46475        -2.44817         4.95715
     2013.46748        -4.82293         4.92127
     2013.47022        -3.28669         4.97330
     2013.47296        -2.99945         4.93383
     2013.47570        -3.86421         4.93024
     2013.47843        -2.14897         4.97061
     2013.48117        -2.91872         5.07377
     2013.48391        -4.50448         4.94998
     2013.48665        -2.56924         4.95805
     2013.48939        -2.90900         4.89346
     2013.49212        -3.21876         4.92845
     2013.49486         0.25148         4.92934
     2013.49760        -2.89227         4.95984
     2013.50034        -2.43303         4.94818
     2013.50308         6.37721         4.94459
     2013.50581         5.86245         5.01008
     2013.50855         1.14169         4.86565
     2013.51129        -1.27507         4.86924
     2013.51403         1.34017         4.85848
     2013.51676         2.45642         4.91320
     2013.51950         0.62066         4.92127
     2013.52224        -1.98310         4.91320
     2013.52498         7.49114         5.05583
     2013.52772        -1.35562         4.94998
     2013.53045         0.13962         4.89167
     2013.53320        -0.96614         4.94549
     2013.53593         0.60411         4.95805
     2013.53867         2.57435         5.09261
     2013.54141         5.28859         4.95356
     2013.54414        -3.80617         4.92845
     2013.54688        -1.93193         4.90961
     2013.54962        -0.81769         4.89884
     2013.55236         0.73455         5.07736
     2013.55509         2.24080         4.89436
     2013.55783         5.93004         5.42183
     2013.56051         0.20532         5.09440
     2013.56331        -2.72448         5.08812
     2013.56576         2.03395         5.46040
     2013.56878         7.50500         4.97061
     2013.57152         5.68024         5.01546
     2013.57426         3.90049         4.93473
     2013.57699         1.98173         4.95446
     2013.57974        -0.79503         4.90333
     2013.58247         7.30221         4.93652
     2013.58521         3.00845         4.89884
     2013.58795         0.15369         4.88808
     2013.59069        12.67194         4.94549
     2013.59343         5.11717         4.91589
     2013.59616         9.19342         4.93562
     2013.59890         4.38466         4.91320
     2013.60164         3.21190         5.01367
     2013.60438         7.07814         4.97061
     2013.60711         5.23638         5.10786
     2013.60985         8.32063         4.92037
     2013.61259         3.46687         4.91409
     2013.61533         6.14011         5.04596
     2013.61807         9.70335         5.07198
     2013.62080        13.30959         5.04417
     2013.62263         8.09042         8.35163
     2013.63272        16.22193        10.15113
     2013.63449        10.98780         5.07287
     2013.63723        10.24104         4.90961
     2013.63997        11.74128         5.79231
     2013.64271         7.92052         5.07198
     2013.64544         7.73576         4.97240
     2013.64818         4.99101         4.94908
     2013.65092         7.90625         5.11773
     2013.65366        11.44949         5.12131
     2013.65639         8.23973         4.94459
     2013.65913         6.15997         5.33302
     2013.66187         7.83421         4.94728
     2013.66461         6.00646         4.93831
     2013.66735         9.97770         4.98048
     2013.67008         9.20094         5.06031
     2013.67282         7.59218         5.07018
     2013.67556        13.71042         5.05493
     2013.67830        20.73166         5.10158
     2013.68104         7.38490         4.95267
     2013.68377         5.55415         4.94011
     2013.68651         3.58739         4.86296
     2013.68925         5.72463         4.92306
     2013.69199         7.54687         4.86386
     2013.69472         8.76611         4.90333
     2013.69746         3.86335         4.91768
     2013.70020         8.08459         4.88090
     2013.70294         4.11584         4.91051
     2013.70568        11.47308         4.99303
     2013.70841         7.52932         4.91768
     2013.71115        11.28156         4.90781
     2013.71389         3.19080         4.97151
     2013.71663         3.23104         4.99034
     2013.71937         3.13328         5.53037
     2013.72210        14.08553         4.90602
     2013.72484        12.71977         5.02174
     2013.72758        10.77801         5.03071
     2013.73032         9.15325         4.93742
     2013.73305        10.69149         4.94280
     2013.73579         5.21173         4.88539
     2013.73853         4.81798         4.92037
     2013.74127         8.08822         4.97061
     2013.74401         8.34346         5.16976
     2013.74674         3.72670         5.21192
     2013.74948        10.53794         5.13926
     2013.75222        -4.90882         4.86296
     2013.75496         2.47942         5.19039
     2013.75770        -7.01333         4.91768
     2013.76043        -6.55809         4.88270
     2013.76317         0.80715         4.90243
     2013.76591         9.84239         5.09978
     2013.77529        -2.24664        14.03181
     2013.77686         2.23236         4.90781
     2013.77960        -0.57140         4.99662
     2013.78234        -7.54416         4.89525
     2013.78507        -6.73092         4.88359
     2013.78781        -8.36568         4.88090
     2013.79055        -5.52544         4.91948
     2013.79329        -4.28320         4.86027
     2013.79603        -2.81095         4.82618
     2013.79876        -4.40571         4.87911
     2013.80150         1.07353         4.97240
     2013.80424         2.03177         4.98137
     2013.80698        -1.64999         4.86655
     2013.80971         4.76125         4.85489
     2013.81245         1.73949         4.87373
     2013.81519        -0.77926         4.85399
     2013.81793         1.82598         4.88000
     2013.82067        -6.86778         5.05583
     2013.82340        -0.09154         4.85937
     2013.82614         2.42870         4.98945
     2013.82888         0.33294         4.99842
     2013.83162         0.14119         4.91858
     2013.83436         5.69543         4.99124
     2013.83709         9.46967         5.14643
     2013.83983         1.12891         5.02981
     2013.84257        -1.80385         4.92486
     2013.84531         4.49539         4.99034
     2013.84804        -1.69337         4.90692
     2013.85078         0.84488         5.08902
     2013.85352         0.01812         4.94370
     2013.85626        -2.30964         4.89705
     2013.85900         2.43360         4.89167
     2013.86173        -4.79316         4.90064
     2013.86448        -5.84192         4.99303
     2013.86721        -1.89068         4.88449
     2013.86995        -1.36343         4.89884
     2013.87269         6.54281         4.93293
     2013.87542         7.57005         4.98586
     2013.87816        10.66829         4.91948
     2013.88090         3.52653         5.00470
     2013.88364         9.13577         5.16258
     2013.88637         4.50601         4.96702
     2013.88911        -1.57574         4.89705
     2013.89185        -5.69150         4.91499
     2013.89459        -3.31726         4.91320
     2013.89733         1.14698         4.89615
     2013.90006        -3.58378         4.93652
     2013.90280        -5.42854         5.01905
     2013.90554        -2.91529         4.93562
     2013.90828         4.51095         4.93293
     2013.91102        -3.46781         4.90333
     2013.91375        -4.25457         4.87911
     2013.91649        -1.96233         4.94818
     2013.91923        -4.26309         5.07287
     2013.92197         0.26815         5.17873
     2013.92470        -1.74360         4.88808
     2013.92744         0.65564         4.92755
     2013.93018         2.78588         4.89167
     2013.93292        -0.73888         4.90333
     2013.93566         0.20436         4.89256
     2013.93839        -0.77840         4.87283
     2013.94113        -2.10216         4.87552
     2013.94387         0.75109         4.88808
     2013.94661         2.32833         5.04506
     2013.94935         3.15157         4.90781
     2013.95208         3.88881         4.92576
     2013.95483        11.23805         5.09081
     2013.95756         0.30329         4.86565
     2013.96030         1.15553         4.87731
     2013.96303         4.31878         5.00111
     2013.96577         4.63502         4.93293
     2013.96851         2.16026         4.92486
     2013.97125         8.84150         4.89795
     2013.97399        -0.41526         4.92306
     2013.97672        -7.90002         4.93562
     2013.97946        -3.43177         4.91140
     2013.98220        -1.19153         5.07377
     2013.98494        -5.06429         4.88000
     2013.98767        -2.35105         5.22448
     2013.99041        -5.26981         4.94370
     2013.99315        -8.89557         4.93114
     2013.99589        -3.53633         4.92934
     2013.99863        -4.96008         4.90781
     2014.00410        -2.30260         4.92486
     2014.00684        -4.27436         5.31777
     2014.00958        -2.14512         4.94639
     2014.01232        -6.06788         4.99573
     2014.01505        -5.30964         5.02084
     2014.01779         1.59061         4.99214
     2014.02053        -3.70015         4.94639
     2014.02326        -0.28591         5.10248
     2014.02600         1.85733         5.09709
     2014.02874        -0.96243         5.08723
     2014.03148         2.86681         4.92486
     2014.03422        -2.49295         4.86745
     2014.03696        -5.27570         4.94190
     2014.03969        -5.06746         4.88270
     2014.04243        -0.53622         5.24331
     2014.04517         2.21602         5.01815
     2014.04791         0.80126         4.85758
     2014.05065        -0.71150         4.91051
     2014.05338        -0.63226         4.85758
     2014.05612        -5.59601         4.91768
     2014.05886        -6.94077         4.96612
     2014.06160         0.84847         5.01098
     2014.06433         0.64871         5.03071
     2014.06707         1.97795         5.04776
     2014.06982         1.34119         4.96164
     2014.07255         1.13644         4.90781
     2014.07529         1.77768         4.89974
     2014.07802         0.44192         4.91948
     2014.08076         5.35416         4.94280
     2014.08350         2.88940         4.95087
     2014.08624        -2.34736         4.98406
     2014.08898        -2.41612         5.06659
     2014.09171        -0.89787         5.06390
     2014.09445        -1.01763         4.89795
     2014.09719        -1.44339         5.02712
     2014.09993         4.61885         4.94728
     2014.10266         4.63209         5.04776
     2014.10540         4.66133         4.87103
     2014.10814        -6.53343         4.91499
     2014.11088        -0.12018         5.11324
     2014.11362        -2.40994         4.93203
     2014.11635        -1.80570         4.88808
     2014.11909        -7.12546         4.96343
     2014.12183         2.82778         4.97330
     2014.12457         3.66502         5.00470
     2014.12731         7.82026         4.95446
     2014.13004         3.83251         4.92217
     2014.13278        -0.03225         5.11414
     2014.13552         3.18599         5.04506
     2014.13826        -2.03277         4.88718
     2014.14099         3.15247         4.89436
     2014.14373        -1.20929         4.95984
     2014.14647         1.34396         4.99483
     2014.14921         1.76420         4.97151
     2014.15195        -1.98556         4.92934
     2014.15468         4.25768         4.99573
     2014.15742         7.73692         5.00559
     2014.16016         4.42216         5.11862
     2014.16290         2.08640         5.00021
     2014.16564        -2.03335         5.08902
     2014.16837        -8.35011         5.17514
     2014.17111        -2.77387         5.10965
     2014.17384         0.29737         5.18231
     2014.17659        -8.70439         5.02623
     2014.17932         3.21885         5.19308
     2014.18206        -5.89291         5.05314
     2014.18474        -3.32663         5.69274
     2014.18754        -7.38743         4.97151
     2014.19028        -5.69218         5.00021
     2014.19301        -3.73394         4.93114
     2014.19575        -1.17470         4.93114
     2014.19848         2.13855         5.07287
     2014.20123        -3.77222         5.05403
     2014.20397        -3.11797         5.01187
     2014.20670        -5.75173         5.02084
     2014.20944        -1.28349         4.92306
     2014.21218        -4.27725         4.96164
     2014.21492        -1.92701         5.07646
     2014.21765        -4.24477         4.94998
     2014.22039         0.04648         4.98586
     2014.22313        -3.09628         4.94908
     2014.22587        -2.63704         5.19936
     2014.22843        -3.50469         5.74298
     2014.23134         2.73344         4.96523
     2014.23408         4.46468         5.62995
     2014.23682        -1.12408         4.92037
     2014.23956       -10.48583         5.23973
     2014.24230        -4.06959         4.99214
     2014.24503        -7.79735         4.92396
     2014.24777         5.82289         5.11862
     2014.25051        -7.88987         5.01636
     2014.25325        -6.59863         4.96253
     2014.25598        -0.43139         5.11324
     2014.25872        -5.40114         4.92486
     2014.26146        -2.53090         5.07377
     2014.26420        -6.74866         4.92217
     2014.26694        -9.66642         5.01815
     2014.26967        -2.48118         5.08812
     2014.27241        -5.42494         5.06928
     2014.27515        -7.08570         5.02443
     2014.27789        -7.19745         4.93652
     2014.28062        -6.05521         4.94011
     2014.28336        -3.20397         5.02084
     2014.28611         1.13727         5.09889
     2014.28884        -1.68949         5.73401
     2014.29158        -9.18825         4.90692
     2014.29431        -7.31901         4.91678
     2014.29705        -6.55976         5.07736
     2014.29979        -8.90752         4.97151
     2014.30253        -1.77528         5.09889
     2014.30527        -3.44304         5.03520
     2014.30800        -5.99580         4.94908
     2014.31074        -7.87556         5.17065
     2014.31348        -5.67731         4.95715
     2014.31622        -2.08607         4.92037
     2014.31895         2.61017         5.09799
     2014.32169        -8.90459         5.08184
     2014.32443       -12.54535         5.09530
     2014.32717        -6.98511         5.06301
     2014.32991        -0.57487         4.92127
     2014.33264         0.83538         4.94998
     2014.33538        -3.66138         5.01546
     2014.33812        -8.75614         5.19577
     2014.34086         3.36810         4.95984
     2014.34360        -0.38866         5.00021
     2014.34633        -8.19342         4.89615
     2014.34907        -1.50418         5.19487
     2014.35181         3.00907         5.15809
     2014.35455        -1.41369         4.97420
     2014.35728        -6.01845         4.92396
     2014.36002       -11.69521         4.98765
     2014.36276        -9.33997         4.89436
     2014.36550        -3.35973         4.93742
     2014.36824        -3.77249         5.06390
     2014.37097        -3.78624         5.27292
     2014.37371         1.21300         4.94818
     2014.37645         0.06924         5.01546
     2014.37919        -3.41352         5.01546
     2014.38193        -6.20528         5.01995
     2014.38466        -4.67704         5.11145
     2014.38740        -3.49179         5.04865
     2014.39014         3.30745         5.02981
     2014.39288        -6.05431         4.99573
     2014.39561        -1.35807         5.04506
     2014.39835        -1.06783         5.25408
     2014.40109        -4.27259         5.05403
     2014.40383        -8.67635         5.04865
     2014.40657        -4.42410         4.99034
     2014.40930        -6.72386         4.93831
     2014.41204        -8.18662         5.08812
     2014.41478        -0.54738         4.99931
     2014.41752        -3.58014         4.97868
     2014.42026        -0.10790         4.94101
     2014.42299        -2.94966         4.92486
     2014.42573        -0.28941         4.96433
     2014.42847        -3.30417         5.18680
     2014.43121        -1.77393         5.00380
     2014.43394        -4.73769         5.01008
     2014.43668         0.66955         5.00739
     2014.43942         0.16279         4.94728
     2014.44216        -5.59797         5.16437
     2014.44490        -5.19072         5.17693
     2014.44763        -2.27948         5.21371
     2014.45037        -6.43724         4.90871
     2014.45311        -3.62100         5.00739
     2014.45585         1.13924         4.95984
     2014.45859        -8.16552         4.95626
     2014.46132        -4.37927         4.95715
     2014.46406        -4.66003         4.97151
     2014.46680        -1.40879         5.41555
     2014.46954        -1.21955         5.01905
     2014.47227         1.42569         4.95715
     2014.47501        -2.02907         5.02353
     2014.47775        -5.29483         4.97420
     2014.48049        -1.76358         5.17424
     2014.48323         2.47266         4.92127
     2014.48596         6.31590         5.24242
     2014.48870         4.81414         5.02084
     2014.49144         5.54738         4.87642
     2014.49418        -1.00638         4.86296
     2014.49692        -4.21014         4.98317
     2014.49965        -1.90989         5.48014
     2014.50211         0.07453         5.39312
     2014.52709         5.06548         5.08364
     2014.52977         3.26876         5.03609
     2014.53251        -0.09000         4.90512
     2014.53525        -1.77775         4.94280
     2014.53798         4.81649         4.88987
     2014.54072         0.53673         5.06121
     2014.54346         5.61697         4.88449
     2014.54620         7.52921         5.24062
     2014.54893         8.68745         5.05403
     2014.55167         3.48869         4.91858
     2014.55441         5.42194         4.99214
     2014.55715        -9.56882         5.03251
     2014.55989         2.38542         5.00201
     2014.56262         1.34866         4.89346
     2014.56536        -0.45310         4.94459
     2014.56810        -0.96486         4.96433
     2014.57084         4.22038         4.89615
     2014.57357         3.20363         4.92217
     2014.57631        -0.28813         4.95984
     2014.57905         1.16111         4.96881
     2014.58179         2.81535         5.15271
     2014.58453         5.02759         5.00201
     2014.58726         3.80783         5.16796
     2014.59000         5.65307         5.11324
     2014.59274         2.28432         5.07736
     2014.59548         4.99056         5.04417
     2014.59822         6.51880         5.12401
     2014.60096         4.10704         5.03789
     2014.60369         3.66428         4.97330
     2014.60643        -0.73348         4.98496
     2014.60917         8.32976         5.09889
     2014.61156         5.89223         5.93764
     2014.61561       -10.21237         9.94480
     2014.61738         6.93549         6.01299
     2014.62012         8.48773         5.12311
     2014.62286         4.39597         4.93473
     2014.62560         6.97121         4.99573
     2014.62833         5.38846         4.91948
     2014.63107         2.09870         5.12759
     2014.63381        10.09594         5.49359
     2014.63655         0.12118         5.59137
     2014.63928         0.77542         5.07915
     2014.64202         1.73766         5.00828
     2014.64476         0.53190         5.05762
     2014.64750         8.07715         4.94011
     2014.65023         0.69339         5.02443
     2014.65263         8.05485         5.59048
     2014.65936        -5.82947         9.44335
     2014.66119        11.37235         5.24959
     2014.66392        12.78159         4.91409
     2014.66666         8.16084         4.92306
     2014.66940         5.05508         5.00828
     2014.67214         6.02132         5.03161
     2014.67488         1.76856         4.92217
     2014.67761         3.70880         4.97061
     2014.68035         6.87604         4.88180
     2014.68309         0.35028         4.94998
     2014.68583        -2.01747         4.98406
     2014.68856         4.61277         4.94549
     2014.69130        -0.75499         4.95267
     2014.69404         4.44925         4.89077
     2014.69678         0.84249         4.93562
     2014.69952         9.04673         4.92486
     2014.70225         8.26198         4.95267
     2014.70499         6.37722         4.97151
     2014.70773         5.20546         4.92486
     2014.71047         7.23370         5.01008
     2014.71321        11.18594         4.93831
     2014.71594         5.96318         4.98676
     2014.71868         1.62442         5.00649
     2014.72142         8.18467         4.88270
     2014.72416         3.14791         4.92306
     2014.72689        10.53915         5.04506
     2014.72963         7.54339         5.04237
     2014.73237         1.54663         5.05493
     2014.73511         1.20287         4.93742
     2014.73785         5.01611         4.88000
     2014.74058         1.65736         4.95626
     2014.74332         2.25760         5.08723
     2014.74606         9.15184         5.07018
     2014.74880        -2.17592         4.92755
     2014.75154         2.95032         5.02892
     2014.75427         5.46556         5.08184
     2014.75701        -1.03820         4.94011
     2014.75975         6.83205         4.96523
     2014.76249         6.94329         4.99034
     2014.76522         3.04753         5.14823
     2014.76796         6.66077         4.90602
     2014.77070        -3.40099         5.14105
     2014.77344         4.95525         4.90961
     2014.77618         0.32350         5.09440
     2014.77891         3.66274         4.94459
     2014.78165         7.37198         4.93742
     2014.78439         7.44122         5.07646
     2014.78713        12.35246         4.95626
     2014.78987         0.02670         4.94011
     2014.79260         9.81294         4.91409
     2014.79534        10.51219         4.91678
     2014.79808         9.76843         5.04506
     2014.80082         4.39867         4.95536
     2014.80355         8.13491         5.06928
     2014.80629         3.94715         4.97868
     2014.80903         2.20939         5.05673
     2014.81177         6.74163         4.88180
     2014.81451        13.71288         5.10337
     2014.81724        13.20812         5.08095
     2014.81998         3.92036         4.92934
     2014.82266         8.34764         5.31687
     2014.82454        14.62643         8.67726
     2014.82820         1.97708         4.96253
     2014.83093         5.70632         5.03609
     2014.83367         3.51657         4.95626
     2014.83641         5.66081         4.99842
     2014.83915         4.76505         4.98317
     2014.84188         1.49629         5.44784
     2014.84462        -1.92147         5.01905
     2014.84736        -3.91523         5.13746
     2014.85010        -3.50499         5.07826
     2014.85284         1.46126         4.94190
     2014.85557        -0.72950         5.24062
     2014.85831         3.98174         5.05045
     2014.86105         3.26198         5.24601
     2014.86379        -1.10478         5.01187
     2014.86653         1.39346         5.05852
     2014.86926        -7.80029         5.01367
     2014.87200        -2.12505         5.04865
     2014.87474        -1.86581         5.01815
     2014.87748        -4.07757         4.95805
     2014.88021         3.47767         5.28817
     2014.88295         0.42391         5.07198
     2014.88569         3.27215         5.22448
     2014.88843         3.58640         5.23703
     2014.89117         6.56064         5.48821
     2014.89390        -1.81312         5.26574
     2014.89664         4.83212         5.26215
     2014.89938         1.42636         5.22806
     2014.90212        -1.60240         5.13656
     2014.90485        -8.16916         5.18770
     2014.90759        -4.44891         5.18770
     2014.91033         3.18633         5.05224
     2014.91307         4.62157         4.91051
     2014.91581         5.07681         4.95536
     2014.91854         7.27305         5.11145
     2014.92128        -1.41571         5.02981
     2014.92402         3.03953         5.05134
     2014.92676         2.23078         5.04686
     2014.92950        -5.42398         5.03340
     2014.93223        -3.57774         5.02712
     2014.93497        -4.10050         5.12221
     2014.93771       -15.18326         5.18231
     2014.94045        -9.98102         5.04686
     2014.94318         0.52823         5.20295
     2014.94592        -2.79353         4.95087
     2014.94866        -6.94929         5.18501
     2014.95140        -0.91305         4.86386
     2014.95414         2.21719         4.86206
     2014.95687         3.08243         4.92127
     2014.95961         8.68267         4.92934
     2014.96235         4.90892         4.94728
     2014.96509        -4.31284         5.02533
     2014.96783        -8.40060         4.90781
     2014.97056        -8.46136         4.96074
     2014.97330        -6.88112         5.09889
     2014.97604        -9.40088         4.98048
     2014.97877        -4.26963         4.90333
     2014.98151         1.97961         4.97240
     2014.98425        -9.50515         5.09709
     2014.98699        -1.50791         4.89884
     2014.98973        -2.67667         4.94818
     2014.99247        -4.06543         5.06390
     2014.99520       -11.32019         4.85309
     2014.99794         0.06105         4.86834
     2015.00068        -3.70970         4.85937
     2015.00342        -5.12246         4.89436
     2015.00616        -7.93622         4.92665
     2015.00889        -5.46398         4.99662
     2015.01164        -1.14774         5.04148
     2015.01437        -6.95950         4.99662
     2015.01711        -1.39325         4.94459
     2015.01984         1.53699         5.04058
     2015.02258        -2.18277         5.12939
     2015.02532        -1.02953         5.06480
     2015.02806         0.74371         5.01905
     2015.03080         0.25195         5.10158
     2015.03353        -5.58481         5.01277
     2015.03627        -1.26256         5.02802
     2015.03901         2.87768         5.13028
     2015.04175         5.97692         5.11145
     2015.04449         1.24716         5.02353
     2015.04722        -2.32460         5.11055
     2015.04996        -2.44936         5.12131
     2015.05270        -4.03312         4.97420
     2015.05544        -6.50887         4.92037
     2015.05817         1.22737         4.88449
     2015.06091        -2.93939         5.00559
     2015.06365         3.07085         5.15540
     2015.06639         1.95009         4.82170
     2015.06913         2.13233         4.96164
     2015.07186        -2.76343         4.88898
     2015.07460        -0.29818         5.04776
     2015.07734        -7.47494         4.93203
     2015.08008        -6.01170         4.91320
     2015.08282        -1.32546         4.92576
     2015.08555        -0.34122         4.89884
     2015.08829         2.42002         5.01098
     2015.09103         1.71326         4.94639
     2015.09377         5.59051         4.90153
     2015.09650        -1.84925         5.15989
     2015.09924         5.09199         5.06928
     2015.10198         1.88523         4.96702
     2015.10472        -2.88053         5.02353
     2015.10746        -1.66829         5.03520
     2015.11019        -8.47504         5.00918
     2015.11293        -6.47680         4.97240
     2015.11567        -8.06556         4.99752
     2015.11841        -4.01732         4.90243
     2015.12115         0.35492         4.95087
     2015.12388        -5.24684         4.83874
     2015.12662        -4.09860         4.91409
     2015.12936        -0.79835         4.92665
     2015.13210        -4.11111         5.44156
     2015.13483        -1.94487         5.01995
     2015.13757        -0.89663         4.94101
     2015.14031        -6.77139         4.93203
     2015.14305        -0.42515         4.87552
     2015.14579        -2.30491         4.93562
     2015.14801        -2.28733         6.43909
     2015.17413        -2.83811         9.75194
     2015.17590        -3.37625         5.08453
     2015.17864        -2.27201         4.91858
     2015.18138        -0.02677         4.90961
     2015.18412         3.26048         4.93742
     2015.18685        -3.49428         4.93562
     2015.18959        12.74096         5.09978
     2015.19233         3.58320         5.11773
     2015.19507        -0.35656         5.12490
     2015.19780        -0.67432         4.99303
     2015.20055        -4.58608         4.91768
     2015.20328        -7.34883         4.91140
     2015.20602        -6.62759         5.02084
     2015.20876        -4.89535         5.10876
     2015.21149        -9.76111         4.95626
     2015.21423        -7.72587         5.41734
     2015.21697        -5.26663         5.05673
     2015.21971        -4.20039         4.98137
     2015.22245        -0.98614         4.97330
     2015.22518        -3.56790         4.96523
     2015.22792        -0.30866         4.93293
     2015.23066        -5.27142         4.89167
     2015.23340        -3.26618         5.06211
     2015.23613        -4.13794         5.10427
     2015.23887        -5.67970         5.53217
     2015.24161        -5.23645         5.11593
     2015.24435         0.00579         5.48731
     2015.24709         0.15503         5.08364
     2015.24982        -4.66473         4.89884
     2015.25256        -4.33849         4.94998
     2015.25530        -1.52425         4.90064
     2015.25804        -5.72700         5.01726
     2015.26078         5.20324         4.95715
     2015.26352         3.02247         4.91858
     2015.26625         0.77972         4.96164
     2015.26899        -7.04104         4.95626
     2015.27173         2.82220         5.06839
     2015.27446        -1.43156         5.02892
     2015.27720        -2.80231         4.91230
     2015.27994        -3.62707         4.94549
     2015.28268        -5.68283         4.88359
     2015.28542        -6.74959         5.04955
     2015.28815        -9.63335         5.01905
     2015.29089        -1.76111         4.91589
     2015.29363        -2.61287         4.87462
     2015.29637        -2.55562         4.92665
     2015.29911         1.32362         4.88628
     2015.30184         3.43586         5.05134
     2015.30458        -3.81090         4.90423
     2015.30732        -4.54766         4.82887
     2015.31006         0.89658         4.80914
     2015.31279        -6.21818         4.86206
     2015.31553        -5.12593         4.81093
     2015.31827        -3.53269         5.23524
     2015.32101        -3.09745         4.81542
     2015.32375        -3.97221         4.75890
     2015.32648        -8.22697         4.94190
     2015.32922        -1.37873         4.97420
     2015.33196         2.23851         4.85578
     2015.33470        -4.29924         4.77774
     2015.33744        -7.50500         4.90602
     2015.34017        -4.89176         4.78940
     2015.34291        -5.56652         4.82977
     2015.34565        -3.00528         4.90692
     2015.34839        -4.72804         4.84950
     2015.35112        -3.66779         4.75800
     2015.35386        -0.36255         4.88628
     2015.35660        -2.48631         4.85848
     2015.35934        -4.20507         4.90243
     2015.36208        -1.79983         4.86834
     2015.36481        -3.55459         4.73917
     2015.36755        -0.30635         4.77325
     2015.37029        -0.57910         4.87642
     2015.37303        -5.35286         4.82798
     2015.37577        -7.94862         4.85937
     2015.37850        -6.28938         4.85040
     2015.38124         0.06286         4.81273
     2015.38398        -2.17490         4.82798
     2015.38672        -6.68266         4.89525
     2015.38945        -3.94041         4.87911
     2015.39219        -1.02917         4.88898
     2015.39493        -2.76293         4.85937
     2015.39767        -8.97269         4.80106
     2015.40041        -5.01845         4.83336
     2015.40314        -4.87321         5.01815
     2015.40588        -9.83097         4.86565
     2015.40862        -7.68872         4.81811
     2015.41136        -0.46448         4.84412
     2015.41410        -1.11524         5.05134
     2015.41683        -1.29200         4.83695
     2015.41957        -5.08376         4.75800
     2015.42231        -0.29552         4.74006
     2015.42504        -5.33627         4.97509
     2015.42778         0.35997         4.84861
     2015.43052         4.99221         4.77953
     2015.43326        -3.24655         4.82528
     2015.43600         1.99069         4.85668
     2015.43874         2.63293         4.90243
     2015.44147        -2.76083         4.99662
     2015.44421        -4.79758         4.80465
     2015.44695        -0.50534         4.90692
     2015.44969        -3.97110         4.88808
     2015.45243        -3.86186         4.95895
     2015.45516        -2.55862         4.82080
     2015.45796         0.76359         4.97509
     2015.46064         1.50086         4.95984
     2015.46338        -0.04789         5.10158
     2015.46611         2.39535         4.83336
     2015.46885         1.14159         4.86206
     2015.47159         3.34583         5.04506
     2015.47433         0.03407         5.00470
     2015.47707        -1.74969         5.06570
     2015.47980         1.05855         4.90153
     2015.48254        -3.81220         5.07108
     2015.48528        11.15504         4.99214
     2015.48802        -2.81972         4.73020
     2015.49076        -2.33648         4.90064
     2015.49350        -2.33724         5.43080
     2015.49601         4.04715         5.31508
     2015.49992         8.04563        11.24285
     2015.50171         6.05549         4.85489
     2015.50444         9.14473         4.81273
     2015.50718         3.85297         4.85399
     2015.50992        10.05521         5.07826
     2015.51266         2.09445         4.88718
     2015.51540         4.04169         4.86475
     2015.51813         6.43194         5.11773
     2015.52087         9.60118         4.89346
     2015.52361         7.88942         4.94190
     2015.52635         1.42866         4.82439
     2015.52908         2.59390         4.84592
     2015.53182        10.05214         4.82618
     2015.53456         7.09238         4.82977
     2015.53730         5.57263         4.90423
     2015.54004         2.39287         5.02623
     2015.54277         5.48511         4.95087
     2015.54551        10.00435         4.95984
     2015.54825         6.86559         4.97509
     2015.55099         8.31683         4.98496
     2015.55378         9.10704         5.10068
     2015.55646         9.37232         4.96433
     2015.55920        11.22256         4.99931
     2015.56194        10.03180         4.97958
     2015.56468         5.93604         4.89795
     2015.56741         3.48128         5.02174
     2015.57015        10.77352         5.07377
     2015.57289         9.58577         5.05403
     2015.57563         8.55501         4.92934
     2015.57837         7.78125         4.96343
     2015.58110        11.36349         4.87552
     2015.58384        12.98573         5.06928
     2015.58658        11.00097         4.99214
     2015.58932         1.59021         4.94818
     2015.59206         2.49945         4.99124
     2015.59479         9.19770         4.94728
     2015.59753        10.75494         4.88898
     2015.60027         8.08918         4.99124
     2015.60301        15.33642         5.18321
     2015.60574         7.36666         5.05583
     2015.60848        13.24390         5.03520
     2015.61122         8.51015         4.98496
     2015.61396        12.05639         4.98227
     2015.61670         9.36663         4.77953
     2015.61943         9.53987         4.83964
     2015.62217         7.63611         4.76787
     2015.62491        14.83935         4.79658
     2015.62765        11.73059         4.74903
     2015.63039        10.25584         4.77505
     2015.63312         8.33408         5.01277
     2015.63586        15.58032         5.01098
     2015.63860         7.28456         4.80824
     2015.64134        13.74580         4.75711
     2015.64407         6.03804         4.79030
     2015.64681        -1.15572         5.15720
     2015.64955         8.07253         4.81362
     2015.65229         8.88777         4.86117
     2015.65503        17.70901         4.84143
     2015.65776        -1.53475         5.10068
     2015.66050        16.24949         4.97240
     2015.66324         7.62473         4.72481
     2015.66598        14.72598         4.93562
     2015.66872        13.19422         4.98945
     2015.67145        11.57646         4.82080
     2015.67419         7.32070         4.79209
     2015.67693         9.62594         4.74006
     2015.67967         3.38418         4.83156
     2015.68240         5.60042         4.84592
     2015.68514         6.31167         4.90064
     2015.68788        13.32791         4.75531
     2015.69062         9.61715         4.75711
     2015.69336         5.08739         4.88449
     2015.69609        11.13963         4.78223
     2015.69883        10.92087         5.03161
     2015.70157        12.30611         4.80017
     2015.70431        13.33036         4.77774
     2015.70705        11.61460         4.72571
     2015.70978        12.23484         4.90961
     2015.71252         2.50008         4.78223
     2015.71526         5.94632         4.79568
     2015.71800         9.68656         4.77056
     2015.72073        18.19680         4.83067
     2015.72307         5.93930         5.67031
     2015.72992        18.65491         8.85488
     2015.73169        13.18977         4.85848
     2015.73363        12.15053         7.34871
     2015.73716        10.97725         4.76608
     2015.73990        13.33150         4.84681
     2015.74264        12.52774         4.93203
     2015.74538         9.66898         4.96612
     2015.74811         7.24422         4.98137
     2015.75085         1.42046         4.81183
     2015.75359         4.25170         4.81183
     2015.75633        10.12494         4.74814
     2015.75906        15.19119         4.76518
     2015.76180         9.91643         4.81900
     2015.76454         4.99367         4.97689
     2015.76728         3.13191         4.89525
     2015.77002         2.85315         4.92576
     2015.77275         8.61639         4.85040
     2015.77549        11.54463         4.85040
     2015.77823         9.71588         4.82170
     2015.78097         2.18112         4.77505
     2015.78371        11.33336         4.78940
     2015.78644         9.84160         4.80375
     2015.78918         9.45184         4.81362
     2015.79192        13.03308         4.92665
     2015.79466         8.42432         4.78761
     2015.79739         3.04457         4.91320
     2015.80013         9.82881         4.95087
     2015.80287         4.53205         4.79120
     2015.80561         6.75429         4.82887
     2015.80835         5.54453         4.78312
     2015.81108         2.25077         4.88808
     2015.81382         6.62402         4.99573
     2015.81656         7.07126         4.93203
     2015.81930         5.52850         4.83515
     2015.82203        10.51574         4.88180
     2015.82477        10.82798         4.83874
     2015.82751         9.36122         4.98137
     2015.83025         7.58846         5.03251
     2015.83299        -2.27529         5.19936
     2015.83572         7.08395         4.91051
     2015.83846         1.37119         4.86475
     2015.84120        -0.16957         4.87103
     2015.84394         4.03867         4.87193
     2015.84668         1.76391         4.87193
     2015.84941         3.62615         4.88090
     2015.85215         6.10540         5.04417
     2015.85489        12.74064         4.83964
     2015.85763         1.32988         4.85668
     2015.86036         4.73012         4.88090
     2015.86310         5.04236         4.90333
     2015.86584         5.03960         4.88180
     2015.86858         7.19684         4.91858
     2015.87132         2.45009         4.89884
     2015.87405        -1.72067         4.90512
     2015.87679        -0.84243         4.93742
     2015.87953         8.30181         4.96074
     2015.88227         3.79505         4.86117
     2015.88501         1.16629         4.81811
     2015.88774         1.55553         4.85309
     2015.88928         8.93755        15.96138
     2015.89960         8.66192         8.00985
     2015.90143        -0.73226         4.80824
     2015.90417         0.07798         4.82708
     2015.90691         3.33123         4.82887
     2015.90965         4.28547         4.82708
     2015.91238         0.40671         4.89615
     2015.91512         0.28695         4.80286
     2015.91786         4.26819         4.84053
     2015.92060         6.63543         4.87193
     2015.92334         2.75467         4.85848
     2015.92607        -4.12608         4.85937
     2015.92881        -1.74284         4.95087
     2015.93155        -3.41060         5.06301
     2015.93429         6.47964         5.42811
     2015.93702        -2.97312         5.07556
     2015.93976         4.47512         5.19756
     2015.94250         7.11036         5.03609
     2015.94524         8.75361         4.98765
     2015.94798         3.78085         5.08633
     2015.95071         5.09909         4.82439
     2015.95345        -1.56367         4.79748
     2015.95619         0.57657         4.88449
     2015.95893         0.44781         5.01098
     2015.96988         2.72878         4.88987
     2015.97262         9.61902         4.85758
     2015.97535         3.61826         4.90961
     2015.97809         3.76250         4.84861
     2015.98083         0.81875         4.81542
     2015.98357        -3.80201         4.82528
     2015.98631        -2.77477         4.93562
     2015.98904        -1.30853         4.82259
     2015.99178        -2.36129         4.85040
     2015.99452        -2.30205         4.99124
     2015.99726        -1.71981         4.82349
     2016.00000         0.24144         4.82887
     2016.00273         0.08368         4.80286
     2016.00547         1.11592         4.89705
     2016.00821        -8.72584         4.85668
     2016.01095         8.51840         4.86924
     2016.01368         4.71164         4.90423
     2016.01642         1.02988         4.92486
     2016.01916        -0.34787         5.01098
     2016.02190         4.95437         4.98586
     2016.02464        -0.17739         4.93114
     2016.02737        -1.87015         4.93114
     2016.03011         1.56609         4.80375
     2016.03285        -2.85567         4.85848
     2016.03559         1.86657         4.82170
     2016.03833         1.39382         4.90781
     2016.04106         2.36906         4.88628
     2016.04380         4.48630         4.83336
     2016.04654         3.95954         4.82259
     2016.04928         1.28978         4.77146
     2016.05201        -7.19998         4.88718
     2016.05475        -0.14773         4.76518
     2016.05749        -0.66249         4.79209
     2016.06023         4.75175         4.77056
     2016.06297        -0.56301         4.74634
     2016.06570        -6.48877         4.85937
     2016.06844        -1.79153         4.89974
     2016.07118        -0.12929         4.87911
     2016.07392        -1.43304         5.15809
     2016.07666         2.18120         5.21730
     2016.07939         6.95444         4.89346
     2016.08213        -1.51432         4.95805
     2016.08487        -1.00408         4.85489
     2016.08761        -7.24784         4.84681
     2016.09034        -2.19060         4.87911
     2016.09308        -0.63135         4.88539
     2016.09542       -13.03986         5.71876
     2016.10483       -15.66490         7.48865
     2016.10677        -8.65215         4.84412
     2016.10951       -14.79091         5.01546
     2016.11225        -5.07966         4.84502
     2016.11498         0.33558         4.90961
     2016.11772       -13.51718         4.85758
     2016.12046       -10.87994         4.83515
     2016.12326        -6.91173         4.97330
     2016.12594        -7.33746         4.80824
     2016.12867         3.64678         4.81003
     2016.13141         3.98603         4.84592
     2016.13415        -4.86173         4.91051
     2016.13689        -5.03249         4.83425
     2016.13963        -0.76625         4.91768
     2016.14236       -19.46201         4.75711
     2016.14516       -12.62780         4.87283
     2016.14784        -7.73752         4.90602
     2016.15058       -11.33328         4.81542
     2016.15257        -7.04757         7.71920
     2016.15879       -10.17456         4.95356
     2016.16153        -8.88232         4.94370
     2016.16427         0.03092         5.08902
     2016.16700         0.01317         5.10786
     2016.16974        -9.30759         4.99483
     2016.17248        -9.33635         4.94818
     2016.17522        -3.56311         4.99842
     2016.17796        -5.21287         4.91320
     2016.18069        -0.45263         4.92845
     2016.18343        -8.85439         4.99303
     2016.18617        -1.93214         4.81811
     2016.18891        -4.47690         4.82349
     2016.19164        -2.73166         4.92037
     2016.19438        -4.46342         4.87103
     2016.19712        -4.32418         4.76967
     2016.19986        -1.15694         4.87642
     2016.20260       -10.61270         4.87731
     2016.20533       -10.33845         4.94280
     2016.20807        -8.96521         4.89705
     2016.21081        -4.48497         4.87373
     2016.21355        -4.34873         4.82977
     2016.21629        -4.05749         4.81093
     2016.21902        -7.43225         4.73020
     2016.22176        -5.75400         4.73827
     2016.22450        -8.52876         4.71764
     2016.22724       -10.36552         4.74455
     2016.22997        -2.42128         4.70149
     2016.23271        -7.67504         4.73199
     2016.23545        -9.41280         4.78850
     2016.23819        -3.47956         4.69700
     2016.24093        -4.74031         4.74724
     2016.24366        -4.31707         4.70508
     2016.24640        -2.70883         4.73378
     2016.24914        -5.14859         4.71495
     2016.25188        -2.69435         4.79030
     2016.25462        -0.82111         4.72571
     2016.25735        -9.37587         4.82887
     2016.26009       -12.35762         4.74186
     2016.26283       -13.19638         4.75531
     2016.26557        -3.55914         4.78043
     2016.26830        -3.06590         4.73558
     2016.27104        -1.53666         4.71225
     2016.27378         0.41458         4.72750
     2016.27652        -7.14618         4.74814
     2016.27926        -8.71493         4.80106
     2016.28142        -4.25033         6.24264
     2016.28747        -2.75121         4.72750
     2016.29021       -13.24897         4.79389
     2016.29295        -3.66873         4.76787
     2016.29568        -4.36148         4.75083
     2016.29842        -1.82124         4.87103
     2016.30116        -1.87000         4.85668
     2016.30390       -10.69976         4.91409
     2016.30663        -0.12552         4.85489
     2016.30937        -6.23728         4.80286
     2016.31211        -8.36704         4.80286
     2016.31485        -7.31179         4.77056
     2016.31759        -2.18255         4.77684
     2016.32032        -7.85431         4.75621
     2016.32306       -11.65507         4.76877
     2016.32580        -9.42083         4.82708
     2016.32854        -5.34059         4.77595
     2016.33128        -3.96735         4.75352
     2016.33401        -1.09110         4.84861
     2016.33675        -3.36786         4.82798
     2016.33949        -1.51962         5.10427
     2016.34223        -4.15738         4.81003
     2016.34496        -4.27314         4.88987
     2016.34770         1.98210         4.86565
     2016.35044        -1.48266         4.96971
     2016.35318        -5.60041         4.74096
     2016.35592       -15.10717         4.72840
     2016.35865        -9.89893         4.73199
     2016.36139        -8.84869         4.71943
     2016.36413        -0.50445         4.79120
     2016.36687         3.59379         4.83067
     2016.36961         3.80103         4.73020
     2016.37234         1.50128         4.72481
     2016.37508        -1.86148         4.73378
     2016.37782        -9.73524         4.70777
     2016.38056        -2.43600         4.87642
     2016.38307        -0.78261         5.15720
     2016.41432       -14.05269         8.62971
     2016.41615        -5.47286         4.87552
     2016.41889        -6.00562         4.74545
     2016.42162        -6.20238         4.79568
     2016.42436        -4.17114         4.74275
     2016.42710         0.08811         4.74275
     2016.42984        -1.36765         4.76608
     2016.43258         0.64459         4.73558
     2016.43531         1.63283         4.85848
     2016.43805         2.59107         4.74455
     2016.44079        -4.62069         4.79837
     2016.44353        -5.70045         4.70777
     2016.44626        -4.17220         4.71225
     2016.44900        -1.51196         4.76518
     2016.45174         0.82128         4.79030
     2016.45448        -2.85748         4.76698
     2016.45722        -0.93524         4.72571
     2016.45995         3.73800         4.76428
     2016.46269        -2.78575         4.75083
     2016.46543        -4.30451         4.70867
     2016.46822         1.37969         4.89167
     2016.47096        -0.43107         4.82708
     2016.47370        -1.14583         4.85668
     2016.47644         4.26842         5.03161
     2016.47918         4.49066         4.93473
     2016.48191        -6.19810         4.81631
     2016.48465        -2.71086         4.78492
     2016.48739         0.08138         5.90893
     2016.49013         2.92962         4.83156
     2016.49287         1.91586         4.82708
     2016.49560         0.15311         4.86296
     2016.49828        -5.46962         4.81542
     2016.50102         2.84963         4.77415
     2016.50376         1.98187         4.95805
     2016.50650         1.57711         4.85848
     2016.50924        -1.19265         4.77325
     2016.51197        -6.04241         4.73917
     2016.51477        -2.30920         4.82080
     2016.51751         1.36404         5.01277
     2016.52024         2.89528         5.63264
     2016.52298        -2.53048         4.84771
     2016.52572         2.67576         4.80914
     2016.52846         2.11100         4.82439
     2016.53120        -4.17675         4.81990
     2016.53393        -1.80351         4.80824
     2016.53667         6.15973         4.86655
     2016.53941         0.88997         4.76249
     2016.54215         1.78121         4.77684
     2016.54488         1.82645         4.78402
     2016.54762        -3.35431         4.82170
     2016.55036        -0.92906         4.96343
     2016.55310         1.20318         4.86027
     2016.55584         0.41142         5.04058
     2016.55852         0.94370         4.89256
     2016.56131         1.90390         4.91678
     2016.56405         3.76214         4.85399
     2016.56679         4.28138         4.97599
     2016.56953        -0.33437         4.94370
     2016.57226         6.48487         4.78492
     2016.57500         2.24411         4.91499
     2016.57774         4.96335         4.86117
     2016.58048         5.18859         4.80375
     2016.58321         1.53683         4.76159
     2016.58595         5.51008         4.80465
     2016.58869         1.21632         4.75352
     2016.59137         1.91859         4.72033
     2016.59360        -2.05983         5.84793
     2016.60362        11.21473        23.30561
     2016.60506        -5.16020         4.76877
     2016.60780         5.22904         4.78492
     2016.61054         1.51628         4.70418
     2016.61327         2.03653         4.70956
     2016.61601        -2.05423         4.70059
     2016.61875         2.89101         4.71764
     2016.62149        -0.72375         4.67548
     2016.62423         5.74949         4.76518
     2016.62696         3.89673         4.74096
     2016.62970         1.58998         4.76339
     2016.63244         1.58422         4.78940
     2016.63518         7.62846         4.64498
     2016.63791         8.08970         4.67548
     2016.64060        13.68498         5.05583
     2016.64339         1.53918         4.92665
     2016.64613         5.80942         4.72571
     2016.64887         1.49967         4.69611
     2016.65160         8.12491         4.75262
     2016.65434         4.92715         4.78671
     2016.65708        -1.49961         4.78223
     2016.65982        -0.07537         4.73737
     2016.66256         5.00987         4.73917
     2016.66529         1.17811         4.69342
     2016.66803         0.08936         4.71943
     2016.67077         4.48160         4.89705
     2016.67351         4.64584         4.71315
     2016.67624         5.86008         4.73558
     2016.67898         4.00632         4.88090
     2016.68172        13.95856         4.77505
     2016.68446         5.27580         4.95177
     2016.68720         1.77605         5.00111
     2016.68993         7.26729         4.77146
     2016.69267         6.97753         4.69700
     2016.69541        11.04877         4.86834
     2016.69815         4.06701         4.65395
     2016.70089         8.56725         4.64318
     2016.70362         7.47550         4.82259
     2016.70636         1.29774         4.94280
     2016.70910         1.28298         4.93921
     2016.71184        11.85522         4.78761
     2016.71457        11.76046         4.91320
     2016.71731         6.99670         4.69700
     2016.72005         5.10694         4.74096
     2016.72279         5.59419         4.74545
     2016.72553        10.37743         4.86386
     2016.72826         1.67567         4.90871
     2016.73100         2.81391         4.72392
     2016.73374         5.19115         4.67548
     2016.73648         5.51939         4.68983
     2016.73921         2.93963         4.88000
     2016.74195         5.77588         4.70687
     2016.74469        -3.15588         4.74634
     2016.74743         2.85936         4.68893
     2016.75017         4.83260         4.73917
     2016.75290         5.77584         4.74275
     2016.75564         7.96108         4.92576
     2016.75838         4.17532         4.77595
     2016.76112         7.95857         4.77684
     2016.76386        -1.85919         4.73737
     2016.76659         1.79705         4.76159
     2016.76933         3.15929         4.72930
     2016.77207         5.18553         4.91051
     2016.77481         8.51677         4.86296
     2016.77754        -1.77998         4.70059
     2016.78028         0.84026         4.70687
     2016.78302         0.67050         4.74814
     2016.78576        -3.86426         4.97868
     2016.78850         8.63998         4.80196
     2016.79123         1.80922         4.76967
     2016.79397         6.26646         5.01726
     2016.79671         1.30971         4.70149
     2016.79945        -7.84905         4.73378
     2016.80219        -6.09581         4.82080
     2016.80492        -5.15957         4.86386
     2016.80766         3.27067         4.73020
     2016.81040        -2.77009         4.77684
     2016.81314        -0.80985         4.74634
     2016.81587        -6.63560         4.77953
     2016.81861        -2.81636         4.74186
     2016.82135        -0.46012         4.71405
     2016.82409        -2.24488         4.97509
     2016.82683         0.77836         4.67906
     2016.82956        -2.39140         4.72392
     2016.83230        -4.08116         4.80106
     2016.83504         2.32909         4.71225
     2016.83778         1.25033         4.74545
     2016.84052         0.35757         4.71225
     2016.84325        -9.70319         4.73737
     2016.84599        -6.50295         4.85668
     2016.84873        -1.42771         4.74545
     2016.85147        -2.40146         4.72392
     2016.85404        -4.67812         5.10248
     2016.85694         1.61302         4.80465
     2016.85968        -7.18174         4.84412
     2016.86242        -4.33150         4.73827
     2016.86516        -1.55726         4.85758
     2016.86789        -4.46202         4.87731
     2016.87063         6.14523         4.70239
     2016.87337        -8.43853         4.89615
     2016.87611         1.54771         4.72571
     2016.87885        -5.80305         4.69342
     2016.88158       -12.67081         4.70687
     2016.88432        -2.97257         4.74186
     2016.88706        -1.39433         4.75621
     2016.88980         3.00492         4.77953
     2016.89253        -1.99784         4.71584
     2016.89527         1.10440         4.95177
     2016.89801        -5.68736         4.72033
     2016.90075        -4.51812         4.67009
     2016.90349        -3.10488         4.84143
     2016.90622        -0.05064         4.83515
     2016.90896        -0.20539         4.75352
     2016.91170        -4.31615         4.72212
     2016.91444        -1.16891         4.82977
     2016.91718        -5.50167         4.95177
     2016.91991       -16.21443         4.88449
     2016.92265        -4.77219         4.77595
     2016.92539        -3.74395         4.74545
     2016.92813        -7.36570         4.71674
     2016.93086        -2.63846         4.70956
     2016.93360        -4.58322         5.04596
     2016.93634        -5.65698         4.81631
     2016.93908       -10.85274         4.86745
     2016.94182        -0.56150         4.77236
     2016.94455        -8.39625         4.80824
     2016.94729        -6.89701         4.80914
     2016.95003       -10.75777         4.81362
     2016.95277         0.68047         4.80645
     2016.95551        -2.49229         4.71495
     2016.95824        -2.74905         4.70059
     2016.96098        -2.88881         4.72840
     2016.96372        -8.77356         4.73378
     2016.96646        -7.56632         4.75173
     2016.96919         2.82292         5.28548
     2016.97193        -8.85684         4.73199
     2016.97467        -1.33960         4.75980
     2016.97741         3.80064         4.81542
     2016.98015         1.45288         4.75173
     2016.98288        -4.40587         4.74903
     2016.98562        -4.18363         4.75173
     2016.98836        -3.79539         4.82439
     2016.99110        -1.42915         4.76339
     2016.99384        -6.22191         4.76159
     2016.99657         0.72333         4.76339
     2016.99931        -2.87143         4.68265
     2017.00091         4.58255        12.99122
     2017.00479        -6.44694         4.70149
     2017.00695        -6.66433         6.48664
     2017.01021        -2.99642         4.87103
     2017.01300         1.09678         4.83246
     2017.01574        -4.09398         4.71853
     2017.01848         0.25727         4.69073
     2017.02121        -4.78749         4.73378
     2017.02395        -3.00025         4.74365
     2017.02669         1.13599         4.80645
     2017.02943        -6.72377         4.76787
     2017.03216        -6.12553         4.71136
     2017.03490        -5.71429         4.70059
     2017.03764        -9.37304         4.72750
     2017.04038        -7.27280         4.74186
     2017.04312        -4.58456         4.69970
     2017.04585         1.29468         4.94728
     2017.04859        -2.91608         4.98855
     2017.05133        -3.03184         4.80375
     2017.05281         5.25721        19.35227
     2017.06616        -5.82736        11.50120
     2017.06776        -5.44939         4.81990
     2017.07049        -3.17315         4.71136
     2017.07323        -9.40891         6.32786
     2017.07597       -19.29266         4.73378
     2017.07871       -12.02142         4.74365
     2017.08145        -9.88118         4.79209
     2017.08418        -6.17294         5.13477
     2017.08692        -7.56470         4.71584
     2017.08966        -5.30346         4.70149
     2017.09240        -8.31221         4.93473
     2017.09514        -6.50597         4.74006
     2017.09787        -1.92973         4.76518
     2017.10061        -9.51249         4.88180
     2017.10335        -6.89125         4.78940
     2017.10609        -5.22501         4.92576
     2017.10882        -4.62177         4.81362
     2017.11156        -7.95252         4.83336
     2017.11430       -14.21628         4.75083
     2017.11704       -14.13404         4.71315
     2017.11978       -10.83980         4.68714
     2017.12251       -14.24756         4.75262
     2017.12531        -3.32135         4.91140
     2017.12805        -3.90211         4.82528
     2017.13078         1.92813         4.83425
     2017.13347        -0.79459         4.70956
     2017.13620        -6.59235         4.79030
     2017.13894        -4.49511         4.77684
     2017.14168        -8.42487         4.73289
     2017.14442       -11.93963         4.73558
     2017.14715        -7.57139         4.72302
     2017.14989        -8.50314         4.72930
     2017.15263        -4.89090         4.99483
     2017.15537        -0.51566         4.75352
     2017.15811         0.96458         4.86655
     2017.16084        -2.44218         4.72033
     2017.16358       -12.41594         4.70418
     2017.16632       -11.26770         4.85399
     2017.16911        -3.62249         4.89525
     2017.17185        -2.96125         4.86924
     2017.17459        -4.72801         4.82708
     2017.17733         0.31623         4.89615
     2017.18001        -6.31149         4.73378
     2017.18275        -7.98625         4.80824
     2017.18548        -9.32100         4.76159
     2017.18822       -13.70276         4.81721
     2017.19096       -11.16952         4.84502
     2017.19370        -8.94828         4.69970
     2017.19644        -9.63304         4.77684
     2017.19917       -15.39980         4.93831
     2017.20191       -12.38656         4.74993
     2017.20465       -14.78631         4.83336
     2017.20739       -10.00207         4.72481
     2017.21013        -6.33983         4.78671
     2017.21286        -6.90059         4.71764
     2017.21560        -6.43935         4.78402
     2017.21834         0.83689         4.81542
     2017.22108        -2.96187         4.76787
     2017.22364        -8.57151         5.05493
     2017.22761         1.86494        11.56400
     2017.22929        -6.89814         4.72930
     2017.23203        -5.13490         4.72930
     2017.23477        -8.89366         4.79120
     2017.23750        -6.43742         4.76877
     2017.24024        -9.80018         4.78492
     2017.24298       -12.06893         4.72302
     2017.24572       -13.07869         4.75621
     2017.24846       -13.50945         4.77236
     2017.25119       -11.17921         4.75083
     2017.25393        -9.30197         4.71405
     2017.25667       -12.32773         4.76698
     2017.25941       -13.99748         4.86475
     2017.26186        -3.77906         5.29893
     2017.26579        -8.39259         8.79388
     2017.26762         0.43924         4.75262
     2017.27036        -6.77952         4.74814
     2017.27310       -14.35228         4.78133
     2017.27566       -16.36293         5.07377
     2017.29226       -12.54359         4.94998
     2017.29500        -6.99135         4.78043
     2017.29871       -13.41673         9.23613
     2017.30047       -10.75786         4.78312
     2017.30321       -13.03062         4.80465
     2017.30595        -9.18738         4.89525
     2017.30869       -11.72814         4.71495
     2017.31143        -2.84290         4.71943
     2017.31416       -10.45866         4.72392
     2017.31690       -12.52941         4.75980
     2017.31964       -12.72417         4.84950
     2017.32238       -15.73493         4.81362
     2017.32512       -14.81769         4.73289
     2017.32785       -12.38445         4.73917
     2017.33059       -18.56221         4.76428
     2017.33333       -12.88296         4.74634
     2017.33607       -10.97372         4.68086
     2017.33880       -12.73048         4.75711
     2017.34154       -14.07524         4.94908
     2017.34428       -10.63900         4.70777
     2017.34702       -10.30776         4.73289
     2017.34976       -10.86252         4.72212
     2017.35249       -11.36227         4.72930
     2017.35523       -11.35803         4.80555
     2017.35797        -7.03279         4.74903
     2017.36071       -11.15455         4.74455
     2017.36344        -8.31831         4.76518
     2017.36618        -9.47907         4.70508
     2017.36892        -5.60283         4.72033
     2017.37166       -10.43158         4.74186
     2017.37440        -9.22934         4.71943
     2017.37713       -12.72010         4.81452
     2017.37987       -14.40486         4.79299
     2017.38261        -7.11662         4.75173
     2017.38535        -9.13438         4.71764
     2017.38809        -5.27314         4.72033
     2017.39082        -6.00889         4.74006
     2017.39330        -2.80849         5.20115
     2017.44650        -8.06265        10.26147
     2017.44832        -3.85582         4.75711
     2017.45191        -0.81813         8.28255
     2017.45379        -3.44834         4.85578
     2017.45653       -16.82510         6.10270
     2017.45927         0.22114         4.77774
     2017.46201         0.87638         4.82080
     2017.46475        -1.09937         4.83425
     2017.46748        -0.54513         4.92306
     2017.47022        -4.80189         4.90692
     2017.47296        -3.24965         4.81093
     2017.47490        -2.29390         7.26529
     2017.48490        10.12968        10.27582
     2017.48665         1.07756         4.72481
     2017.48939        -0.65820         4.74993
     2017.49212        -5.23596         4.74814
     2017.49486        -0.53672         4.77236
     2017.49760        -7.16448         4.78671
     2017.50034        -3.07923         4.71405
     2017.50308         0.36201         4.74814
     2017.50581        -1.94075         4.82798
     2017.50855        -8.34151         4.88628
     2017.51129        -9.53327         4.91768
     2017.51357        -0.47373         5.73849
     2017.52309        -5.37085         8.69161
     2017.52498        -4.61106         4.78761
     2017.52772        -2.97382         4.88808
     2017.53045        -4.46358         4.74545
     2017.53319        -4.18534         4.81362
     2017.53593         2.89990         4.77505
     2017.53867         2.34515         4.80465
     2017.54141         5.27039         4.74724
     2017.54414         3.29563         4.73468
     2017.54688         1.86687         4.85309
     2017.54962        -0.59089         4.82439
     2017.55236        -4.25965         4.92665
     2017.55509         0.04959         4.78671
     2017.55783         1.26784         4.74365
     2017.56057         1.15408         4.75173
     2017.56331        -1.36368         4.73199
     2017.56605         4.47656         4.77953
     2017.56878        -3.39620         4.78940
     2017.57152         1.72804         4.77953
     2017.57426        -1.36771         4.74455
     2017.57700        -1.85547         4.74814
     2017.57974        -1.48423         4.73020
     2017.58247        -2.17699         4.74545
     2017.58521         0.30025         4.76339
     2017.58795        -3.32551         4.79748
     2017.59069         1.76973         4.84502
     2017.59342         4.12798         4.75262
     2017.59616        -1.65278         4.75262
     2017.59890         0.08746         4.75083
     2017.60164        -1.14730         4.72840
     2017.60438        -0.25506         4.77056
     2017.60711        -0.97982         4.81542
     2017.60985         2.85342         4.92037
     2017.61259         4.12767         4.77415
     2017.61533         6.64591         4.93383
     2017.61807         0.16415         4.83067
     2017.62080         1.20239         4.76698
     2017.62354         1.68263         4.84412
     2017.62628         4.48687         4.95356
     2017.62902         3.39111         5.05852
     2017.63175        -1.06264         4.74275
     2017.63449        -1.82240         4.75442
     2017.63723         2.86284         4.73648
     2017.63997         1.35308         4.85040
     2017.64271         9.98332         4.73917
     2017.64544         4.96056         4.74903
     2017.64818         1.33080         4.81273
     2017.65092         4.25805         4.75621
     2017.65366         3.53129         4.75980
     2017.65639         5.68753         4.77774
     2017.65913         9.77377         4.79209
     2017.66187        -2.55699         4.77774
     2017.66461         6.51125         4.87283
     2017.66735         8.85850         4.85578
     2017.67008         7.22974         4.73109
     2017.67282         4.63698         4.91409
     2017.67556         7.81922         4.73199
     2017.67830         5.15846         4.72571
     2017.68104         4.65570         4.73917
     2017.68349        12.65413         5.56715
     2017.68735        13.97265         7.87439
     2017.68925         5.61043         4.80375
     2017.69199         5.74167         4.81631
     2017.69472         5.81291         4.72750
     2017.69746        10.40715         4.88359
     2017.70020        11.73039         4.96792
     2017.70294         8.58263         4.95895
     2017.70568        -0.19612         4.91589
     2017.70841         8.51212         4.74724
     2017.71115         4.35636         4.93024
     2017.71389         6.38160         4.88808
     2017.71663         8.42584         4.89346
     2017.71937         4.66108         4.84143
     2017.72210         2.93232         4.75890
     2017.72484         1.23257         4.74365
     2017.72758         0.75281         4.76518
     2017.73032         3.06805         4.75083
     2017.73305         6.07129         4.73648
     2017.73579         0.71853         4.74096
     2017.73853         2.78777         4.71315
     2017.74127         4.37602         4.72750
     2017.74401        10.95526         4.94280
     2017.74674        -0.95850         4.75980
     2017.74948         6.50574         4.83336
     2017.75222         1.78498         4.71584
     2017.75496        -1.77478         4.73917
     2017.75770         1.51946         4.81183
     2017.76043        -0.09129         5.23076
     2017.76317         1.78495         4.70508
     2017.76591         5.10819         4.89167
     2017.76865         3.21543         4.76159
     2017.77138        -1.31933         4.74634
     2017.77412         0.71091         4.92127
     2017.77686        -2.61585         4.77505
     2017.77960        -2.03160         4.81900
     2017.78234         2.03864         4.83964
     2017.78507        -2.11412         4.72033
     2017.78781        -2.41388         4.70418
     2017.79055        -1.94464         4.71674
     2017.79329        -1.46640         4.80375
     2017.79603         9.46584         4.77595
     2017.79876         4.27709         4.88449
     2017.80150         5.68633         4.96343
     2017.80424         5.81957         4.79389
     2017.80698        -7.89319         4.95446
     2017.80971        -6.03795         4.70777
     2017.81245        -5.42371         4.69790
     2017.81519        -2.47046         4.76787
     2017.81793        -2.98922         4.79030
     2017.82067        -5.48798         4.84323
     2017.82340        -2.61074         4.68983
     2017.82614        -1.01750         4.71136
     2017.82888        -1.91126         4.69611
     2017.83162         7.02398         4.71674
     2017.83436         0.31523         4.74993
     2017.83709        -3.36253         4.85220
     2017.83983        -7.19129         4.76070
     2017.84257        -6.41405         4.66471
     2017.84531        -3.22181         4.81183
     2017.84804       -10.26657         4.73109
     2017.85078        -9.30933         4.72840
     2017.85352         3.48992         4.74096
     2017.85626        -3.17884         4.85399
     2017.85900         1.79440         4.80645
     2017.86173         2.66064         4.84143
     2017.86447        -3.84612         4.74096
     2017.86721         1.18112         4.81452
     2017.86995        -3.96464         4.74545
     2017.87269        -5.77639         4.67996
     2017.87542         2.09785         4.74096
     2017.87816        -0.55091         4.80734
     2017.88090         0.21233         4.71674
     2017.88364        -2.37343         4.70508
     2017.88637         4.23981         4.82708
     2017.88911         0.69306         4.76339
     2017.89185       -10.71770         4.99393
     2017.89459        -5.45646         5.06659
     2017.89733        -1.23322         4.78492
     2017.90006        -4.82498         4.73648
     2017.90280        -1.52774         5.05852
     2017.90554         1.76850         4.75711
     2017.90828         1.28075         4.77236
     2017.91102        -3.63201         4.83246
     2017.91375        -3.31677         5.02264
     2017.91649        -1.84253         4.71225
     2017.91923        -2.56429         4.77415
     2017.92197         4.04295         4.73020
     2017.92470        -6.45481         4.71136
     2017.92693       -10.16223         6.21304
     2017.94501         1.05015        11.98741
     2017.94661        -5.72187         4.90692
     2017.94935        -0.30263         4.80286
     2017.95208         2.45561         4.85758
     2017.95482        -1.33615         4.77595
     2017.95756        -6.76591         4.76428
     2017.96030         0.98633         4.76428
     2017.96303        -2.69243         4.73378
     2017.96577         1.15882         4.84861
     2017.96851         1.18606         4.71225
     2017.97125        -7.04870         4.90064
     2017.97399        -3.66646         4.68714
     2017.97672        -5.02622         4.68983
     2017.97946        -4.22498         4.77236
     2017.98220        -7.44473         4.72123
     2017.98494        -9.34649         4.66023
     2017.98767        -9.86825         4.72481
     2017.99041        -9.81401         4.67996
     2017.99315        -3.56677         4.75173
     2017.99589       -12.05353         4.86475
     2017.99863        -7.20029         4.68624
     2018.00136       -12.36604         4.68265
     2018.00410        -9.05180         4.78492
     2018.00684        -6.12956         4.70867
     2018.00958        -9.81032         4.72571
     2018.01232       -16.28508         4.78850
     2018.01505        -7.44284         4.70149
     2018.01779        -8.12760         4.72481
     2018.02053        -1.46235         4.76249
     2018.02327         2.75889         4.73289
     2018.02600        -3.81087         4.70418
     2018.02874        -8.55063         4.81811
     2018.03148        -7.36839         4.77415
     2018.03422        -9.34215         4.71225
     2018.03696       -16.22791         4.69521
     2018.03969       -12.36166         4.72392
     2018.04243       -17.38242         4.77505
     2018.04517        -9.61618         4.86386
     2018.04791       -14.10294         5.08005
     2018.05065        -4.00670         4.71225
     2018.05338        -6.23046         4.76877
     2018.05612        -9.05521         4.82080
     2018.05886       -11.65497         4.75173
     2018.06160        -9.67973         4.70059
     2018.06433       -10.98649         4.85937
     2018.06707        -3.14125         4.80914
     2018.06981       -11.27701         4.81631
     2018.07255       -12.16277         4.86745
     2018.07529       -15.90152         4.81721
     2018.07802       -11.65428         4.90692
     2018.08076       -18.58304         4.95626
     2018.08350        -8.40280         4.80375
     2018.08607       -11.91545         5.13298
     2018.08898        -9.27732         5.05224
     2018.09171        -8.55908         4.85668
     2018.09445        -9.11383         4.83156
     2018.09719        -5.66959         4.92217
     2018.09976       -15.90124         5.15181
     2018.10354        -8.99767         7.98473
     2018.10540       -14.28987         4.89974
     2018.10814        -5.51863         4.79030
     2018.11088        -6.58139         4.77774
     2018.11362        -7.10214         4.78492
     2018.11635        -7.63590         4.80106
     2018.11909       -10.09466         4.89525
     2018.12183        -2.12942         4.91589
     2018.12457        -7.73718         4.77864
     2018.12731       -10.48694         4.77953
     2018.13004        -1.69069         4.84861
     2018.13278        -2.73745         4.82259
     2018.13552        -0.87521         4.78223
     2018.13826        -5.82097         4.78492
     2018.14099        -6.83473         4.78133
     2018.14373        -5.47949         4.78671
     2018.14647        -5.32225         5.04058
     2018.14921        -5.33300         4.91051
     2018.15195        -7.10476         4.78492
     2018.15468        -2.91352         4.77684
     2018.15742        -6.37028         4.78133
     2018.16016        -6.69004         4.76518
     2018.16290       -12.25980         4.91320
     2018.16564        -5.90856         4.88628
     2018.16837       -10.04031         4.76698
     2018.17111        -7.12507         4.77236
     2018.17385        -8.78883         4.76877
     2018.17659       -10.19859         4.79927
     2018.17932        -7.65735         4.81362
     2018.18206        -0.22711         4.89256
     2018.18480        -2.24387         4.84681
     2018.18754        -9.28262         4.75980
     2018.19028        -7.01638         4.76967
     2018.19301        -3.98514         4.78850
     2018.19575         2.51010         4.82528
     2018.19849        -2.31566         4.81003
     2018.20123        -0.93442         4.85848
     2018.20397         1.58582         4.73468
     2018.20670        -1.78493         4.77505
     2018.20944        -5.16169         4.78312
     2018.21218        -7.04345         4.81093
     2018.21492       -17.14421         4.74455
     2018.21765        -6.41297         4.68265
     2018.22039        -3.84973         4.80017
     2018.22313        -8.53348         4.73020
     2018.22587       -12.39024         4.71943
     2018.22861       -10.23600         4.71943
     2018.23134       -11.97976         4.68175
     2018.23408       -10.16152         4.69880
     2018.23682       -11.55828         4.70418
     2018.23944       -10.09196         4.94190
     2018.24230        -7.66779         4.70956
     2018.24503        -8.21955         4.72571
     2018.24777       -10.03331         4.69970
     2018.25051        -2.85607         4.73020
     2018.25325        -7.79483         4.67906
     2018.25598        -2.00259         4.72661
     2018.25872        -4.43135         4.82349
     2018.26146        -3.60910         4.84861
     2018.26420        -2.10586         4.79837
     2018.26694        -9.80062         4.69790
     2018.26967       -10.77338         4.68086
     2018.27241        -8.47114         4.80286
     2018.27515         2.32510         4.68624
     2018.27789        -3.80966         4.78671
     2018.28062        -5.95341         4.90871
     2018.28336        -8.70017         4.72302
     2018.28610        -9.10193         4.67548
     2018.28884        -2.67969         4.65484
     2018.29158        -4.98445         4.78671
     2018.29431        -8.79821         4.72661
     2018.29705        -8.33396         4.71225
     2018.29979       -11.76572         4.72392
     2018.30253       -11.90448         4.74814
     2018.30527        -7.57524         4.63780
     2018.30800        -5.65600         4.62614
     2018.31074        -5.18976         4.64139
     2018.31348        -7.63352         4.69252
     2018.31622        -7.28827         4.66740
     2018.31895        -4.88303         4.83336
     2018.32169        -6.89279         4.67817
     2018.32443        -4.18055         4.63600
     2018.32717        -6.22231         4.69342
     2018.32991        -4.95307         4.81990
     2018.33264        -6.30383         4.64408
     2018.33538       -10.84358         4.80734
     2018.33812        -3.25934         4.82618
     2018.34086        -7.75310         4.68893
     2018.34360        -3.13086         4.75442
     2018.34633        -4.06862         4.64677
     2018.34907        -4.31038         4.70598
     2018.35181        -3.90514         4.74455
     2018.35455        -2.03089         4.68624
     2018.35728        -0.50665         4.66023
     2018.36002         0.51759         4.62883
     2018.36276        -4.21517         4.72840
     2018.36550        -2.30093         4.67727
     2018.36824        -1.18969         4.64677
     2018.37097        -1.94844         4.64677
     2018.37371        -3.05520         4.67817
     2018.37645        -5.56496         4.78671
     2018.37919         1.07028         4.65484
     2018.38193        -3.27648         4.68265
     2018.38466        -0.23124         4.63780
     2018.38740        -1.25400         4.67458
     2018.39014         5.52025         4.68445
     2018.39288         2.49949         4.71943
     2018.39561         3.25673         4.68265
     2018.39835         2.80097         4.68265
     2018.40109        -0.03679         4.61986
     2018.40383        -0.22255         4.66830
     2018.40657         2.69769         4.74096
     2018.40930         8.36594         4.77953
     2018.41204         5.54718         4.70956
     2018.41478        -1.10458         4.65484
     2018.42299         1.44214         4.76518
     2018.42573         1.94738         4.70328
     2018.42847        -0.25337         4.67099
     2018.43098         6.36601         5.03430
     2018.43394        -4.71989         5.39761
     2018.43668         5.26635         4.83425
     2018.43942         2.61059         4.74006
     2018.44216        -0.51217         4.66830
     2018.44490        -3.27893         4.67996
     2018.44763        -3.18268         4.70059
     2018.45037        -1.88544         4.66023
     2018.45311         2.16480         4.67458
     2018.45585         3.48804         4.66112
     2018.45859         2.60628         4.67996
     2018.46132        -3.72248         4.72212
     2018.46406         4.01777         4.66471
     2018.46680         4.97201         4.71764
     2018.46954        -2.57175         4.70598
     2018.47227         2.04449         4.74634
     2018.47501         6.60473         4.69431
     2018.47775        -0.59203         4.67637
     2018.48049         3.62221         4.82618
     2018.48323        -2.82954         4.67727
     2018.48596        -4.64130         4.68355
     2018.48870        -0.70406         4.71674
     2018.49144        -0.71782         4.64856
     2018.49418         1.87642         4.78312
     2018.49692         6.23066         4.75442
     2018.49965         0.21590         4.69252
     2018.50239        -1.75485         4.67278
     2018.50513        -2.11561         4.69431
     2018.50787        -4.72937         4.78402
     2018.51060        -0.92813         4.75442
     2018.51334        -3.28789         4.68983
     2018.51608        -1.21165         4.75173
     2018.51882        -5.83341         4.68086
     2018.52156        -1.05416         4.67906
     2018.52429        -0.63492         4.68714
     2018.52703         4.20532         4.66920
     2018.52977         0.73656         4.68445
     2018.53251        -1.44220         4.68983
     2018.53525        -0.69396         4.80824
     2018.53798         0.35929         4.69252
     2018.54072         0.99553         4.67996
     2018.54346         1.78477         4.70328
     2018.54620         5.70901         4.65753
     2018.54893        -0.31275         4.69342
     2018.55167         1.00549         4.65305
     2018.55441         0.79473         4.64587
     2018.55715         2.21498         4.68445
     2018.55989        -2.99378         4.78581
     2018.56262         1.88246         4.68803
     2018.56536         3.03970         4.70059
     2018.56810         3.36394         4.66650
     2018.57078        -0.39678         4.77146
     2018.57266        -9.20599         7.98473
     2018.57631        -2.08433         7.39177
     2018.57905         1.21291         4.92217
     2018.58179         1.88215         4.77953
     2018.58453         5.01339         4.79478
     2018.58726         1.85663         4.65484
     2018.59000         3.83887         4.65036
     2018.59274         2.31211         4.67099
     2018.59548        -0.58264         4.70867
     2018.59799         4.49674         5.08992
     2018.60095         4.21584         4.68534
     2018.60369         6.45608         4.67278
     2018.60643         2.62732         4.82170
     2018.60917         6.27656         4.74993
     2018.61185         2.83384         4.76070
     2018.61464         4.25905         4.67278
     2018.61738         2.20629         4.75173
     2018.62012         2.89053         4.72123
     2018.62286         2.80577         4.72750
     2018.62559         1.20901         4.83425
     2018.62833         4.18625         4.69431
     2018.63107         5.65650         4.67278
     2018.63381         6.57674         4.82708
     2018.63655         3.81098         4.64587
     2018.63928         8.98022         4.82259
     2018.64202         9.05646         4.95446
     2018.64476         6.52070         7.10830
     2018.64750        -0.03306         4.68714
     2018.65023         4.25519         4.73199
     2018.65297         6.81343         4.64228
     2018.65571         7.87267         4.67727
     2018.65845         5.51391         4.67548
     2018.66119        10.01615         4.75711
     2018.66392         5.30039         4.65933
     2018.66666         5.36663         4.69880
     2018.66940         7.71588         4.66471
     2018.67214         0.70712         4.70059
     2018.67488         4.57036         4.70777
     2018.67761         6.07460         4.74455
     2018.68035         3.72284         4.74545
     2018.68309        -4.02292         4.72840
     2018.68583         6.32232         4.77415
     2018.68856         3.81457         4.73020
     2018.69130         6.84781         4.74186
     2018.69404         1.27805         4.87821
     2018.69678         2.94529         4.73648
     2018.69952        -0.09047         4.68893
     2018.70225        -1.14523         4.78671
     2018.70499        -3.45898         4.68265
     2018.70773         0.63926         4.77325
     2018.71047        -3.38950         4.72481
     2018.71321        -0.51926         4.65036
     2018.71594         2.87598         4.68624
     2018.71868        -4.15878         4.72302
     2018.72142        -3.34154         4.70598
     2018.72416         4.07771         4.90423
     2018.72689        -3.65705         4.73468
     2018.72963         1.05419         4.68893
     2018.73237         0.25643         4.67009
     2018.73511        -1.48833         4.66740
     2018.73785         1.46191         4.72750
     2018.74058        -1.23585         4.70418
     2018.74332         3.72640         4.69790
     2018.74606         2.96364         4.70059
     2018.74880         3.44288         4.68355
     2018.75154         0.13312         4.69790
     2018.75427        -2.12264         4.78223
     2018.75701         5.71160         4.90423
     2018.75975         6.80684         4.81003
     2018.76249         5.18109         4.69162
     2018.76522        -4.58967         4.77236
     2018.76796        -0.98643         4.75531
     2018.77070         3.94381         4.71853
     2018.77344         3.34705         4.69700
     2018.77618         0.72329         4.71943
     2018.77891         3.41554         4.74275
     2018.78165         1.03678         4.74096
     2018.78439         4.82102         4.68534
     2018.78713         1.82226         4.67727
     2018.78987        -4.29750         4.74814
     2018.79260         2.08574         4.67458
     2018.79534         8.13698         4.67368
     2018.79808        -1.53677         4.69252
     2018.80082         3.56747         4.67637
     2018.80355         3.18471         4.65664
     2018.80629         0.00195         4.84592
     2018.80903         2.82519         4.80824
     2018.81177         3.46343         4.90871
     2018.81451         7.12967         4.78043
     2018.81724         3.81092         4.75890
     2018.81998         6.72016         4.78312
     2018.82272         1.93740         4.85040
     2018.82546         5.89664         4.76608
     2018.82820        -1.66812         4.70149
     2018.83093         0.75412         4.75531
     2018.83367         0.94036         4.72033
     2018.83641         7.96561         4.82259
     2018.83915        -0.56315         4.77505
     2018.84188       -10.73691         4.99214
     2018.84462         2.54133         4.69073
     2018.84736        -3.77343         4.70239
     2018.85010        -2.11719         4.70867
     2018.85284        -4.21394         4.69252
     2018.85557        -5.64670         4.77056
     2018.85831        -2.39846         4.75442
     2018.86105        -4.55822         4.69790
     2018.86379        -0.38698         4.78223
     2018.86653         1.83826         4.73289
     2018.86926        -4.49950         4.81452
     2018.87182        -4.98214         5.07018
     2018.87588         3.29925        11.65101
     2018.87748        -5.36077         4.76877
     2018.88375       -12.17780        16.79565
     2018.88669         4.23131        15.77749
     2018.88843        13.90019         9.26035
     2018.89117        18.97544         9.13835
     2018.89390        -3.57932         9.28905
     2018.89664        -3.53408         9.08632
     2018.89938         2.74016         9.31597
     2018.90212         8.82840         9.65685
     2018.90485        -1.08236         9.44155
     2018.90742         9.17899        10.39064
     2018.91033        12.28313         4.84681
     2018.91307         7.37337         4.89077
     2018.91581        12.15261         4.86655
     2018.91855        11.93685         4.75531
     2018.92128         9.52809         4.69162
     2018.92402         6.53033         4.70956
     2018.92676         7.15257         4.73289
     2018.92950         9.05582         4.79927
     2018.93223         5.61206         4.90602
     2018.93497         8.10430         4.74724
     2018.93771         6.33454         4.71674
     2018.94045         7.21878         4.68355
     2018.94318         6.22802         4.85937
     2018.94592         6.05527         4.96523
     2018.94866         5.33051         4.76159
     2018.95140        11.35875         4.79389
     2018.95414        12.43599         4.70059
     2018.95688        11.50623         4.70777
     2018.95961        10.48447         4.79927
     2018.96235        13.78771         4.89346
     2018.96509         3.75996         4.77236
     2018.96783        -0.69280         4.73199
     2018.97056         8.31344         4.69431
     2018.97330         3.36868         4.68803
     2018.97604         1.85292         4.81093
     2018.97878         5.73816         4.73378
     2018.98151        -2.47760         4.69342
     2018.98425         4.10565         4.84233
     2018.98699         1.26489         4.77415
     2018.98973         1.57613         4.74455
     2018.99247         4.52337         4.76249
     2018.99521        -8.13139         4.81631
     2018.99794        -3.21515         4.72571
     2019.00068        -6.99891         4.75173
     2019.00342        -3.78066         4.74186
     2019.00616         2.08458         4.82259
     2019.00889         0.15882         4.71943
     2019.01163         5.88106         4.74096
     2019.01437         5.22430         4.71674
     2019.01711         7.63354         4.76339
     2019.01984        -0.46621         4.72392
     2019.02258         1.95803         4.69252
     2019.02532        -1.09673         4.79748
     2019.02806         3.41651         4.79568
     2019.03080         0.40775         4.83156
     2019.03354        -2.52001         4.67458
     2019.03627        -4.78877         4.70598
     2019.03901         2.55448         4.69790
     2019.04175        -2.01728         4.69431
     2019.04449         2.80396         4.74814
     2019.04722        -0.64380         4.80824
     2019.04996        -3.86856         4.86924
     2019.05270        -2.15132         4.91051
     2019.05544         1.53892         4.77864
     2019.05817        -4.15883         4.84950
     2019.06091         3.64641         4.81721
     2019.06365         0.61665         4.75800
     2019.06639         2.68089         4.76608
     2019.06913        -0.05087         4.80017
     2019.07187         0.91537         4.81362
     2019.07460        -2.15239         4.70149
     2019.07734         1.65086         4.72033
     2019.08008         3.40810         4.70418
     2019.08282         1.37734         4.84771
     2019.08555         4.18058         4.70777
     2019.08829         3.17782         4.69342
     2019.09103         8.36006         4.68714
     2019.09377         8.19031         4.68445
     2019.09650        10.06755         4.70418
     2019.09924         1.52379         4.67368
     2019.10198        -3.46397         4.68265
     2019.10472         2.18827         4.71136
     2019.10746         5.60951         4.74365
     2019.11020         2.22975         4.68534
     2019.11293         7.54400         4.79927
     2019.11567         3.50724         4.95715
     2019.11841        13.34948         4.80017
     2019.12508        13.36519        14.15740
     2019.12662         8.69620         4.70777
     2019.12936         1.40444         4.70867
     2019.13210         0.62869         4.68983
     2019.13483        -3.09907         4.69970
     2019.13757         3.77017         4.71046
     2019.14031         4.67541         4.69970
     2019.14305        -0.81335         4.69880
     2019.14579         0.11389         4.71046
     2019.14853         2.76313         4.70777
     2019.15126         9.50738         4.68086
     2019.15400        -4.98638         4.67906
     2019.15673         0.14487         4.67996
     2019.15948        -0.25390         4.70059
     2019.16221        -4.89666         4.80824
     2019.16495        -3.26942         4.67727
     2019.16769        -7.01118         4.65395
     2019.17043        -4.86993         4.67906
     2019.17316        -2.59369         4.71674
     2019.17590         0.44255         4.72302
     2020.03011         3.49189         5.58420
     2020.03285        -5.68287         4.88808
     2020.03559         1.69637         4.80555
     2020.03833         1.45561         4.67727
     2020.04106        -2.58514         4.81452
     2020.04380        -5.73690         4.77684
     2020.04654        -1.67866         4.90333
     2020.04928        -3.24342         4.66471
     2020.05201        -1.99018         4.66830
     2020.05475        -2.82794         4.70508
     2020.05743        -2.68566         4.78043
     2020.06023        -5.63745         4.69790
     2020.06297        -3.70021         4.79299
     2020.06570        -1.63697         4.76518
     2020.06844         1.75527         4.78312
     2020.07118         1.21751         4.85040
     2020.07392         0.11575         5.21461
     2020.07666        -7.67400         5.18859
     2020.07939        -2.91176         4.78581
     2020.08213         0.86248         4.73558
     2020.08487        -2.37728         5.47206
     2020.08761        -3.58004         5.27740
     2020.09034         0.25220         4.96433
     2020.09308         0.92444         4.86386
     2020.09582        -1.41431         4.67637
     2020.09856         1.77493         4.99393
     2020.10130         0.23717         5.22268
     2020.10409         0.12637         4.84143
     2020.10677        -5.62635         4.95446
     2020.10951        -7.11111         4.99573
     2020.11225        -5.19387         4.67278
     2020.11498        -4.51562         4.66202
     2020.12046        -4.41414         4.81631
     2020.12320        -7.29190         4.63870
     2020.12594        -6.92266         5.37159
     2020.12867        -5.94542         5.01008
     2020.13141        -8.14117         4.80106
     2020.13415        -6.89593         4.83784
     2020.13689        -4.35269         4.88359
     2020.13963        -4.41445         4.90602
     2020.14236        -5.14421         5.09081
     2020.14784        -9.25373         5.08723
     2020.15058        -5.92748         4.81900
     2020.15331        -8.77424         5.09351
     2020.15605        -7.31100         4.94370
     2020.15879        -0.34976         4.69521
     2020.16700        -0.64204         5.08364
     2020.16968         0.16824         5.02353
     2020.17248        -2.66155         4.90423
     2020.17522         0.67869         4.79030
     2020.17796         2.06093         4.79927
     2020.18069        -0.45383         4.79030
     2020.18343        -1.13859         5.04058
     2020.18623        -3.41838         4.83605
     2020.18891        -3.65110         5.21909
     2020.19164        -1.92286         5.42273
     2020.19438        -2.56162         4.87103
     2020.19712        -1.24838         4.87731
     2020.19992         3.92083         4.81273
     2020.20260        -3.03790         4.74096
     2020.20533         0.06935         4.76608
     2020.21081        -4.04717         4.76787
     2020.21355        -2.99593         5.19128
     2020.21629        -1.14869         4.94908
     2020.21902        -0.40145         4.84681
     2020.22450         3.77404         4.76339
     2020.22592        26.64412       100.39354
     2020.23271         1.53976         4.72930
     2020.23539         1.81704         4.78492
     2020.24366        -0.21027         7.73804
     2020.24617         3.99811         9.40388
     2020.24914        -4.11079         7.52902
     2020.25188        -4.10055         7.70036
     2020.25462        -4.63831         7.52005
     2020.25735         6.78093         7.10830
     2020.26015         7.73814         7.11458
     2020.26283         9.03442         7.03205
     2020.26557        -0.19134         7.04730
     2020.26830         1.81290         7.02218
     2020.27110         6.29910         8.48798
     2020.27378         3.19138         8.45569
     2020.27652         3.32662         8.87820
     2020.27926         4.85786         8.78580
     2020.28211         1.72903         8.25564
     2020.28473         6.40535         7.03564
     2020.28747        -1.16441         6.94414
     2020.29021        12.52083         7.81788
     2020.29295         1.95907         7.35499
     2020.30116        10.14780         6.95221
     2020.30390        10.38304         6.95490
     2020.30663        -6.64372         6.99168
     2020.30937         2.03252         7.01142
     2020.31211         2.88076         7.19083
     2020.32032         1.68649         7.22761
     2020.32306        13.30173         7.33257
     2020.32580         1.51197         7.05179
     2020.32854        11.83021         7.14329
     2020.33128        -3.17455         7.04371
     2020.33937        -1.26675         7.34423
     2020.34171       -10.17225        12.33457
     2020.34451        24.04595        10.23725
     2020.34839       -14.58354        10.70372
     2020.35044        -1.45486         7.55683
     2020.35865        14.19287         7.24196
     2020.36413        11.14935         7.22671
     2020.36687         8.15659         8.49426
     2020.36961        -1.21417         7.09574
     2020.37685         7.10218         8.40545
     2020.38056        -3.17420         4.72212
     2020.38329        -2.45396         4.77953
     2020.38603        -0.50872         4.77236
     2020.38786        -1.74289         7.94346
     2020.39972        -2.14051         4.70059
     2020.40246         0.32473         4.70328
     2020.40508        -1.61595         5.25767
     2020.40767         0.72438         5.13567
     2020.41067         3.15146         4.86386
     2020.41341         1.96070         6.99617
     2020.41550        -3.46864        10.03720
     2020.41889        -6.17182         5.88740
     2020.42168        -2.03161         6.01209
     2020.42431        -7.31330         6.89211
     2020.42704        -1.77106         5.71696
     2020.42984         3.04815         6.35118
     2020.43258         2.14739         4.80645
     2020.43531        -7.58137         4.79837
     2020.43805         4.26287         4.86924
     2020.44353         5.78735         4.83605
     2020.44591        -3.51118         5.37249
     2020.45448        -1.89668         4.74545
     2020.45616         3.18424         9.15539
     2020.45995         2.53480         4.67099
     2020.46253        -8.14785         4.99214
     2020.47364        -0.07899         4.79927
     2020.47526         5.27297        10.20944
     2020.47843         2.11294         6.53329
     2020.48123         5.15114         6.29198
     2020.48459        -1.72802         4.81900
     2020.49281         0.74970         4.82528
     2020.49555         3.08194         4.77774
     2020.49828        -0.18182         4.70867
     2020.50102        -0.83758         4.69342
     2020.51105        -5.78902         7.85196
     2020.51417        -0.51502         5.95917
     2020.51683         2.35527         6.17267
     2020.51949        11.93956         6.53149
     2020.52165        20.56317        19.17017
     2020.53157        -1.40019        14.07487
     2020.53340         1.06263         5.95379
     2020.53569         8.89016         8.38392
     2020.53870         3.52322         6.83829
     2020.54088         7.80683        13.60929
     2020.54968         0.89617         6.70373
     2020.55172        16.92686        91.22380
     2020.55480        -0.31511         9.04685
     2020.55791         6.57088         6.65439
     2020.56057        -1.31883         7.09754
     2020.56275        16.38278        15.26796
     2020.57216         7.87773         5.26574
     2020.57768         4.79819         4.83695
     2020.58042         3.35143         4.83605
     2020.58244         5.75613         7.04371
     2020.58590         0.55191         4.82618
     2020.58863         3.47415         4.98048
     2020.59057         1.57091         7.60079
     2020.59658         5.84505         5.88920
     2020.59913        -2.77359         6.19330
     2020.60780         3.69784         4.78223
     2020.61054         8.38408         4.86834
     2020.61327         3.23633         4.90692
     2020.61601         5.05757         4.81990
     2020.61875         0.23481         4.78312
     2020.62696        -2.48047         4.87552
     2020.62970        -2.62023         4.84771
     2020.63244         6.60202         4.86565
     2020.63504         8.25335         5.35724
     2020.64494        12.54598        15.76313
     2020.64829        -4.56716         6.53149
     2020.65080        -3.52278         7.85196
     2020.65420        -1.60096         5.16617
     2020.65708         7.45419         4.94549
     2020.66463        11.45834         7.44021
     2020.66683        11.53992        16.77233
     2020.66993         3.11293         8.06546
     2020.68720         5.44585         4.84233
     2020.68914         6.64459         8.28883
     2020.69518         3.15172         7.34692
     2020.70252         3.49300        11.12533
     2020.70850        -6.65084         7.01501
     2020.71104        -1.04047        10.87236
     2020.72709         8.40422        13.40656
     2020.74358         6.47463        11.29398
     2020.74627         8.90190        12.62163
     2020.74903        10.47213        11.76673
     2020.78463        22.31926        12.93919
     2020.78732        25.15254        13.88021
     2020.79001        13.14381        16.31124
     2020.79271        24.57707        21.31862
     2020.79539        43.35335       147.06397
     2020.80383        16.74193        11.51825
     2020.80650        12.30822        12.77234
     2020.80919        10.69449        15.18722
     2020.81183        47.47280       116.87074
     2020.82135         5.20268         4.83067
     2020.83778         9.42213         4.74275
     2020.84052        -2.51363         5.25408
     2020.84325         9.22761         5.09709
     2020.84599         9.46085         4.97420
     2020.84873        10.88309         4.87552
     2020.85694        13.79482         4.85130
     2020.86516        12.64654         5.10517
     2020.86744        20.34408         6.16280
     2020.87611        18.83951         5.04237
     2020.88255        11.36937         9.61827
     2020.88432        10.49023         4.94370
     2020.88706         3.70647         4.99303
     2020.89253         9.67096         4.83246
     2020.89527         8.79220         4.99842
     2020.89801        11.60844         4.95984
     2020.90075        13.63168         4.76608
     2020.90349         9.44392         4.76698
     2020.90622         9.81916         4.84771
     2020.90896        12.14840         4.99842
     2020.91170        10.69465         5.20923
     2020.91444         8.15989         5.07287
     2020.91718         4.87913         4.79927
     2020.91991         4.07537         4.83695
     2020.92265         0.54761         4.91858
     2020.92539         2.54785         4.81990
     2020.92813         0.93910         4.80465
     2020.93086         2.27834         4.79748
     2020.93360         6.65458         4.84950
     2020.93634         5.39082         4.84143
     2020.93908         2.94206         4.88898
     2020.94182         2.34430         4.98676
     2020.94455         3.79854         4.77595
     2020.94729        -0.13521         4.78223
     2020.95003        -0.16497         4.85220
     2020.95277        -7.69873         4.98137
     2020.95551         0.38751         4.85309
     2020.95824        -0.14425         4.83515
     2020.96098         0.68799         4.83425
     2020.96372         2.69823         5.12131
     2020.96646         2.22248         5.00559
     2020.96919         6.06972         4.85668
     2020.97193        -5.07204         4.78312
     2020.97467        -3.44180         5.12580
     2020.97741        -3.50656         5.01995
     2020.98015        -0.03632         5.11862
     2020.98288         1.40692         4.86117
     2020.98562        11.79917         4.85040
     2020.98836         5.26841         4.73109
     2020.99110         6.12465         4.72750
     2020.99384         3.72789         4.76518
     2020.99657         8.70313         4.81990
     2021.00998         7.46152         5.52768
     2021.01300         7.00058         4.81990
     2021.01574         1.25682         5.07108
     2021.01848         3.72506         4.85130
     2021.02064        14.45067         6.49292
     2021.02943        -0.99497         4.84681
     2021.03216         6.17127         4.76698
     2021.03981         2.00136         6.15114
     2021.05082         0.49629         6.03901
     2021.05903        -2.63698         6.04080
     2021.06656         4.13418        13.36260
     2021.07049         9.04665         4.77325
     2021.07323        17.03389         5.00380
     2021.07597        -1.72087         4.76877
     2021.08966        -1.59466         4.77684
     2021.09742        -0.87964         6.28390
     2021.10044         4.91042         5.14912
     2021.10882         2.51203         4.75531
     2021.11156        -4.10573         4.78850
     2021.12445         8.91599         9.87394
     2021.12770         2.96391         5.45861
     2021.13073        -0.41304         4.75442
     2021.13620        -4.97555         4.93742
     2021.13894        -1.51631         4.87552
     2021.14715        -7.74059         5.26574
     2021.14989        -2.21635         4.84143
     2021.15257        -1.13607         5.20026
     2021.15537         0.10414         5.05134
     2021.16352         2.31490         5.01636
     2021.16632         2.24210         4.85489
     2021.16906         5.33235         4.72392
     2021.17180         2.87959         4.73737
     2021.17453         1.72283         4.87911
     2021.17727         1.58307         4.87103
     2021.17995        -9.41665         5.18949
     2021.18240        -0.33423         5.93046
     2021.21315        -7.86597         5.41465
     2021.21560        -1.67955         4.76339
     2021.21834        -3.36131         4.85937
     2021.22108         3.06393         4.74365
     2021.22381        -1.42983         4.71853
     2021.22655        -1.21358         4.71315
     2021.22929         5.13166         4.83067
     2021.23203         5.17790         4.78581
     2021.23477        -2.84986         4.73199
     2021.23750        -2.26762         5.12580
     2021.24024         0.20662         4.94280
     2021.24298        -0.50613         4.70328
     2021.24572        -3.38689         4.70149
     2021.25119        -0.07641         4.86206
     2021.25393         2.27683         4.83336
     2021.25667        -1.96593         4.93293
     2021.25941        -1.24269         4.69611
     2021.26214         2.67656         4.79748
     2021.26488         2.16180         4.71853
     2021.26762         4.35604         4.80824
     2021.27036         0.82228         4.77595
     2021.27310         4.81752         4.76070
     2021.27583         0.14476         4.73468
     2021.27857         1.05600         4.78133
     2021.28080         3.96258         6.04439
     2021.28405         5.74949         4.94639
     2021.28679         3.06673         5.09978
     2021.28941         3.69504         5.00290
     2021.29774         7.26469         5.16258
     2021.30047         1.92594         4.88628
     2021.30316         8.83021         5.24421
     2021.30595         9.57442         4.98317
     2021.30738        27.24250       143.34745
     2021.31348        12.14158         6.78805
     2021.31690         7.15538         4.77325
     2021.31935         6.56681         5.67211
     2021.32186         3.47520         6.11077
     2021.32494        -2.23678         5.04058
     2021.32785        -8.02365         4.82977
     2021.33059         7.66159         4.90153
     2021.33333         7.59183         4.74455
     2021.33607         3.23708         4.80465
     2021.33880        -1.55468         4.85848
     2021.34114         2.72281         5.61739
     2021.34428        -1.47120         4.99573
     2021.34702        -2.55896         4.81721
     2021.34850         0.68609        18.43458
     2021.35523        -0.68123         5.03340
     2021.35763        -0.23477         5.43080
     2021.36071         0.13425         4.84233
     2021.36344        -4.13551         4.73917
     2021.36578        -4.90201         5.55729
     2021.37428        -1.91347         4.97958
     2021.37987         3.17294         5.07198
     2021.38261        -1.39782         5.01098
     2021.38535        -4.02658         4.86117
     2021.38763         1.44896         5.90534
     2021.39356        -1.23885         4.80196
     2021.39630        -1.86561         4.79209
     2021.39852         0.71796         5.98429
     2021.40177         6.63387         5.30431
     2021.40451         0.21311         4.85130
     2021.40617        -1.60495        10.11794
     2021.41524         1.83022         5.40209
     2021.41797        -5.05053         5.19308
     2021.42094         2.48956         4.99214
     2021.42362        -2.54216         4.93024
     2021.43737        -2.06999         4.76070
     2021.44010        -2.95875         4.99573
     2021.44284        -6.91751         4.91051
     2021.44558         1.22373         5.07377
     2021.44758        -5.42255         7.50929
     2021.45106         8.70822         5.39223
     2021.45379         4.34646         4.92934
     2021.45613         0.86496         5.65776
     2021.45927         7.05794         4.75980
     2021.46195         4.88822         4.88180
     2021.46366         1.92512        13.81023
     2021.47022         3.91791         5.08902
     2021.47296         1.77515         4.98765
     2021.47570         0.29939         4.85220
     2021.47843        -0.13837         4.87103
     2021.48117        -3.24613         4.79030
     2021.48391         2.09412         4.81721
     2021.48665         2.50636         4.80196
     2021.48939         2.02660         4.84143
     2021.49212         4.83984         4.81542
     2021.49486         6.12408         4.80645
     2021.49760        -3.19468         4.89705
     2021.50034        -2.01744         4.86475
     2021.50308         2.76681         4.84950
     2021.50581        -4.01695         4.83874
     2021.50855         3.29129         4.85489
     2021.51129         3.49353         4.87731
     2021.51403         4.10877         4.87193
     2021.51642         6.27823         5.59765
     2021.51950         4.93425         4.93293
     2021.52224         1.59050         4.81183
     2021.52498         3.20374         4.80017
     2021.52772         3.04098         4.76249
     2021.53045         0.70222         4.77236
     2021.53319         1.62146         4.78940
     2021.53553         2.23496         5.79231
     2021.53867         5.48294         5.17245
     2021.54141         3.42419         4.88718
     2021.54414        -4.81357         4.91589
     2021.54688        -5.21233         4.82349
     2021.54962        -1.72609         4.85040
     2021.55509         2.31439         4.95267
     2021.55732        -3.83504         6.23367
     2022.44490         6.10487         5.01008
     2022.44763         4.32612         4.88359
     2022.45037        -1.60264         4.85220
     2022.45311        -4.92840         5.01815
     2022.45585         6.82484         4.94190
     2022.45859       -11.69392         4.83246
     2022.46132        -2.42768         4.83605
     2022.46406        -3.75744         4.80555
     2022.46680        -4.41619         4.87373
     2022.46954         0.48605         4.78850
     2022.47227        -9.54271         4.85489
     2022.47501         6.60153         4.81900
     2022.47775         1.40377         4.91678
     2022.48049         0.22501         4.81452
     2022.48323         7.88725         4.83695
     2022.48596         9.44850         4.81811
     2022.48870        -1.91226         4.86027
     2022.49144        -2.37702         4.95626
     2022.49418        -1.43578         4.95715
     2022.49692        -5.11954         4.82798
     2022.49965        -6.77230         4.83246
     2022.50513        -1.30081         5.06031
     2022.50787        12.42043         5.12042
     2022.51060        -2.93233         5.02353
     2022.51334        -1.80709         4.83605
     2022.51608       -12.57285         4.85578
     2022.51882        -4.84861         4.83605
     2022.52156        -6.64336         4.85668
     2022.52350        -4.67061         7.75239
