# ================= DQRFIT RESULTS ================
# INPUT FILE: series/ODSA.rad
# OUTPUT: LDETRENDED
# FILTER FUNCTION: f(t)
# f(t)=+line(t)+annual(t)
# line(t)=+P 1+P 2*t
# annual(t)=+P 3*sin(2*pi*t+P 4)
# heav(t)=(t<0?0:1)
# TOTAL OBSERVATIONS MTOT= 1940
# INITIAL TIME INTERVAL= 2022.7488 - 2017.2054 =  5.5434
# TOTAL OBSERVATIONS AFTER PREFILTER M= 1921
# TIME-SPAN= 2022.7488 - 2017.2054 =  5.5434
# OBSERVATIONS: USED M=  1921 REJECTED MTOT-M=    19 %USED=   99.0206
# N=  4 PARAMETERS
# MAXSIG= 175.00000
# MAXRES=  41.74198
# SCALE FACTOR FOR LENGTHS: SCL=  10.00000
# SCALE FACTOR FOR SIGMAS: SCLSIG=   1.00000
# CHI^2=   1396.946 DOF=  1917 CHI^2/DOF=   0.72871
# RMS=      6.144 SDEV=      6.135 MEAN=    0.35264
#  P #       PARAMETER +-    SIGMA %error PARAMETER NAME
# P 1 =         5.33125 +-  159.562 ****** YZERO                              
# P 2 =        -0.00205 +-    0.079 ****** SLOPE                              
# P 3 =         4.37839 +-    0.168   3.84 ANNUAL AMPLITUDE                   
# P 4 =         2.29536 +-    0.035   1.54 ANNUAL PHASE                       
#       T            LDETRENDED       SIG_OBS
     2017.20539        -1.99757         6.54150
     2017.20739        -4.53756         4.47226
     2017.21013        -4.07556         4.52348
     2017.21286        -4.11655         4.48421
     2017.21560        -4.08455         4.49275
     2017.21834        -3.64254         4.48507
     2017.22108         4.79046         4.47311
     2017.22381        -0.42853         4.53458
     2017.22655        -4.06852         4.58324
     2017.22929        -4.07452         4.44068
     2017.23203        -0.23151         4.45946
     2017.23477        -4.93751         4.46885
     2017.23750        -6.56650         4.44324
     2017.24024        -3.43850         4.44494
     2017.24298        -4.64449         4.47994
     2017.24532        -2.42049         5.28920
     2017.25667        -4.55346         4.48250
     2017.25941       -11.15546         4.48336
     2017.26214        -4.76045         4.50470
     2017.26427         1.15255         6.31870
     2017.27427         4.33657        13.04630
     2017.27583        -7.73142         4.47824
     2017.27847        -9.73942         4.59092
     2017.28196        -4.65641         6.20687
     2017.28405        -8.55241         4.46116
     2017.28680        -6.82540         4.48250
     2017.28952        -8.86340         4.42616
     2017.29226        -1.80639         4.44409
     2017.29500        -7.58238         4.48592
     2017.29774        -5.78838         4.46031
     2017.30047        -9.89037         4.49531
     2017.33716        -9.47630        10.34792
     2017.33880        -7.81730         4.43812
     2017.34154        -2.53329         4.77189
     2017.34428        -8.79028         4.49275
     2017.34702        -4.28728         4.45007
     2017.34976        -7.60227         4.42104
     2017.35249        -8.81727         4.41507
     2017.35523       -10.42626         4.49104
     2017.35797        -9.52326         4.50897
     2017.36071        -6.27925         4.51836
     2017.36344        -2.50524         4.43726
     2017.36618        -7.93024         4.43812
     2017.36892        -1.14223         4.44494
     2017.37166        -6.57723         4.48165
     2017.37440        -5.05022         4.44580
     2017.37713        -2.92522         4.53970
     2017.37987       -12.33021         4.49958
     2017.38261        -4.92521         4.55336
     2017.38535        -8.96320         4.45690
     2017.38809        -3.76219         4.46372
     2017.39082        -6.63019         4.45946
     2017.39356         2.24082         4.57811
     2017.39630         2.80682         4.40141
     2017.39904        -1.87117         4.42616
     2017.40177        -5.96017         4.45092
     2017.40451        -2.34516         4.64555
     2017.40725        -3.46115         4.49360
     2017.40987        -2.38415         6.87528
     2017.41621       -15.88914        54.86309
     2017.41849        -8.47913         5.87907
     2017.42094        -6.90413         4.53031
     2017.42368        -4.98212         4.55250
     2017.42642        -6.16912         4.86750
     2017.42915        -0.04111         4.43982
     2017.43189        -1.15210         4.55250
     2017.43463        -5.24910         4.67031
     2017.43737         1.76391         4.45263
     2017.44010         1.23191         4.46116
     2017.44284         0.88892         4.46116
     2017.44558         0.92592         4.58580
     2017.44832        -3.90907         4.53628
     2017.45106         3.47093         4.52263
     2017.45379         1.59794         5.00494
     2017.45618        -5.41605         9.41317
     2017.50581         1.93805         8.35294
     2017.50855         4.14205         8.65172
     2017.51129         3.44306         8.58087
     2017.51403         5.03106         9.10842
     2017.51676         7.90107         8.48441
     2017.51950         4.63507         8.56721
     2017.52224        -7.64292         8.84465
     2017.52498         4.79409         8.47928
     2017.52772        -2.57891         9.11867
     2017.52994         3.47510         9.69829
     2017.53319         5.96510         8.41697
     2017.53593         8.82811         8.46221
     2017.53867        14.41211         9.00001
     2017.54141         7.94012         8.45794
     2017.54414        -0.63587         8.24538
     2017.54688         1.65013         8.61587
     2017.54962         0.44514         8.89586
     2017.55236        -3.91786         8.54501
     2017.55509         1.02115         8.58855
     2017.55783         0.01215         8.48611
     2017.56057        -4.96784         8.70379
     2017.56331         1.89816         8.41526
     2017.56605         0.91317         8.40160
     2017.56878         9.96418         8.76355
     2017.57152         7.01518         8.45880
     2017.57426         6.04219         8.42465
     2017.57700        -6.12881         8.54587
     2017.57974        -3.64580         8.51172
     2017.58247         0.24720         8.34953
     2017.58795         3.59021         8.31880
     2017.59069         9.95122         8.62611
     2017.59342        -7.83677         8.44087
     2017.59616         7.81423         8.39648
     2017.59890         9.19724         8.32990
     2017.60164         2.54924         8.36916
     2017.60438       -13.33675         8.52794
     2017.60711        -3.73075         8.46563
     2017.60985        -6.61874         8.37172
     2017.61259        13.11327         8.72599
     2017.61533        29.57527         8.86172
     2017.61807        -1.88972         8.30770
     2017.62080         1.23528         8.35209
     2017.62354         4.08229         8.37258
     2017.62628         0.87729         8.56550
     2017.62902         6.38530         8.47928
     2017.63175        -2.20070         8.80452
     2017.63449         7.29831         8.48697
     2017.63723         4.02132         8.36148
     2017.63997        13.53932         8.51514
     2017.64271         5.98933         8.61928
     2017.64544         4.96633         8.48441
     2017.64818         8.85634         8.37855
     2017.65092         5.73434         8.28038
     2017.65366         2.75035         8.49465
     2017.65639        21.77736         8.54160
     2017.65913        -2.23464         8.39050
     2017.66187        21.36337         8.54843
     2017.66461         3.20937         8.40160
     2017.66735         3.13438         8.59026
     2017.67008         9.44438         8.35294
     2017.67282         4.25839         8.20099
     2017.67556        -3.93961         8.39307
     2017.67830         3.95440         8.24880
     2017.68104         0.93441         8.47416
     2017.68377        10.51641         8.97098
     2017.68651        12.19042         8.56721
     2017.68925        20.99142         8.68501
     2017.69199        10.85343         8.43319
     2017.69472        10.38043         8.29404
     2017.69746        12.17844         8.40587
     2017.70020        11.05444         8.66453
     2017.70294        16.35645         8.46904
     2017.70568         8.91146         8.30002
     2017.70841         7.37246         8.26416
     2017.71115         9.95847         8.19502
     2017.71389        22.09047         8.79855
     2017.71663        11.72248         8.26587
     2017.71937        10.91448         8.46136
     2017.72210        12.23149         8.39307
     2017.72484        10.42150         8.26929
     2017.72758        10.99750         8.28294
     2017.73032        14.31651         8.39989
     2017.73305        15.45051         8.39221
     2017.73579        13.42752         8.44599
     2017.73853         5.86652         8.48697
     2017.74127         5.74453         8.49038
     2017.74401        11.64953         8.64233
     2017.74674        14.55454         8.40672
     2017.74948        12.31155         8.39989
     2017.75222        11.84455         8.42721
     2017.75496         3.01756         8.35721
     2017.75770         7.59256         8.34782
     2017.76043        11.79357        11.46022
     2017.76317         7.70957         8.53477
     2017.76591        22.86858         8.56636
     2017.77182         9.09659        10.31463
     2017.77412        12.32160         8.52453
     2017.77686         3.42260         8.52538
     2017.77960        13.28861         8.67306
     2017.78234         2.20461         8.25563
     2017.78507        16.98062         8.33160
     2017.78781         1.24062         8.29660
     2017.79055         8.33763         8.54245
     2017.79329        19.42064         8.49977
     2017.79603        -2.65536         8.46648
     2017.79876        17.21165         8.27014
     2017.80150        12.28465         8.27441
     2017.80424        11.63666         8.33672
     2017.80698        14.50666         8.39477
     2017.80971         7.86167         8.28380
     2017.81245        -2.47233         8.25051
     2017.81519        13.48368         8.44258
     2017.81793         0.18969         8.23770
     2017.82067         1.25369         8.23002
     2017.82340         5.56570         8.27441
     2017.82614         6.87570         8.38453
     2017.82888         1.14771         8.38453
     2017.83162        12.47871         8.39221
     2017.83436        10.34072         8.11136
     2017.83709        16.00273         8.17880
     2017.83983         3.28073         8.34868
     2017.84257         7.93274         8.33160
     2017.84531        11.76274         8.29233
     2017.84804        -3.53225         8.15404
     2017.85078        17.40075         8.37599
     2017.85352        -0.46624         8.38368
     2017.85626        16.23876         8.97611
     2017.85900        13.82377         9.01964
     2017.86173        10.51778         8.28465
     2017.86447        13.27678         8.25221
     2017.86721        19.06379         8.18648
     2017.86995         7.98879         8.33331
     2017.87269        14.39780         8.39563
     2017.87542         6.07880         8.34185
     2017.87816        17.79781         8.12929
     2017.88090        11.70481         8.26246
     2017.88364        18.08782         8.33843
     2017.88637        11.45183         8.34526
     2017.88911         5.81983         8.97525
     2017.89185         2.16584         8.38453
     2017.89459        18.59684         8.48953
     2017.89733        26.45285         8.32990
     2017.90006         3.78085         8.44685
     2017.90280         5.36086         8.55099
     2017.90554         6.94387         8.28636
     2017.90828        18.13787         8.30343
     2017.91102         5.41288         8.72257
     2017.91375         6.23088         8.92574
     2017.91649         6.05989         8.37770
     2017.91923         6.36589         8.31112
     2017.92197         1.17290         8.14807
     2017.92470         6.27990         8.19673
     2017.92744         6.81391         8.24453
     2017.93018         2.43492         8.35124
     2017.93292        -0.49708         8.25477
     2017.93566         1.35493         8.20356
     2017.93839        14.28493         8.20099
     2017.94113        -2.20706         8.13612
     2017.94387         5.64094         8.25819
     2017.94661         4.61395         8.24624
     2017.94935        11.61195         8.36746
     2017.95208         9.92796         8.94025
     2017.95482         0.22897         8.25904
     2017.95756         9.46897         8.21209
     2017.96030        14.29698         8.10453
     2017.96303         2.34298         8.22404
     2017.96577        12.48899         8.22234
     2017.96851         6.01599         8.23770
     2017.97125         4.12100         8.07551
     2017.97399         8.09501         8.13953
     2017.97672         2.41401         8.10112
     2017.97946        -0.33498         8.20953
     2017.98220         3.11602         8.14295
     2017.98494         2.24303         8.04563
     2017.98767         7.72203         8.05673
     2017.99041         2.43504         8.23087
     2017.99315        -2.89596         8.19502
     2017.99589         6.28705         8.38880
     2017.99863         0.56306         8.21038
     2018.00136       -11.00394         8.02856
     2018.00410        -1.33493         8.16258
     2018.00684        -2.05693         8.27953
     2018.00958        10.80508         8.18648
     2018.01232         2.98508         8.26246
     2018.01505        -2.16591         8.21465
     2018.01779         3.42609         8.13953
     2018.02053        -7.00090         8.40416
     2018.02327        -0.49489         8.17282
     2018.02600         7.10311         8.47331
     2018.02874        -6.22788         8.22746
     2018.03148        -3.44888         8.17112
     2018.03422        -5.82287         8.20868
     2018.03696        -9.51487         8.30941
     2018.03969        -7.26786         8.21380
     2018.04243        -8.04385         8.31794
     2018.04517        -7.52385         8.36148
     2018.04791        -9.23984         8.40246
     2018.05065         5.13016         8.25819
     2018.05338         5.47017         8.26929
     2018.05612         3.13617         8.30087
     2018.05886        -8.88182         8.18478
     2018.06160         3.00218         8.22490
     2018.06433        -1.31981         8.45624
     2018.06707         6.69020         8.54075
     2018.06981         1.89120         8.59026
     2018.07255        -2.44979         8.40502
     2018.07529        -3.29979         8.51087
     2018.07802       -12.77878         8.78062
     2018.08076         4.32422         8.64318
     2018.08350        -3.68377         8.47843
     2018.08624        -2.61476         8.44002
     2018.08898       -12.29076         8.57575
     2018.09171        -9.01675         8.55782
     2018.09445         8.22925         8.39989
     2018.09719         3.50326         8.52623
     2018.09993        -3.46074         8.56806
     2018.10266        -9.92073         8.59709
     2018.10540         5.55327         8.78233
     2018.10814         2.91828         8.68587
     2018.11088        -2.01471         8.54672
     2018.11362         7.23629         8.64318
     2018.11635        -1.79870         8.82245
     2018.11909        -2.36170         8.57148
     2018.12183        10.00831         8.78489
     2018.12457        33.15231         8.94367
     2018.12731         0.31132         8.57148
     2018.13004         4.72832         8.73196
     2018.13278         4.78833         8.72940
     2018.13552         2.45534         8.53136
     2018.13826         4.75634         8.66026
     2018.14099        -2.26665         8.50063
     2018.14373         2.87035         8.69952
     2018.14647        -1.33964         8.57745
     2018.14921         6.05436         8.47160
     2018.15195         2.85137         8.44258
     2018.15468         6.33138         8.38282
     2018.15742        -0.33862         8.54160
     2018.16016         4.15739         8.40246
     2018.16290        -2.10961         9.34574
     2018.16564        -1.44660         9.77341
     2018.16837        -3.00360         8.34441
     2018.17111         1.10541         8.42550
     2018.17385        -2.52759         8.50916
     2018.17659         1.88242         8.46136
     2018.17932        -4.04357         8.47587
     2018.18206         9.80843         9.16049
     2018.18480        -0.24256         8.98977
     2018.18754         1.11344         8.46648
     2018.19028        -3.65155         8.40075
     2018.19301        -1.91655         8.38368
     2018.19575        -0.80454         8.46819
     2018.19849         2.87846         8.58855
     2018.20123         9.75147         8.48782
     2018.20397        12.78548         8.67562
     2018.20670         4.70148         8.49636
     2018.20944        -1.93251         8.37941
     2018.21218         3.76349         8.57062
     2018.21492       -16.59950         8.55184
     2018.21765         2.84950         8.04307
     2018.22018        -1.39549         9.18354
     2018.22313         6.34952         7.98161
     2018.22587       -11.54148         8.21209
     2018.22861       -11.74047         8.99489
     2018.23134        -5.63747         8.09344
     2018.23408         0.62954         8.28977
     2018.23682        -5.28446         8.08746
     2018.23956        -6.17445         7.97563
     2018.24230        -5.85845         7.96795
     2018.24503       -10.13744         8.05844
     2018.24777        -0.56343         8.17965
     2018.25051        -3.97843         8.07039
     2018.25325         0.51258         8.19160
     2018.25598        -3.29042         7.93807
     2018.25872       -19.30141         7.84332
     2018.26146         0.87759         8.08148
     2018.26420         8.61160         8.13185
     2018.26694        -2.27439         7.98758
     2018.26967       -14.88539         7.98673
     2018.27241        -1.72838         8.10965
     2018.27515         1.43462         8.07124
     2018.27789        -4.74837         8.07551
     2018.28062        -3.88937         8.03368
     2018.28336       -11.53636         8.05502
     2018.28610        -4.04736         8.02173
     2018.28884        -2.98235         8.24453
     2018.29158        -1.38534         8.10368
     2018.29431         2.10466         8.37172
     2018.29705        -6.84533         8.17880
     2018.29979        -9.74833         8.13868
     2018.30253       -14.27032         8.12417
     2018.30527        -5.50832         8.09002
     2018.30800        -7.56631         8.03112
     2018.31074       -11.71131         8.20441
     2018.31348        -6.20430         8.19075
     2018.31622       -10.81629         8.04990
     2018.31895        -4.02529         8.84379
     2018.32169        -2.10728         8.35038
     2018.32443       -10.50228         8.10795
     2018.32717        -4.41327         8.28721
     2018.32991        -3.48727         8.13356
     2018.33264         0.59974         8.19673
     2018.33538        -4.15425         8.98806
     2018.33812        -1.23125         9.09818
     2018.34086        -2.72424         8.36148
     2018.34355        -2.99724         8.24795
     2018.34639       -13.97723         8.31965
     2018.34907       -10.71223         8.22063
     2018.35181        -8.38222         9.00342
     2018.35455         3.01478         8.33160
     2018.35728        -6.84121         8.36233
     2018.36002       -14.01720         8.43916
     2018.36276        -5.93820         8.41526
     2018.36550        -1.51119         8.20782
     2018.36824         1.39581         9.12379
     2018.37097       -10.18918         8.45965
     2018.37371        -3.05718         8.28038
     2018.37645       -15.00017         9.46183
     2018.37919        -7.53517         8.23514
     2018.38193       -17.63616         8.31880
     2018.38466         3.44785         8.21038
     2018.38740        -1.64615         8.25307
     2018.39014        -1.67714         8.35380
     2018.39288        16.01686         8.54245
     2018.39561        -5.00313         8.21380
     2018.39835         3.05087         8.21892
     2018.40109        -4.06712         8.21380
     2018.40383         0.37489         8.42721
     2018.40657        -2.21711         8.36490
     2018.40930         1.99090         8.55014
     2018.41204        12.53890         8.36916
     2018.41478        -0.26609         8.53562
     2018.42299        -1.16908         8.32563
     2018.42573        -3.18307         8.74562
     2018.42847         4.11694         8.17965
     2018.43121        -0.58306         8.58001
     2018.43394        28.55595         8.59879
     2018.43668        -0.88505         8.39221
     2018.43942         8.98296         8.18478
     2018.44216        -0.86604         8.27526
     2018.44490        -3.73203         8.17112
     2018.44763        -2.09203         8.48782
     2018.45037         3.59898         8.30173
     2018.45294        -1.47701         8.83440
     2018.50343       -10.55891        10.48877
     2018.50513        -1.36791         4.50470
     2018.50787         6.47910         4.54653
     2018.51060        -3.61190         4.58409
     2018.51334        -3.37989         4.54994
     2018.51608        -1.75888         4.43897
     2018.51882        -7.19788         4.50811
     2018.52156        -3.29887         4.52519
     2018.52429         0.23213         4.39885
     2018.52703        -3.38786         4.44580
     2018.52977        -3.40586         4.47141
     2018.53251         3.55615         4.47141
     2018.53525        -1.16085         4.43641
     2018.53798        -2.43284         4.46287
     2018.54072        -1.89683         4.40312
     2018.54346         4.60317         4.63275
     2018.54620        -1.74182         4.41251
     2018.54893        -0.76782         4.41165
     2018.55167        -0.01281         4.50555
     2018.55441        -3.53281         4.42702
     2018.55715        -5.88080         4.54909
     2018.55989        -2.59880         4.59860
     2018.56262        -2.42979         4.47738
     2018.56536         0.89422         4.45690
     2018.56810         0.17422         4.44580
     2018.57006         0.76123         6.41004
     2018.59000         0.07727         4.46116
     2018.59274         3.21727         4.42360
     2018.59548         1.69428         4.48080
     2018.59822         4.41428         4.43214
     2018.60095        -0.14171         4.46543
     2018.60369         0.82329         4.43812
     2018.60643         1.67630         4.47482
     2018.60917        -1.76269         4.58324
     2018.61190         3.66031         4.44751
     2018.61464         5.89032         4.44068
     2018.61738         2.13232         4.43812
     2018.62012         3.51033         4.41421
     2018.62286         5.15933         4.54824
     2018.62559         6.54734         5.63920
     2018.62833         4.47834         4.41763
     2018.63107        -1.35765         4.44324
     2018.63381         3.56936         4.58750
     2018.63655         1.75036         4.41507
     2018.63928         4.48437         4.59860
     2018.64202         7.07337         4.64811
     2018.64476         7.46938         4.45946
     2018.64750         3.45938         4.42531
     2018.65023         6.35039         4.57043
     2018.65297         1.64440         4.44153
     2018.65571         6.29340         4.43726
     2018.65845         4.32541         4.43982
     2018.66119         8.76041         4.47824
     2018.66392         4.01842         4.44751
     2018.66666         2.46642         4.45946
     2018.66940         3.10943         4.41080
     2018.67214         0.44143         4.53714
     2018.67488         2.69044         4.45177
     2018.67761         1.18845         4.41421
     2018.68035         1.20945         4.46372
     2018.68309        -3.02654         4.47653
     2018.68583         8.33746         4.52689
     2018.68856         0.94847         4.47226
     2018.69130         2.08847         4.49019
     2018.69404         2.56448         4.49616
     2018.69678         6.23449         4.41251
     2018.69952         2.39549         4.44068
     2018.70225        -1.79450         4.59519
     2018.70499        -0.66850         4.49104
     2018.70773         0.41751         4.53458
     2018.71047        -1.21649         4.43982
     2018.71321         1.53852         4.44068
     2018.71594         1.67552         4.42275
     2018.71868        -6.31047         4.46629
     2018.72142        -3.90746         4.41848
     2018.72416        -1.37246         4.45433
     2018.72689        -0.93645         4.45946
     2018.72963         1.67455         4.96908
     2018.73237        -3.85644         4.49019
     2018.73511        -3.18144         4.47226
     2018.73785         1.53057         4.43214
     2018.74058        -1.39843         4.41933
     2018.74332        -0.64642         4.45604
     2018.74606         0.77759         4.46543
     2018.74880         1.82959         4.57470
     2018.75154        -5.49640         4.63104
     2018.75427         5.26860         4.50299
     2018.75701         2.23461         4.50726
     2018.75975         1.19261         4.42787
     2018.76249        -1.54038         4.44238
     2018.76522        -0.46837         4.53031
     2018.76796         1.26763         4.47568
     2018.77070        -1.34736         4.47738
     2018.77344         2.38564         4.49531
     2018.77618         1.28065         4.51238
     2018.77891         7.46165         4.47055
     2018.78165        -0.41434         4.56019
     2018.78439         1.53566         4.47568
     2018.78713         0.99167         4.47226
     2018.78987        -6.27032         4.54653
     2018.79260        -4.77332         4.56787
     2018.79534         6.69569         4.46629
     2018.79808        -1.55531         4.45690
     2018.80082         1.47070         4.47311
     2018.80355         3.17270         4.43982
     2018.80629         2.83371         4.65921
     2018.80903         3.50471         4.51750
     2018.81177         4.22172         4.67201
     2018.81449         4.08073         4.50299
     2018.81724        -1.21227         4.54653
     2018.81998         3.35574         4.64641
     2018.82272         1.18874         4.62250
     2018.82546         3.93775         4.50897
     2018.82720        -0.58025         8.65172
     2018.83095         0.18576         4.57043
     2018.83367        -0.10623         4.52007
     2018.83641         6.86177         4.74116
     2018.83915         6.18778         4.54567
     2018.84188         1.12778         4.58836
     2018.84462        10.16479         4.52519
     2018.84736        -0.25721         4.47226
     2018.85009         1.53580         4.58238
     2018.85284         0.29280         4.54311
     2018.85557        -2.75219         4.58836
     2018.85833        -5.66018         4.53628
     2018.86105        -0.67018         4.50043
     2018.86379        -1.64117         4.67201
     2018.86653         2.56083         4.51921
     2018.86926        -5.30916         4.59006
     2018.87200        -0.23616         4.73775
     2018.87474         4.09285         4.54482
     2018.87748         2.35585         4.64982
     2018.88021        -0.61414         4.70616
     2018.88295         3.00087         4.61311
     2018.88569         4.07987         4.60287
     2018.88843         6.55088         4.63275
     2018.89117        -0.29012         4.64897
     2018.89390        -1.20511         4.61055
     2018.89664         0.67589         4.68055
     2018.89938        -1.65410         4.62421
     2018.90212        -0.92509         4.60372
     2018.90485         3.41491         4.56616
     2018.90759         0.81892         4.53458
     2018.91033         0.90692         4.59945
     2018.91307         7.11893         4.64982
     2018.91581         4.13393         4.56019
     2018.91854         9.85194         4.52775
     2018.92128         4.06594         4.50641
     2018.92402         2.81895         4.52092
     2018.92676         2.04296         4.54141
     2018.92950         5.62596         4.58494
     2018.93223         2.83297         4.66860
     2018.93497        -1.60803         4.56958
     2018.93756         2.10298         4.86238
     2018.94681        10.64400         7.38149
     2018.94866         0.69200         4.51494
     2018.95140        10.74501         4.69933
     2018.95414        16.54301         4.49189
     2018.95687        -0.74298         4.54482
     2018.95961         2.12702         4.64897
     2018.96235         5.13803         4.78896
     2018.96509         3.76503         4.67543
     2018.96783         5.17304         4.54397
     2018.97056         7.32005         4.65409
     2018.97330        -0.45495         4.68909
     2018.97604        -2.06694         4.62336
     2018.97878         0.48906         4.57214
     2018.98151        -7.01093         4.53714
     2018.98304         4.81507        14.70152
     2018.98636        -3.49592         6.79418
     2018.98973         1.93408         4.61141
     2018.99520         3.66810         4.56531
     2018.99794        -9.23690         4.66689
     2019.00068        -5.09589         4.63189
     2019.00342        -4.48189         4.64897
     2019.00616        -1.74188         4.68909
     2019.00889        -0.52188         4.66433
     2019.01163         1.61113         4.65067
     2019.01437         5.79814         4.56275
     2019.01585         6.70214        18.38587
     2019.01984        -5.21885         4.64299
     2019.02258        -4.60885         4.55080
     2019.02405        -4.72484        27.08198
     2019.02806        -3.90684         4.56616
     2019.03080        -2.50283         4.68055
     2019.03353        -5.86383         4.52860
     2019.03624       -18.62782        17.99319
     2019.03900         0.46719         5.70151
     2019.04175        -0.20581         4.79579
     2019.04449        -5.05480         4.88884
     2019.04722        -6.58680         5.09884
     2019.05817        -4.45178         5.01091
     2019.06091         0.21023         4.76335
     2019.06365        -1.88076         4.70531
     2019.06639        -1.54376         4.70531
     2019.06913        -5.86975         4.70018
     2019.07186        -4.14375         4.78128
     2019.07460        -5.42074         4.63275
     2019.07734        -4.19574         4.54226
     2019.08008         3.12127         4.53031
     2019.08284        -3.16072         4.73092
     2019.08557         0.84328         4.54909
     2019.08831        -3.52471         4.48592
     2019.09104         2.79729         4.57385
     2019.09380         4.70230         4.68738
     2019.09651         8.12030         4.57726
     2019.09924         1.95031         4.56787
     2019.10197        -5.00769         4.54994
     2019.10469        -0.05768         4.59092
     2019.10743         0.46933         4.51665
     2019.11019         0.01833         4.54311
     2019.11291         6.20534         4.64384
     2019.11567         6.45134         4.77189
     2019.11841        13.52435         4.56531
     2019.12115        14.42035         4.58580
     2019.12388        10.60236         4.67970
     2019.12662         7.87037         4.63872
     2019.12936         2.93837         4.63104
     2019.13210         0.94538         4.54824
     2019.13478         0.26038         4.62506
     2019.13757         4.51239         4.67458
     2019.13984         6.11739         5.83639
     2019.14305         2.35240         4.48507
     2019.14579        -1.75360         4.49531
     2019.14852         2.66341         4.50811
     2019.15126         2.38242         4.55592
     2019.15400        -3.12658         4.50726
     2019.15674        -0.25757         4.55677
     2019.15948        -2.58557         4.47482
     2019.16221        -5.36356         4.63958
     2019.16495        -2.21956         4.47738
     2019.16769       -10.00555         4.52519
     2019.17043        -6.20355         4.52519
     2019.17316        -5.14054         4.50470
     2019.17590        -1.18053         4.39543
     2019.17866        -0.72653         4.66348
     2019.18138         0.64648         4.58409
     2019.18357        -2.47752         5.99773
     2019.18628         1.75949         6.02590
     2019.18959        -2.31251         4.63616
     2019.19175         0.91850         6.12663
     2019.19507         5.52351         8.27868
     2019.19780       -12.24249         8.29831
     2019.20054        -5.15748         8.76782
     2019.20328       -11.65948         8.12587
     2019.20602       -10.88847         8.55953
     2019.20876       -10.25247         8.20697
     2019.21149       -10.85346         8.17282
     2019.21423        -1.66646         8.07209
     2019.21697        -2.25645         8.14209
     2019.21971       -10.29244         8.04136
     2019.22245        -2.98344         8.11648
     2019.22518        -7.03243         8.07722
     2019.22785       -19.32543         8.40587
     2019.23075       -14.92442         8.14551
     2019.23340        -7.12442         8.14551
     2019.23613        -8.33741         8.08746
     2019.23887       -10.16241         8.13697
     2019.24161        -4.34840         9.08537
     2019.24435        -8.51339         8.13782
     2019.24709        -5.97839         8.13356
     2019.24982        -5.32838         8.16856
     2019.25256        -6.64038         8.31709
     2019.25530        -4.99837         8.09002
     2019.25804         2.20363         8.20953
     2019.26078        -5.07036         8.28380
     2019.26349        -2.94635         8.54587
     2019.27806        -7.76432        13.59946
     2019.27994        -5.70732         8.05844
     2019.28268         0.77668         8.28721
     2019.28542        -1.25431         8.01831
     2019.28815         1.05770         8.09173
     2019.29089        -2.21830         8.11051
     2019.29363        -3.38529         8.04392
     2019.29637        10.00271         8.14807
     2019.29911        -2.44928         8.23770
     2019.30184        -4.80428         8.35209
     2019.30458        -4.20927         8.30429
     2019.30732        -4.28427         8.27099
     2019.31006        -8.97826         8.17539
     2019.31279        -4.29525         8.31624
     2019.31553        -2.77925         8.19673
     2019.31827        -7.78924         8.22148
     2019.32101        -3.29924         8.08661
     2019.32375       -14.28823         8.16600
     2019.32648        -2.47923         8.26331
     2019.32922       -10.78822         8.09344
     2019.33196         1.25179         8.16429
     2019.33470        -2.25621         8.14551
     2019.33744        11.97380         8.50404
     2019.34017        -6.04320         8.19331
     2019.34291        -3.68419         8.12417
     2019.34565        -4.75319         8.69184
     2019.34839        -9.70718         8.68416
     2019.35112        -7.29718         8.14295
     2019.35325        -9.39517        11.17169
     2019.36290       -19.19715        13.79068
     2019.36481         2.90285         8.14636
     2019.36755        -3.45714         8.21807
     2019.37029        -0.16514         8.17453
     2019.37303        -4.60813         8.07978
     2019.37577        -0.21612         8.21977
     2019.37850        -2.34712         8.30514
     2019.38124        -2.83111         8.06783
     2019.38398         0.79889         8.12929
     2019.38672        -8.74610         8.17112
     2019.38945       -15.04210         8.09856
     2019.39219        12.47791         8.28209
     2019.39493        -3.25209         8.12331
     2019.39767        -2.87208         8.31538
     2019.40041        -1.49807         8.05161
     2019.40314         2.76793         8.07209
     2019.40588        10.64894         8.98635
     2019.40862         9.59494         8.20014
     2019.41136       -10.50305         8.94794
     2019.41410        -4.52005         8.24709
     2019.41683        -6.09904         8.58599
     2019.41957        -0.40904         9.15367
     2019.42231         0.30997         8.22746
     2019.42505        -6.69602         8.31538
     2019.42778         7.15298         8.24368
     2019.43052        -1.22401         8.77209
     2019.43326        -1.65601         8.12758
     2019.43600        -6.03200         8.42721
     2019.43874        16.19300        10.16097
     2019.44147        -3.72199         8.75587
     2019.44421         0.73602         8.78830
     2019.44695         8.96102         8.83440
     2019.44969         3.27203         8.83952
     2019.45243         2.15303         8.89672
     2019.45516        -6.76796         8.92147
     2019.45791       -14.45996         8.93001
     2019.46064        -6.22895         9.03757
     2019.46338         3.72805         8.70123
     2019.46611        10.01306         8.80367
     2019.46885         0.66607         9.03074
     2019.47159         4.17107         9.05464
     2019.47336       -19.52593        22.67801
     2019.47707         4.50508         9.02989
     2019.47975        -5.34591         9.27830
     2019.48232         0.59209         9.35086
     2019.48528        -1.64590         9.37903
     2019.48802        -7.00090         8.96757
     2019.49076        -8.53189         8.59709
     2019.49350        -3.58988         8.57745
     2019.49623         0.18412         8.43319
     2019.49897        -2.19187         8.31197
     2019.50171        -8.68787         8.43746
     2019.50444        -2.27586         8.83525
     2019.50718        17.05814         8.53392
     2019.50992       -16.78185         8.43746
     2019.51266        -9.25184         8.33502
     2019.51540         1.94916         6.60382
     2019.51813        -3.15283         4.39287
     2019.52087        -7.13783         4.50128
     2019.52361        -8.51182         4.60202
     2019.52635        -5.97182         4.43641
     2019.52908        -6.47981         4.67970
     2019.53182        -6.99481         4.50897
     2019.53456        -7.05880         4.58921
     2019.53730        -0.63579         4.57811
     2019.54004         1.73221         4.58836
     2019.54277         3.66422         4.55080
     2019.54551        -2.32778         4.67543
     2019.54825        -1.20477         4.40312
     2019.55099        -6.82877         4.55080
     2019.55373        -3.26776         4.58153
     2019.55646        -1.51876         7.85783
     2019.55796       -19.36075        20.42694
     2019.56069         3.71125        23.14069
     2019.56348        -5.92874        24.54920
     2019.56617        -8.71674        20.67450
     2019.56889        14.71527        18.70086
     2019.57158        15.65028        63.10848
     2019.57710         4.41129        20.95364
     2019.57980        40.26329        61.44472
     2019.58256        37.33030        27.56258
     2019.59304        -6.60968        12.89350
     2019.59350       -41.19568       141.03286
     2019.59624       -25.61867        26.44003
     2019.59897       -42.52967        29.52170
     2019.60170       -12.41766        29.88706
     2019.60443       -11.63266        73.73981
     2019.60990        16.99235        77.92780
     2019.61537       -28.01963        97.68377
     2019.61811         5.44937       114.43576
     2019.66324        -8.15854         4.55763
     2019.66598        -1.53053         4.50641
     2019.66872         4.66547         4.43982
     2019.67145        -1.56152         4.41933
     2019.67419         6.33049        18.60440
     2019.67693        -3.08551         5.46079
     2019.67967        -6.14050         4.54055
     2019.68240        -5.45150         4.47994
     2019.68514        -9.49849         5.43774
     2019.68788         2.39751         4.51068
     2019.69062         1.17052         4.50299
     2019.69336        -7.69347         4.47994
     2019.69609        -0.48447         4.42616
     2019.69883        -5.86146         4.82652
     2019.70157         0.29754         4.42616
     2019.70431         0.32755         4.47311
     2019.70705        -3.57345         4.42616
     2019.70978        -1.09744         4.45177
     2019.71252        -2.67344         4.40482
     2019.71526         2.88257         4.36214
     2019.71800        -1.68642         4.61055
     2019.72073         2.51158         4.70275
     2019.72347        -0.40241         4.41933
     2019.72621        -3.81841         4.47482
     2019.72895        -1.03040         4.48933
     2019.73169         2.81860         4.42190
     2019.73442         1.35561         4.51750
     2019.73716         2.53261         4.52092
     2019.73990         2.33762         4.59945
     2019.74264        -0.95737         4.45348
     2019.74538         2.36863         4.37238
     2019.74811         2.10364         4.48592
     2019.75085        -0.12436         4.51494
     2019.75359        -0.36635         4.64897
     2019.75633         1.45065         4.53799
     2019.75906         0.14466         4.43299
     2019.76180        -0.79433         4.46031
     2019.76454         3.11367         4.53628
     2019.76728         6.95668         4.62336
     2019.77002        -1.23432         4.52433
     2019.77275         0.10769         4.62250
     2019.77549         0.00569         4.56275
     2019.77823         2.93870         4.52263
     2019.78097         4.13570         4.54226
     2019.78371         1.88171         4.58921
     2019.78644         1.77072         4.52007
     2019.78918         3.16572         4.67970
     2019.79192         5.16873         4.54397
     2019.79466         7.01973         4.74799
     2019.79739        -0.81726         4.51238
     2019.80013         3.16374         4.48592
     2019.80287        -2.71425         4.48250
     2019.80561         0.71576         4.67884
     2019.80835        -2.38224         4.49019
     2019.81108        -1.02023         4.51665
     2019.81382         0.11277         4.54994
     2019.81656         4.21578         4.52092
     2019.81930        -1.61722         4.48250
     2019.82203        -3.95721         4.49787
     2019.82477        -3.15421         4.52519
     2019.82751        -6.13120         4.50470
     2019.83025        -1.98319         4.62165
     2019.83299        -1.02219         4.56616
     2019.83572        -1.31118         4.50811
     2019.83846         3.86782         4.47909
     2019.84120         1.22683         4.49616
     2019.84394         0.00683         4.65921
     2019.84668        -4.58116         4.53885
     2019.84941         1.44584         4.50641
     2019.85215         1.76585         4.49360
     2019.85489        -5.19014         4.59689
     2019.85763        -0.81014         4.52092
     2019.86036        -1.66013         4.54397
     2019.86310        -1.46613         4.55080
     2019.86584         6.88888         4.61055
     2019.86858         3.09788         4.50982
     2019.87132         0.64689         4.60543
     2019.87405         3.56790         4.47568
     2019.87679         1.58190         4.60458
     2019.87953         2.28491         4.52689
     2019.88227         8.30391         4.56616
     2019.88501         9.76792         4.48080
     2019.88774         5.75492         4.65665
     2019.89048        10.98693         4.49616
     2019.89322        10.18393         4.66775
     2019.89596         4.24894         4.48080
     2019.89869         6.40595         4.47141
     2019.90143         7.49495         4.47141
     2019.90417         6.17596         4.48250
     2019.90691         4.91396         4.49104
     2019.90965         3.26797         4.44409
     2019.91238         5.21497         4.45946
     2019.91512        10.16898         4.46287
     2019.91786        12.74498         4.43982
     2019.92060         8.79199         4.48165
     2019.92334         8.66100         4.51750
     2019.92607         6.87100         4.46885
     2019.92881         3.44301         4.50214
     2019.93155         4.59401         4.47568
     2019.93429         5.91802         4.45519
     2019.93702         3.48102         4.45263
     2019.93976         4.74603         4.45433
     2019.94250        -0.48896         4.51580
     2019.94524         4.70804         4.52519
     2019.94798        -6.07395         4.47311
     2019.95071         3.88605         4.68055
     2019.95345         6.22106         4.47397
     2019.95619         5.67806         4.47226
     2019.95893         2.10607         4.48677
     2019.96167         6.21207         4.50385
     2019.96440         4.40408         4.58153
     2019.96695         1.42809         5.03055
     2019.96988         2.15609         4.48080
     2019.97262         2.90010         4.58409
     2019.97535         4.45110         4.45263
     2019.97809         1.52611         4.46116
     2019.98083         3.40511         4.46458
     2019.98357         1.90912         4.47824
     2019.98631         1.30512         4.45690
     2019.98904         0.28013         4.51153
     2019.99178         3.58814         4.46885
     2019.99452        -0.35086         4.46116
     2019.99726         3.66015         4.50299
     2020.00000        14.02215         4.49616
     2020.00273         7.78516         4.51494
     2020.00547         2.55216         4.62592
     2020.00821         5.01217         4.61226
     2020.01095         2.71718         4.62080
     2020.01368         0.09818         4.59689
     2020.01642         2.43519         4.61226
     2020.01916         3.18019         4.59604
     2020.02190         1.33720         4.63360
     2020.02464        -0.27580         4.68994
     2020.02737         3.80021         4.46202
     2020.03011         3.96921         4.50299
     2020.03285        -1.79178         4.52860
     2020.03559         1.26723         4.43470
     2020.03833        -0.52777         4.43470
     2020.04106        -0.47276         4.61653
     2020.04380         0.15024         4.56531
     2020.04654         0.95225         4.44665
     2020.04928        -1.40175         4.41165
     2020.05201        -0.77674         4.44238
     2020.05475         0.37027         4.49019
     2020.05749        -4.27773         4.46202
     2020.06023        -7.44972         4.41592
     2020.06297        -7.52672         4.47226
     2020.06570        -1.60571         4.46458
     2020.06844        -3.31571         4.53287
     2020.07118        -1.47970         4.50128
     2020.07392        -5.75770         4.48165
     2020.07666        -4.01969         4.45860
     2020.07939        -4.50168         4.46970
     2020.08213        -3.85168         4.49958
     2020.08487         4.88133         4.53628
     2020.08761        -1.18267         4.49702
     2020.09034         2.04934         4.44751
     2020.09308         0.66334         4.46372
     2020.09582         6.55635         4.44921
     2020.09856        -1.98465         4.46629
     2020.10130       -10.63964         4.47994
     2020.10403         1.36437         4.52007
     2020.10677        -3.51863         4.50982
     2020.10951        -7.31662         4.47226
     2020.11225        -0.17262         4.48336
     2020.11498         0.50139         4.46629
     2020.11772        -2.25661         4.59860
     2020.12046        -2.02260         4.58409
     2020.12320         1.97441         4.44494
     2020.12594        -3.27759         4.47226
     2020.12867        -3.50858         4.47653
     2020.13141        -6.46158         4.51580
     2020.13415        -8.96357         4.43299
     2020.13689        -1.81457         4.58836
     2020.13963         0.08144         4.55763
     2020.14236        -0.94056         4.47482
     2020.14510         4.47845         4.59775
     2020.14784        -3.84654         4.54055
     2020.15058        -7.87854         4.54994
     2020.15331        -7.74653         4.51153
     2020.15605        -8.82753         4.48165
     2020.15879        -1.08852         4.54653
     2020.16153        -0.09252         4.58836
     2020.16427         0.45649         4.52433
     2020.16700         5.63349         4.53628
     2020.16974         2.71250         4.49958
     2020.17248        -1.25949         4.79323
     2020.17522        -0.51749         4.81713
     2020.17796         0.37552         4.54397
     2020.18069        -5.26848         4.48507
     2020.18343         0.86853         4.48677
     2020.18617        -3.35847         4.49104
     2020.18891        -2.74546         4.60970
     2020.19164        -2.96245         4.65323
     2020.19438        -1.25445         4.61141
     2020.19712        -3.68644         4.62250
     2020.19986        -5.40744         4.59092
     2020.20260        -1.87943         5.40018
     2020.21355        -5.15441         5.00152
     2020.21629        -2.74640         4.83933
     2020.21901        -6.89340         4.72665
     2020.22179        -5.54039         4.75226
     2020.22450         2.74261         4.59689
     2020.22724        -2.18038         4.74799
     2020.22996         0.70062         4.63958
     2020.23271         0.70563         4.62165
     2020.23545        -1.76436         4.58153
     2020.23819        -0.25036         4.57299
     2020.24093        -1.28535         4.65153
     2020.24366        -2.06435         4.66262
     2020.24640         2.18466         4.54824
     2020.24914        -6.47334         4.55848
     2020.25188        -4.54933         4.59604
     2020.25462        -2.05633         4.59945
     2020.25735        -1.20532         4.63189
     2020.26009         7.65569         4.55506
     2020.26283        -0.98131         4.49958
     2020.26557        -1.93530         4.54482
     2020.26830        -1.21930         4.59092
     2020.27104        -1.83329         4.59604
     2020.27378         1.80271         4.53202
     2020.27652        -3.13828         4.55080
     2020.27929        -1.84928         4.68909
     2020.28199        -0.53627         7.08955
     2020.28473        -6.76926         6.79333
     2020.28747        -4.37926         7.03747
     2020.29021        -4.10225         4.54738
     2020.29295        -4.34025         4.57555
     2020.29568         2.30476         4.57555
     2020.29842         1.38276         4.53543
     2020.30116         1.09477         4.53287
     2020.30390         0.06378         4.55336
     2020.30663        -2.86622         4.59092
     2020.30937        -5.52821         4.63701
     2020.31211        -6.05221         4.63616
     2020.31485        -4.51220         4.57043
     2020.31759        -1.06720         4.44921
     2020.32032         0.21481         4.87006
     2020.32306        -3.56619         4.51580
     2020.32580        -5.99018         4.51665
     2020.32854        -8.27317         4.54738
     2020.33128        -2.56717         4.54397
     2020.33401        -3.14116         4.57555
     2020.33675        -0.65316         4.62165
     2020.33949        -4.46115         4.50385
     2020.34223        -6.61115         4.59604
     2020.34496        -7.22114         4.56616
     2020.34770        -6.60014         4.49702
     2020.35044        -4.59913         4.58580
     2020.35318       -10.55012         4.61823
     2020.35592        -4.37912         4.62080
     2020.35865        -5.66911         4.48507
     2020.36139         4.47789         4.54226
     2020.36413        -0.90010         4.63531
     2020.36687        -1.92510         4.54141
     2020.36961        -4.77309         4.55677
     2020.37234        -0.90908         4.47311
     2020.37508         0.05692         4.49189
     2020.37782        -5.57607         4.51580
     2020.38056        -6.23707         4.47482
     2020.38329        -3.76806         4.55165
     2020.38603        -1.52406         4.53885
     2020.38877         0.81195         4.55592
     2020.39151        -4.29005         4.46543
     2020.39425        -5.53404         4.47653
     2020.39698        -5.75403         4.55763
     2020.39972        -9.69003         4.49104
     2020.40189         4.98098         5.93371
     2020.40605        -9.90502         8.04222
     2020.40794        -8.26201         4.46287
     2020.41067        -1.91001         5.18762
     2020.41341        -6.54100         5.19530
     2020.41615        -3.30700         4.49702
     2020.41889        -2.63999         4.49958
     2020.42122        -1.63698         5.40615
     2020.42441        -3.15998         4.93921
     2020.42710        -4.13897         4.69079
     2020.42984        -6.01397         4.62762
     2020.43258        -1.25396         4.61823
     2020.43531        -4.58596         4.61055
     2020.43805        -8.16195         4.54824
     2020.44079        -5.13394         4.54824
     2020.44353        -3.51994         4.62165
     2020.44626        -5.00293         4.54994
     2020.44900        -9.56093         4.65494
     2020.45174         2.84808         4.52604
     2020.45448        -3.47792         4.51580
     2020.45722        -5.63491         4.47482
     2020.45995         0.62909         4.54397
     2020.46269        -6.24790         4.57470
     2020.46543        -7.72689         4.52604
     2020.46817       -11.15889         4.56702
     2020.47091        -6.55288         4.65067
     2020.47364        -8.86188         4.47738
     2020.47638        -9.50187         4.60031
     2020.47912        -0.72487         4.72238
     2020.48186         0.18314         4.57641
     2020.48459        -7.06285         4.66262
     2020.48733        -5.52885         4.74031
     2020.48950         3.26716         5.99346
     2020.50400        -7.94182         5.02116
     2020.50650       -12.01681         4.48933
     2020.50924       -11.83380         4.48165
     2020.51197        -7.61880         4.48080
     2020.51471        -4.05279         4.57299
     2020.51745        -1.16079         4.48165
     2020.52019        -0.37978         4.67543
     2020.52292        -1.78578         4.64641
     2020.52566        -2.53377         4.68994
     2020.52840         0.65823         4.73433
     2020.53114         1.17624         4.62080
     2020.53388        -5.19075         4.57214
     2020.53661        -4.97275         4.61653
     2020.53935        -8.67074         4.64384
     2020.54209        -3.13374         4.69421
     2020.54483        -1.93773         4.66604
     2020.54757        -5.24573         4.57641
     2020.55030        -5.28772         4.56360
     2020.55304        -1.45571         4.59689
     2020.55578        -7.79971         4.66519
     2020.55852         2.40630         4.77189
     2020.56125        -2.73270         4.70872
     2020.56399        -0.54569         4.57299
     2020.56673        -7.93969         4.56445
     2020.56947         1.39932         4.58921
     2020.57221        -2.01968         4.87860
     2020.57494        -5.63667         4.79153
     2020.57768        -4.13066         4.67628
     2020.58042       -10.71966         4.66177
     2020.58316        -9.87265         4.77104
     2020.58590        -1.64465         4.61397
     2020.58863        -5.61164         4.67116
     2020.59137        -3.73764         4.90591
     2020.59411         3.13037         4.54055
     2020.59685        -7.79063         4.93408
     2020.59958        -5.34762         4.67714
     2020.60232        -3.50761         4.65153
     2020.60506        -0.30161         4.61226
     2020.60780         0.28040         4.56616
     2020.61054         1.03840         4.68567
     2020.61327         2.88541         4.67031
     2020.61601        -4.70459         4.61823
     2020.61875        -2.24258         4.60628
     2020.62149        -6.63257         4.64555
     2020.62423         0.69743         4.64299
     2020.62696        -7.89456         4.68567
     2020.62970        -1.47656         4.83591
     2020.63244        -6.62355         4.77957
     2020.63518        -0.00855         4.80006
     2020.63791        -5.64554         4.73860
     2020.64065        -4.38154         4.68653
     2020.64339        -4.97853         4.60543
     2020.64613        -2.84952         4.72750
     2020.64887        -0.99052         4.72323
     2020.65160         2.15449         4.61738
     2020.65434        -1.10751         4.61226
     2020.65708         2.58850         4.58494
     2020.65982         3.94050         4.64641
     2020.66256        -1.26149         4.59860
     2020.66529         4.28452         4.64811
     2020.66803         0.77752         4.62250
     2020.67077        -0.34547         4.77872
     2020.67351         3.12853         4.61311
     2020.67624        -6.27646         4.59263
     2020.67898        -4.38546         4.68653
     2020.68172        -4.68745         4.64641
     2020.68446        -2.48545         4.92128
     2020.68720        -0.44744         4.59348
     2020.68993        -0.38043         4.66519
     2020.69267        -2.19343         4.67201
     2020.69541         0.97558         4.83933
     2020.69815        -3.47342         4.75055
     2020.70089        -0.68841         4.60714
     2020.70362        -2.94641         4.64641
     2020.70636        -6.01140         4.85128
     2020.70910        -1.74040         4.83762
     2020.71184        -0.04939         4.75738
     2020.71457         0.91062         4.75653
     2020.71731         0.50562         4.74884
     2020.72008        -3.72137         4.80177
     2020.72279         1.30863         4.64641
     2020.72553         1.36864         4.74287
     2020.72826         8.09064         4.85811
     2020.73100         5.49865         4.72921
     2020.73374        -0.07834         4.67287
     2020.73648         0.62466         4.66775
     2020.73921         1.32467         4.62677
     2020.74195         2.69667         4.61397
     2020.74469         2.01168         4.61397
     2020.74743        -1.82332         4.64811
     2020.75017         0.07769         4.63019
     2020.75290        -1.22231         4.68738
     2020.75564        -1.62730         4.59775
     2020.75838         6.98471         4.62677
     2020.76112         6.10271         4.60031
     2020.76386         6.95072         4.57726
     2020.76659        10.20872         4.54738
     2020.76933        10.49073         4.66177
     2020.77207         8.58873         4.62165
     2020.77481         7.15074         4.61653
     2020.77754         9.19474         4.60714
     2020.78028        20.73075         4.72836
     2020.78295         4.81176         4.78043
     2020.78585         7.28376         4.82652
     2020.78850         5.92777         4.60202
     2020.79123         3.95877         4.67201
     2020.79397         8.37678         4.68994
     2020.79671         1.24878         4.62933
     2020.79945         9.96179         4.62848
     2020.80219         7.75280         4.73433
     2020.80492        11.53380         4.58921
     2020.80766         5.29581         4.62592
     2020.81040         6.28881         4.67458
     2020.81314         7.96582         4.58580
     2020.81587         3.79782         4.63787
     2020.81861         6.84683         4.57726
     2020.82135         7.73883         4.55848
     2020.82409         9.58184         4.58494
     2020.82683         9.43885         4.60458
     2020.82956        14.13685         4.76250
     2020.83230         9.90686         4.63275
     2020.83504         7.00086         4.57811
     2020.83778         8.89287         4.49872
     2020.84052        13.31687         4.63701
     2020.84325         8.26688         4.72238
     2020.84599         8.43988         4.70189
     2020.84873         9.15189         4.49872
     2020.85147         6.05090         4.51409
     2020.85420        15.33690         4.52007
     2020.85694        13.67191         4.61823
     2020.85968        15.96591         4.56019
     2020.86242        16.70392         4.58580
     2020.86516        11.73292         4.63531
     2020.86789        13.38793         4.68823
     2020.87063        20.79794         4.82823
     2020.87337        12.99194         4.62250
     2020.87611        14.26295         4.69079
     2020.87885        10.48995         4.69165
     2020.88158        14.15396         4.68311
     2020.88432        14.32796         4.63531
     2020.88706         7.63597         4.90847
     2020.88980         6.66297         4.69250
     2020.89253        11.02598         4.65323
     2020.89527        19.01699         4.77957
     2020.89801         8.41499         4.74714
     2020.90075        11.80000         4.62506
     2020.90349        11.61400         4.62165
     2020.90622         5.30101         4.65580
     2020.90896        15.22001         4.78555
     2020.91170        10.76702         4.89311
     2020.91444        15.32303         4.76592
     2020.91718         6.64103         4.64726
     2020.91991        -1.19796         4.61141
     2020.92265         3.17004         4.61994
     2020.92539         1.70405         4.70360
     2020.92813         0.09605         4.59775
     2020.93086         2.72906         4.63445
     2020.93360         2.14906         4.65409
     2020.93634         4.80007         4.67031
     2020.93908         4.14608         4.70360
     2020.94182        -2.78892         4.58750
     2020.94455         5.71909         4.62592
     2020.94729        -0.37291         4.60116
     2020.95003        -2.33990         4.64641
     2020.95277        -5.04490         4.58836
     2020.95551         1.07511         4.58494
     2020.95824         1.30711         4.55848
     2020.96087         3.90212         5.40018
     2020.96372        -3.64687         4.62506
     2020.96646        10.67613         4.64128
     2020.96919         4.13114         4.66945
     2020.97193        -2.19886         4.53372
     2020.97467         9.65715         4.68482
     2020.97741        -0.08385         4.68055
     2020.98015        -2.37084         4.76506
     2020.98288         0.65517         4.69933
     2020.98562        10.77217         4.56616
     2020.98836         7.94918         4.61141
     2020.99110         8.34718         4.58580
     2020.99384         4.20419         4.55250
     2020.99657        14.67819         4.51153
     2021.00205         2.64520         4.55933
     2021.00479        17.12821         4.62250
     2021.00752         8.94022         4.54567
     2021.01026         7.43522         4.55763
     2021.01300         7.67223         4.56531
     2021.01574         6.05023         4.80348
     2021.01848         2.73624         4.51238
     2021.02121         3.25924         4.55336
     2021.02395         1.72325         4.52860
     2021.02669         0.54925         4.68909
     2021.02943         0.75326         4.56275
     2021.03216         1.85727         4.52775
     2021.03490         7.90927         5.33701
     2021.03764         2.11828         4.59860
     2021.04038         3.25228         4.58665
     2021.04312         4.37529         4.55421
     2021.04585         3.10529         4.56445
     2021.04859        -2.00570         4.50555
     2021.05133        -0.25969         4.59348
     2021.05407         2.63631         4.93408
     2021.05681         3.32932         4.64299
     2021.05954        -4.35368         4.54055
     2021.06228         3.25533         4.52604
     2021.06502         2.60933         4.58494
     2021.06776         9.45334         4.54141
     2021.07049         7.03434         4.54994
     2021.07323         2.89635         4.51580
     2021.07597        -3.18964         4.55592
     2021.07871         1.06436         4.54055
     2021.08145        -1.41463         4.53885
     2021.08418        -4.15863         4.55506
     2021.08692         3.52338         4.57043
     2021.08966         1.62938         4.55677
     2021.09240        -4.32561         4.50128
     2021.09514        -3.82860         4.68994
     2021.09787         0.43840         4.65409
     2021.10061         5.66341         4.58324
     2021.10335         5.65441         4.53714
     2021.10609        -0.34558         4.56702
     2021.10882        -0.27558         4.49189
     2021.11156        -1.72157         4.56360
     2021.11430        -3.64857         4.59006
     2021.11704         1.48544         4.56872
     2021.11978         0.39045         4.56616
     2021.12251        -2.69355         4.49958
     2021.12525         3.39146         4.51494
     2021.12799         4.73446         4.50811
     2021.13073         8.37747         4.50641
     2021.13347         7.00547         4.58494
     2021.13620         5.37748         4.57641
     2021.13894         6.47948         4.46543
     2021.14168         2.52449         4.58665
     2021.14442         8.01650         4.53287
     2021.14715         7.58650         4.66519
     2021.14989        -4.65649         4.50385
     2021.15263         0.58051         4.68567
     2021.15537         1.59852         4.66006
     2021.15811         2.96152         4.75823
     2021.16084         2.12753         4.63787
     2021.16358         2.16654         4.65750
     2021.16632         4.46954         4.71726
     2021.16906         4.02255         4.55250
     2021.17180        -0.12045         4.55080
     2021.17453        -0.97244         4.65323
     2021.17727         2.22056         4.67287
     2021.18001        -4.59443         4.66860
     2021.18275        -4.35343         4.74628
     2021.18540        -3.95142         4.74116
     2021.18824        -0.41841         4.54397
     2021.19096        -1.32241         4.50726
     2021.19370        -1.10240         4.64641
     2021.19644        -4.58640         4.52604
     2021.19917        -4.46239         4.53543
     2021.20191        -1.37239         4.54397
     2021.20465         0.93162         4.52177
     2021.20739        -2.03138         4.52689
     2021.21013         2.05663         4.70189
     2021.21286        -0.71336         4.69165
     2021.21560         0.99764         4.55933
     2021.21834         1.04165         4.64043
     2021.22108        -2.80235         4.52348
     2021.22381        -7.03434         4.52092
     2021.22655         0.03766         4.56872
     2021.22929         7.02367         4.56531
     2021.23203         6.19168         4.50299
     2021.23477        -4.85332         4.50641
     2021.23750        -6.14931         4.55763
     2021.24024        -6.23431         4.61994
     2021.24298         1.49770         4.57982
     2021.24572        -7.01730         4.52519
     2021.24846        -4.19329         4.62080
     2021.25119         1.09571         4.52689
     2021.25393        -3.05228         4.66092
     2021.25667       -13.71327         4.54567
     2021.25941         2.34773         4.54397
     2021.26214        -1.71326         4.59860
     2021.26488         2.12374         4.51665
     2021.26762         5.03975         4.59604
     2021.27036         0.04975         4.70787
     2021.27310         3.53276         4.65067
     2021.27583        -3.43324         4.51238
     2021.27857        -3.90323         4.62506
     2021.28131        -3.04822         4.61567
     2021.28405        -3.86622         4.62933
     2021.28679        -4.79221         4.62592
     2021.28952        -1.27821         4.74287
     2021.29226        -4.05120         4.64470
     2021.29500         0.97280         4.65238
     2021.29774        -3.15719         4.84616
     2021.30047        -1.30418         4.72238
     2021.30321         3.99982         4.63445
     2021.30595         6.94983         4.79494
     2021.30869         8.06783         4.74031
     2021.31143         1.55684         4.53031
     2021.31416         9.12084         4.59177
     2021.31690         8.19685         4.59006
     2021.32021         2.61886         6.42370
     2021.32295         4.72086         6.28797
     2021.32569        -2.45113         6.06261
     2021.32842         3.43887         6.30334
     2021.33116         7.54988         6.01651
     2021.33390         5.10388         5.93712
     2021.33664        -0.17111         5.96102
     2021.33937        -1.97310         5.91151
     2021.34211        -3.76610         5.98663
     2021.34485        -1.74409         6.01139
     2021.34759        -9.61309         6.12065
     2021.35033         0.51392         6.21541
     2021.35306        -3.67508         6.10444
     2021.35580         0.84393         5.93456
     2021.35854        -3.19707         6.03273
     2021.36128        -4.56106         6.01139
     2021.36402        -3.03905         5.99688
     2021.36653       -11.18505         5.47444
     2021.36892        -1.44304         4.53116
     2021.37166         0.09296         4.55250
     2021.37440        -6.07203         4.62336
     2021.37770         1.00297         6.17870
     2021.38044        -0.11602         6.34004
     2021.38318        -1.94802         6.61833
     2021.38592        -0.47701         6.17443
     2021.38866        -1.83700         6.15822
     2021.39214        -4.80900        81.07264
     2021.39413         1.55701         6.13431
     2021.39687        -5.08599         6.20175
     2021.39938         0.73502         5.46847
     2021.40177         0.99202         4.91189
     2021.40451         5.37303         4.77701
     2021.40782        -0.88796         6.12919
     2021.41056         1.94304         6.25724
     2021.41330         0.22905         6.27943
     2021.41603        -5.79095         6.22736
     2021.41877        -7.93694         6.20943
     2021.42151        -1.60494         6.34687
     2021.42425         5.26607         6.16334
     2021.42699         4.29107         6.25809
     2021.42972         2.18608         6.13602
     2021.43246         3.05509         6.19236
     2021.43520        -4.00391         6.13858
     2021.43794        -6.52290         6.24699
     2021.44068        -4.27690         6.16590
     2021.44341        -7.84689         6.17529
     2021.44615        -5.38589         6.23334
     2021.44889        -5.13288         6.16675
     2021.45163        -6.98188         6.37077
     2021.45436        -3.79487         6.49541
     2021.45710        -0.45686         6.28285
     2021.45984         2.50614         6.11468
     2021.46258        -7.34485         6.10614
     2021.46527        -2.89185         6.34858
     2021.46805        -0.85784         6.01992
     2021.47079        -6.35284         6.05748
     2021.47353         1.03817         6.17017
     2021.47627       -11.06782         6.10529
     2021.47901        -9.35782         6.33834
     2021.48174        -9.01281         6.15139
     2021.48448        -4.33981         6.07968
     2021.48722       -11.45080         6.10273
     2021.48996       -10.96080         6.05151
     2021.49269        -2.40579         6.01651
     2021.49520        -6.48479         5.61188
     2021.49817        -5.96278         6.38272
     2021.50091        -7.88977         6.17273
     2021.50365        -5.17477         6.25297
     2021.50638        -8.34476         6.21797
     2021.50912       -12.87276         6.16761
     2021.51186       -11.03975         6.37248
     2021.51458         5.01925         6.47236
     2021.51733         0.36926         6.16163
     2021.52007        -1.97374         6.17102
     2021.52281        -9.20173         6.07285
     2021.52555        -5.88972         6.06346
     2021.52829        -1.84672         6.04468
     2021.53102         1.59629         6.01736
     2021.53376         1.41329         6.34004
     2021.53650        -7.69270         6.24870
     2021.53924         6.08730         6.53041
     2021.54198         1.82431         6.09419
     2021.54471        -2.03968         6.07797
     2021.54745        -5.81468         6.11126
     2021.55019        -4.00867         6.25041
     2021.55293        -5.73267         6.19065
     2021.55566         0.83534         6.13346
     2021.55840        -0.52866         6.10102
     2021.56114         0.00235         6.00200
     2021.56388         1.07035         6.04127
     2021.56605        -0.50764         4.74201
     2021.56878        -3.50464         4.77531
     2021.57152        -3.74363         4.71470
     2021.57426       -15.31762         4.75482
     2021.57700        -0.44562         4.97506
     2021.57974        -1.79261         4.60458
     2021.58247       -10.99061         4.64982
     2021.58521        -4.21160         4.65323
     2021.58795        -4.62660         4.68226
     2021.59069         1.22941         4.71726
     2021.59342        -2.09058         4.71811
     2021.59616        -3.25458         4.79153
     2021.59890        -6.19057         4.69848
     2021.60164         3.61743         4.93835
     2021.60438        -4.35056         4.64043
     2021.60711         1.06844         4.64128
     2021.60985         1.76945         4.63531
     2021.61259        -3.01155         4.66262
     2021.61533        -5.23954         4.65323
     2021.61807         2.10047         4.68482
     2021.62080        -4.63753         4.65580
     2021.62354        -2.34152         4.61226
     2021.62628        -1.69952         4.79238
     2021.62902         1.88549         4.67372
     2021.63175         1.96649         4.68567
     2021.63449        -0.79450         4.81031
     2021.63723         0.20550         4.86152
     2021.63997         6.90551         4.80092
     2021.64271         1.36152         4.78384
     2021.64544        -0.70348         4.65750
     2021.64818        -3.01647         4.62421
     2021.65092        -3.04947         4.64043
     2021.65366        -0.23846         4.62080
     2021.65639        -3.05846         4.59433
     2021.65913        -1.55645         4.60031
     2021.66187         2.20856         4.68055
     2021.66461         1.30156         4.62592
     2021.66735         1.29257         4.61482
     2021.67008        -0.59443         4.69677
     2021.67282         4.18058         4.80006
     2021.67556        -2.04942         4.87006
     2021.67830        -4.61841         4.77104
     2021.68104        -0.78341         4.70275
     2021.68377         3.67360         4.62762
     2021.68651         1.18061         4.71470
     2021.68925        -1.71539         4.59433
     2021.69199         2.65162         4.64555
     2021.69472        -5.62938         4.68055
     2021.69746        -0.02937         5.15945
     2021.70020        -0.57437         4.68738
     2021.70294         1.03264         4.71640
     2021.70568         1.21864         4.90079
     2021.70841         2.76265         4.74372
     2021.71115         3.74366         4.79323
     2021.71389         8.40066         4.84787
     2021.71663         1.94567         4.75140
     2021.71937        -0.74733         4.67884
     2021.72210        -1.06232         4.70445
     2021.72484         0.14068         4.74628
     2021.72758        -2.50731         4.72921
     2021.73032        -4.78130         4.97677
     2021.73305         4.60970         4.68482
     2021.73579        10.95671         4.76933
     2021.73855         9.54971         4.96908
     2021.74127         5.84972         4.71640
     2021.74401         4.29472         4.74714
     2021.74674         7.15773         4.73177
     2021.74948        -2.86527         4.89226
     2021.75222         0.29574         4.69762
     2021.75496         8.19775         4.79323
     2021.75706         0.10675         6.43821
     2021.76043         3.26576         4.82055
     2021.76317         2.80776         4.81713
     2021.76591         3.25477         4.72750
     2021.76865         2.47177         4.71811
     2021.77138         7.40578         4.76848
     2021.77412        16.10879         4.82652
     2021.77686         8.92679         4.75909
     2021.77960        10.21180         4.74372
     2021.78234         1.50480         4.74287
     2021.78507        13.34081         4.72494
     2021.78781        10.84481         4.72238
     2021.79055         3.04582         4.67884
     2021.79329         7.77382         4.69933
     2021.79603         6.83183         4.71640
     2021.79876         6.95684         4.72153
     2021.80150         6.15484         4.85213
     2021.80424         4.66785         4.79238
     2021.80698        -2.71915         4.76335
     2021.80971         3.15286         4.76677
     2021.81245        18.37186         4.85470
     2021.81519        11.02487         4.73604
     2021.81793        12.79087         4.71897
     2021.82067         3.79488         4.78726
     2021.82340         9.06789         4.89652
     2021.82614         2.09389         4.79238
     2021.82888         9.02490         4.77531
     2021.83162        11.66590         4.76165
     2021.83436         8.98891         4.76421
     2021.83709         3.18591         4.81884
     2021.83983        -5.66408         4.80518
     2021.84257         4.36093         4.88372
     2021.84531         5.58093         4.82140
     2021.84804         2.34094         4.77274
     2021.85078         4.07394         4.75653
     2021.85352         7.75195         4.79409
     2021.85626         4.84295         4.71470
     2021.85900         3.59596         4.67543
     2021.86447        -4.72803         4.84274
     2021.86721        -1.52902         4.95884
     2021.86995         6.22798         4.95799
     2021.87269         6.68399         4.85128
     2021.87542         9.31299         4.96908
     2021.87816        -0.24100         4.68909
     2021.88090         2.26300         4.67116
     2021.88364        -2.52499         4.72153
     2021.88637        -0.09399         4.79323
     2021.88911        -3.81098         4.67884
     2021.89185        -0.68997         4.71384
     2021.89459         1.18603         4.67714
     2021.89733         1.64204         4.66604
     2021.90006        -4.40696         4.81970
     2021.90280         0.89205         4.80689
     2021.90554         0.86605         4.73348
     2021.90828         3.85406         4.78470
     2021.91102         2.02807         4.71897
     2021.91375         1.97107         4.72494
     2021.91649         2.18208         4.70958
     2021.91923         0.45008         4.87774
     2021.92197        -3.00291         4.97591
     2021.92470        -3.06991         4.82823
     2021.92744         4.86710         4.77616
     2021.93018        -4.30990         4.81970
     2021.93292         7.78711         4.91957
     2021.93566        10.21712         4.96055
     2021.93839        11.00112         4.89823
     2021.94113        13.79713         4.97506
     2021.94387        13.78813         4.78896
     2021.94661         4.34114         4.81372
     2021.94935         5.02314         4.79238
     2021.95208         5.89515         4.81457
     2021.95482         8.27015         4.80177
     2021.95756        11.04316         4.75994
     2021.96030         1.59117         4.80518
     2021.96303         5.14217         4.79750
     2021.96577         7.18118         4.77787
     2021.96851         6.36818         4.83250
     2021.97125        14.53819         4.78043
     2021.97399        16.62319         4.78384
     2021.97672        27.93320         6.77455
     2021.97946        12.52021         4.78555
     2021.98220        13.18321         4.85213
     2021.98494        14.54422         4.77787
     2021.98767        12.56322         4.80262
     2021.99041         9.47323         4.79750
     2021.99315         9.61223         4.76592
     2021.99589        15.11924         4.79323
     2021.99863         8.21324         4.79238
     2022.00136         4.10625         4.77957
     2022.00410         2.10726         4.80092
     2022.00684         1.34726         4.75653
     2022.00916         0.13927         5.84322
     2022.01262        -3.94673         5.42152
     2022.01505        10.86828         4.77360
     2022.01779        16.91528         4.88713
     2022.01937        10.88329        13.18715
     2022.02345        -3.91170         5.46164
     2022.02600        -5.75370         4.83079
     2022.02874        -0.85769         4.81884
     2022.03148        -9.99969         4.84787
     2022.03422        -2.60468         4.80689
     2022.03696        -3.34068         4.77274
     2022.03969        -8.18967         5.11250
     2022.04243         4.46833         4.79579
     2022.04517         1.78734         4.84104
     2022.04791        -3.27765         4.79835
     2022.05065         0.30835         4.74799
     2022.05338        -5.86264         4.79067
     2022.05612        -7.00164         4.77872
     2022.05886       -12.02063         4.72750
     2022.06160        -3.22563         4.78128
     2022.06433         2.53138         4.80774
     2022.06707        -6.07662         4.78299
     2022.06981         2.07139         4.76506
     2022.07255       -10.77960         4.68055
     2022.07529        -3.92860         4.66433
     2022.07802        -0.67159         4.71214
     2022.08076         8.18141         4.71897
     2022.08350         5.43842         4.74884
     2022.08624        -2.64158         4.66775
     2022.08898         2.04943         4.69079
     2022.09171        -1.06256         4.70445
     2022.09445        -5.65456         4.70189
     2022.09719        -2.67055         4.66604
     2022.09993        -3.95055         4.81372
     2022.10266        -5.39254         4.79835
     2022.10540        -3.38254         4.69421
     2022.10814        -0.00753         4.66604
     2022.11088         1.38547         4.69762
     2022.11362         1.74448         4.71128
     2022.11635        -0.43351         4.67372
     2022.11909        -1.10751         4.66262
     2022.12183         2.73250         4.76079
     2022.12457         5.66050         4.80006
     2022.12731        -0.04649         4.67458
     2022.13004        -7.70449         4.70189
     2022.13278        -6.23048         4.71897
     2022.13552         2.07852         4.72153
     2022.13826         6.73353         4.71726
     2022.14099         3.94754         4.67970
     2022.14373        -8.25646         4.68994
     2022.14647        -2.33545         4.65323
     2022.14921         0.88955         4.87433
     2022.15195        -4.78044         4.85384
     2022.15468         1.12456         4.68482
     2022.15742         1.41957         4.74372
     2022.16016        -2.88242         4.66519
     2022.16290        -0.88042         4.65750
     2022.16564        -6.21541         4.67714
     2022.16837        -4.18641         4.86665
     2022.17111        -3.67940         4.76250
     2022.17385         2.82860         4.74628
     2022.17659        -1.62639         4.64470
     2022.17932        -3.72839         4.71470
     2022.18206        -4.36638         4.65409
     2022.18480        -4.23537         4.69848
     2022.18754         0.18363         4.74372
     2022.19028        -3.60236         4.76421
     2022.19301         4.26764         4.67714
     2022.19575         4.94765         4.66860
     2022.19849        -1.21335         4.64641
     2022.20123         0.17266         4.74714
     2022.20397         8.79867         4.67116
     2022.20670         0.38567         4.77274
     2022.20944        -0.31032         4.79323
     2022.21218        -0.74132         4.71726
     2022.21492         0.31469         4.68823
     2022.21765        -7.34231         4.69250
     2022.22039        -0.91130         4.66519
     2022.22313        -5.99330         4.67116
     2022.22587        -5.32029         4.87177
     2022.22861         1.97672         4.78214
     2022.23134         1.67072         4.68994
     2022.23408         0.55673         4.71982
     2022.23682         3.91673         4.86152
     2022.23956        -3.56226         4.72494
     2022.24230         0.09674         5.00750
     2022.24504         3.41775         5.32164
     2022.24777         4.01275         5.11079
     2022.25050        -5.73124         5.25847
     2022.25325         0.34777         5.12445
     2022.25598         5.25777         4.75823
     2022.25872         3.37078         4.73604
     2022.26146        -3.86222         4.70360
     2022.26420        -2.99721         4.75055
     2022.26694         1.46979         4.99299
     2022.26967        -1.24620         4.78811
     2022.27241         7.40781         4.74116
     2022.27515         6.80281         4.81628
     2022.27789         4.51482         4.73775
     2022.28062         0.05482         4.75909
     2022.28336        -0.21817         4.68909
     2022.28610         2.04983         4.75653
     2022.28884        -0.49716         4.80433
     2022.29158        -3.40716         4.65323
     2022.29431        -2.98115         4.69165
     2022.29705        -1.85514         4.70787
     2022.29979         4.17986         4.68738
     2022.30253        -6.55813         4.76848
     2022.30527        -0.88313         4.76079
     2022.30800        -1.83112         4.67116
     2022.31074        -1.07612         4.73006
     2022.31348        -2.49411         4.69762
     2022.31622        -4.57911         4.74287
     2022.31895       -18.06210         4.83079
     2022.32169        -0.16909         4.83421
     2022.32443         3.54491         4.68653
     2022.32717       -11.02908         4.71384
     2022.32991        -5.02108         4.64982
     2022.33264        -7.34107         4.78555
     2022.33538        -8.12907         4.89908
     2022.33812       -12.97006         4.89567
     2022.34086        -0.22705         4.79750
     2022.34360        -1.64605         4.74543
     2022.34633        -0.70804         4.70958
     2022.34907         0.75396         4.70958
     2022.35181         2.09897         4.68994
     2022.35455        -0.92703         4.69592
     2022.35728        -4.79802         4.70104
     2022.36002        -1.54702         4.70531
     2022.36276        -2.41301         4.70189
     2022.36550        -9.28300         4.72323
     2022.36824        -3.43400         4.74628
     2022.37097        -9.94799         4.70018
     2022.37371        -9.33099         4.67458
     2022.37645        -4.88998         4.85811
     2022.37919        -1.94998         4.82226
     2022.38193        -8.34497         4.82396
     2022.38466       -12.88497         4.69336
     2022.38740       -18.37896         4.66945
     2022.39014        -6.48395         4.69677
     2022.39288        -1.32395         4.71128
     2022.39561        -9.05194         4.71897
     2022.39835        -7.30694         4.74031
     2022.40109        -7.85493         4.78128
     2022.40383        -1.80693         4.63275
     2022.40657        -0.59792         4.64555
     2022.40930       -10.53291         4.75994
     2022.41204       -11.12291         4.77018
     2022.41478        -7.31290         4.65494
     2022.41752        -7.38390         4.75311
     2022.42026        -9.33789         4.85043
     2022.42299        -5.35589         4.69592
     2022.42573        -4.95888         4.78896
     2022.42847        -5.67888         4.67543
     2022.43121        -4.96587         4.75994
     2022.43394         4.22214         4.74714
     2022.43668        -8.82186         4.71128
     2022.43942        -0.13185         4.76335
     2022.44216        -5.07785         4.80348
     2022.44490         3.39616         4.84445
     2022.44763        -4.52984         4.61311
     2022.45037        -2.84083         4.65153
     2022.45311        -9.03082         4.64214
     2022.45585        -9.08282         4.63189
     2022.45859       -15.42481         4.72323
     2022.46132        -3.90481         4.68482
     2022.46406       -11.32580         4.66006
     2022.46680        -9.75380         4.60884
     2022.46954        -9.26079         4.62933
     2022.47227       -17.82379         4.69506
     2022.47501        -0.53678         4.74884
     2022.47775        -7.55977         4.82055
     2022.48049        -9.98077         4.64555
     2022.48323         4.03124         4.60202
     2022.48596         1.93224         4.64470
     2022.48870       -18.49975         4.88543
     2022.49144         4.10825         4.74799
     2022.49418        -7.20774         4.82994
     2022.49692       -11.48474         4.67372
     2022.49965       -12.46873         4.72579
     2022.50513        -2.11672         4.98189
     2022.50787         1.58429         5.06640
     2022.51060       -17.03871         4.97762
     2022.51334        -4.22970         4.78384
     2022.51608       -14.24170         4.69933
     2022.51882       -17.10669         4.65323
     2022.52156       -11.37268         4.68055
     2022.52429        -9.26068         4.63701
     2022.52703        -7.23667         4.67628
     2022.52977         2.26833         4.92213
     2022.53251        -7.55166         4.71299
     2022.53525        -9.41266         4.76848
     2022.53798        -6.05165         4.75226
     2022.54056        -9.84865         5.04506
     2022.54359        -0.32864         4.92299
     2022.54620        -5.89463         4.69848
     2022.54893        -5.31663         4.68397
     2022.55167        -0.65462         4.63445
     2022.55441        -3.29962         4.70872
     2022.55715        -0.82861         4.67031
     2022.55989        -2.47861         4.77018
     2022.56262       -14.39360         4.63616
     2022.56536       -18.68360         4.62677
     2022.56810        -5.04059         4.69933
     2022.57084       -10.90758         4.70275
     2022.57357         1.02142         4.92640
     2022.57631        -7.98257         4.62933
     2022.57905       -15.03757         4.77957
     2022.58179         1.25244         4.70104
     2022.58453         7.61444         5.01347
     2022.58726        -7.03555         4.73177
     2022.59000         8.14146         4.81287
     2022.59274        -9.94854         4.57299
     2022.59548        -6.88353         4.63616
     2022.59822       -13.55053         4.68994
     2022.60095       -18.94052         4.61141
     2022.60369        -7.23352         4.68140
     2022.60643       -10.96551         4.68055
     2022.60917        -2.84951         4.96055
     2022.61190         6.35550         4.95799
     2022.61464         2.27451         4.91872
     2022.61738        -0.10949         4.63275
     2022.62012        -5.19148         4.56104
     2022.62286         0.04752         4.60543
     2022.62559        -5.39347         4.57641
     2022.62833        -4.18247         4.63445
     2022.63107        -0.04946         4.63275
     2022.63381         3.55355         4.54141
     2022.63655        -2.00945         4.69677
     2022.63928         0.06356         4.67201
     2022.64202        -1.08144         4.97506
     2022.64476         2.78357         4.98957
     2022.64750         4.23757         4.73775
     2022.65023         0.25558         4.73262
     2022.65297         3.97158         4.82140
     2022.65571         2.33859         4.74372
     2022.65845         6.01860         4.68397
     2022.66119         4.83460         4.56787
     2022.66392         0.13061         4.58665
     2022.66666         3.83361         4.70616
     2022.66940         1.41462         4.60372
     2022.67214         7.73462         4.72579
     2022.67488        -2.05137         4.62250
     2022.67761         7.09263         4.72750
     2022.68035         4.52064         4.55421
     2022.68309         3.30165         4.69592
     2022.68583         4.74365         4.80092
     2022.68856         5.87166         4.66433
     2022.69130         5.03266         4.62165
     2022.69404         3.50467         4.67458
     2022.69678         9.38067         4.67884
     2022.69952         0.44068         4.68909
     2022.70225        10.86769         4.83591
     2022.70499         4.19069         4.76506
     2022.70773         7.28570         4.72665
     2022.71047         4.23470         4.59092
     2022.71321        11.76771         4.64982
     2022.71868         9.52472         4.62336
     2022.72142         9.98272         4.60628
     2022.72416         6.94673         4.69677
     2022.72689         9.92674         4.71384
     2022.72963         9.26874         4.78640
     2022.73238         5.49575         4.59433
     2022.73511         2.86075         4.66177
     2022.73785         4.05676         4.57897
     2022.74058        10.00876         4.76506
     2022.74332         9.94677         4.90165
     2022.74606         7.05977         4.67970
     2022.74880         2.05478         4.62165
