# ================= DQRFIT RESULTS ================
# INPUT FILE: series/ONLY.rad
# OUTPUT: LDETRENDED
# FILTER FUNCTION: f(t)
# f(t)=+line(t)
# line(t)=+P 1+P 2*t
# heav(t)=(t<0?0:1)
# TOTAL OBSERVATIONS MTOT=  279
# INITIAL TIME INTERVAL= 2018.6229 - 2006.4340 = 12.1889
# TOTAL OBSERVATIONS AFTER PREFILTER M=  278
# TIME-SPAN=    0.0000 -    0.0000 =  0.0000
# OBSERVATIONS: USED M=   278 REJECTED MTOT-M=     1 %USED=   99.6416
# N=  2 PARAMETERS
# MAXSIG= 175.00000
# MAXRES=  20.56810
# SCALE FACTOR FOR LENGTHS: SCL=  10.00000
# SCALE FACTOR FOR SIGMAS: SCLSIG=   1.00000
# CHI^2=    370.052 DOF=   276 CHI^2/DOF=   1.34077
# RMS=      6.620 SDEV=      6.631 MEAN=    0.09493
#  P #       PARAMETER +-    SIGMA %error PARAMETER NAME
# P 1 =      1495.95530 +-  248.528  16.61 YZERO                              
# P 2 =        -0.74208 +-    0.123  16.63 SLOPE                              
#       T            LDETRENDED       SIG_OBS
     2006.43395        -1.00663         6.87339
     2006.43669        -1.00960         6.88728
     2006.43943         6.45443         6.88960
     2006.44217         2.43846         6.88612
     2006.44491         5.92450         6.79233
     2006.44764         3.21753         6.82823
     2006.45038         2.58356         6.73907
     2006.45312        -5.35541         6.75644
     2006.45586        -3.14838         6.87339
     2006.45859         4.68565         6.83170
     2006.46133         6.68469         6.96255
     2006.46407         5.68972         6.94749
     2006.46681         6.01375         7.00192
     2006.46955         1.32778         6.97181
     2006.47228         0.83181         6.87802
     2006.47502         5.40584         6.98107
     2006.47776         0.00788         6.91623
     2006.48050        -4.86809         6.95444
     2006.48324        -4.15606         7.15129
     2006.48597         5.07697         7.09107
     2009.88365        -2.53070         6.79928
     2009.88638        -0.42266         6.87686
     2009.88912        -3.34263         6.75991
     2009.89186        -8.53360         6.83170
     2009.90007        -6.25451         7.41066
     2009.90281        -8.22747         7.23350
     2011.72896        -1.16433         6.59665
     2011.73170         2.89770         6.72633
     2011.73443        -5.62927         6.61865
     2011.73717        -2.03424         6.55959
     2011.73991        -6.96921         6.55612
     2011.74265        -2.58517         6.63022
     2011.74538        -2.86914         6.81665
     2011.74812         7.88289         7.03318
     2011.75086        -5.46508         6.84560
     2011.75360        -1.75605         6.80854
     2011.75634         2.45298         6.74254
     2011.75907        -4.08098         6.70896
     2011.76181        -5.02995         6.69275
     2011.76455         1.74608         6.67075
     2011.76729       -10.73989         6.59086
     2011.77003        -6.79986         6.62096
     2011.77276        -2.48283         6.67770
     2011.77550       -11.16179         6.86991
     2011.77824        -3.77176         6.74717
     2011.78098        -5.22573         6.68465
     2011.78371        -4.35270         6.69044
     2011.78645        -4.96967         6.62907
     2011.78919         2.07836         6.75528
     2011.79193        -7.13160         6.64875
     2011.79467        -7.65857         6.60475
     2011.79740        -3.99954         6.56770
     2011.80014        -1.79251         6.52370
     2011.80288        -3.21048         6.66033
     2011.80562        -7.45145         6.58622
     2011.80836        -4.97141         6.56422
     2011.81109        -1.24538         6.65454
     2011.81383        -2.12635         6.60707
     2011.81657        -8.04432         6.51559
     2011.81931        -1.73629         6.57812
     2011.82204        -4.07126         6.55149
     2011.82478         5.97578         6.61633
     2011.82752        -6.16919         6.51212
     2011.83026        -6.22616         6.62212
     2011.83300        -1.68713         6.55959
     2011.83573        -7.73910         6.54338
     2011.83847        -4.03607         6.55843
     2011.84121         0.00197         6.48896
     2011.84395        -0.17300         6.59665
     2011.84669        -8.75297         6.58159
     2011.84942       -10.56494         6.54917
     2011.85216       -12.61591         6.44612
     2011.85490       -13.12388         6.55959
     2011.85764        -8.33784         6.61980
     2011.86037         0.50319         6.54685
     2011.86311        -2.93378         6.54338
     2011.86585         1.84625         6.51906
     2011.86859         0.95528         6.53412
     2011.87133        -3.65769         6.52601
     2011.87406        -6.41565         6.54338
     2011.87680        -0.44462         6.55843
     2011.87954       -20.52859         6.61054
     2011.88228        -4.50156         6.53064
     2011.88502        -5.01253         6.71359
     2011.89049        -5.13746         6.57464
     2011.89323        -3.38243         6.68812
     2011.89597        -8.99640         6.54685
     2011.89870        -8.58637         6.63138
     2011.90144        -8.09634         6.62675
     2011.90418        -8.40130         6.53759
     2011.90692        -3.05727         7.28097
     2011.91239        -0.28321         7.20918
     2011.91513         4.43782         6.61401
     2011.91787        -0.67815         6.72633
     2011.92061        -5.68411         6.57464
     2011.92334        -6.68008         6.63138
     2011.92608       -10.62505         6.63949
     2011.92882        -9.76002         6.63138
     2011.93156        -3.05399         6.63949
     2011.93430        -4.47696         6.97760
     2011.93703        -5.67792         6.61980
     2011.93977        -6.01089         6.61170
     2011.94251        -1.34786         6.60938
     2011.94525         4.91517         7.54614
     2011.94799        -0.60480         6.61286
     2011.95072        -2.00977         6.68696
     2011.95346        -2.14373         7.42571
     2011.95620        -3.76870         6.66265
     2011.95894        -1.76467         6.87802
     2011.96167        -0.93564         7.04013
     2011.96715        -1.27058         6.48664
     2011.97263        -4.92751         6.46464
     2011.97536        -5.04848         6.49012
     2011.97810        -7.62345         6.45075
     2011.98084        -4.82242         6.42064
     2011.98358        -0.59439         6.43917
     2011.98632         1.76765         7.38982
     2011.99179         3.02371         6.47506
     2012.00548        -2.83413         6.47043
     2012.00822        -2.22710         6.47738
     2012.01096        -0.98307         6.46117
     2012.01643        -0.66001         6.47391
     2012.01917        -2.55397         6.42875
     2012.02191        -2.33694         6.45885
     2012.02465         0.62709         6.40675
     2012.02975         2.01388         7.68972
     2014.04518        10.70948         6.70317
     2014.04792         7.00051         6.55496
     2014.05065         6.23154         6.51906
     2014.05339         5.51858         6.56191
     2014.05613         4.48861         6.59433
     2014.05887         1.69564         6.54685
     2014.06161         9.96867         6.53528
     2014.06434        14.04470         6.82939
     2014.06708         8.15573         6.76570
     2014.06982         8.59577         6.61401
     2014.09446         7.01205         6.57464
     2014.09720        10.63808         6.70433
     2014.09994        17.65911         6.60243
     2014.10267         9.01615         6.67886
     2014.10541         0.71918         6.57812
     2014.10815        -0.85679         6.65454
     2014.14100         5.31559         6.61865
     2014.14374         2.92462         6.64759
     2014.14648         8.87465         6.66612
     2014.14922         7.16969         6.62675
     2014.15196         6.41072         6.63486
     2014.15469         6.89875         6.69275
     2014.15743         2.86378         6.75991
     2014.16017        13.33481         6.98802
     2014.16291         7.51884         6.72981
     2014.16564        -3.40212         6.68928
     2014.16838        -0.62309         6.87339
     2014.19302         8.87019         6.62212
     2014.19576         7.66422         6.64991
     2014.19850         2.06626         6.68928
     2014.20124         3.96429         6.63949
     2014.20397         0.16332         6.62791
     2014.20671        -2.48365         6.81896
     2014.20945        11.03138         6.67075
     2014.21219         7.65841         6.61517
     2014.21493         6.58145         6.80623
     2014.21766        10.27848         6.69854
     2014.22040         6.21851         6.66265
     2014.22314         8.04654         6.63833
     2014.22588         7.25357         6.67654
     2014.22862         9.59360         6.71359
     2014.23135         8.52564         6.69391
     2014.23409         7.52167         6.67654
     2014.23683        10.81370         6.69970
     2014.23957        11.04273         7.43150
     2014.24230        19.29776         7.04707
     2014.24504         2.48579         6.72517
     2015.71527        11.40981         6.46233
     2015.71801        12.21285         6.52254
     2015.72074        10.41588         6.56886
     2015.72348        14.80391         6.60128
     2015.72622         5.20494         6.54222
     2015.72896         6.90797         6.53875
     2015.73170         4.22100         6.53759
     2015.73443         8.81104         6.58970
     2015.73717        13.40707         6.52601
     2015.73991        20.56810         6.83633
     2015.74265        10.71013         6.77844
     2015.74538        14.23016         6.85949
     2015.74812         1.82519         6.86528
     2015.75086        -4.55877         6.56886
     2015.75360         4.09826         6.61170
     2015.75634         4.64529         6.61633
     2015.75907         2.99032         6.50980
     2015.76181         0.67435         6.50170
     2015.76455         2.81339         6.55959
     2015.76729         4.53342         6.56075
     2015.77003         4.50045         6.58391
     2015.77276         4.38748         6.64759
     2015.77550         5.87551         6.50980
     2015.77824        11.96154         6.50633
     2015.78098         8.47058         6.52833
     2015.78371        11.04661         6.54222
     2015.78645        11.04264         6.56538
     2015.78919         5.03367         6.51906
     2015.79193         7.99370         6.63022
     2015.79467        -3.46027         6.61633
     2015.79740         3.08177         6.56075
     2015.80014        -1.20720         6.68117
     2015.80288         5.84883         6.54801
     2015.80562        10.04786         6.56538
     2015.80836         4.81889         6.50054
     2015.81109         5.41192         6.61980
     2015.81383         7.42496         6.65338
     2015.81657         6.86999         6.49012
     2015.81931        11.33002         6.58507
     2015.82204        -1.36595         6.50517
     2015.82478         7.34208         6.58854
     2015.82752         4.35011         6.61633
     2015.83026         5.12215         6.58507
     2015.83300         2.15718         6.71475
     2015.83573         2.39921         6.73444
     2015.83847         4.43724         6.66149
     2015.84121        -0.00173         6.65917
     2015.84395         4.18830         6.62791
     2015.84669         2.53934         6.58391
     2015.84942         4.44837         6.59433
     2015.85216        13.06940         6.71012
     2015.85490         0.29243         6.60243
     2015.86037         4.43549         6.63022
     2015.86307         5.96250         6.67075
     2018.48597        -6.07611         6.37433
     2018.48871        -0.94508         6.42875
     2018.49145        -8.02805         6.42296
     2018.49419        -5.80902         6.50980
     2018.49692        -2.99798         6.50517
     2018.49966        -3.03095         6.41833
     2018.50240        -3.95392         6.40327
     2018.50514        -3.56289         6.39633
     2018.50788        -7.98086         6.50633
     2018.51061       -10.66482         6.45538
     2018.51335       -10.65679         6.47854
     2018.51609        -3.49376         6.42875
     2018.51883        -9.26473         6.38938
     2018.52157        -7.68370         6.35001
     2018.52430        -5.83067         6.36854
     2018.52704        -5.64563         6.39401
     2018.52978        -6.27760         6.39169
     2018.53252        -8.85457         6.50170
     2018.53525        -3.25454         6.48433
     2018.53799        -6.04851         6.51906
     2018.54073        -7.22648         6.38243
     2018.54347        -6.09544         6.42180
     2018.54621        -7.81941         6.46580
     2018.54894        -7.92238         6.45306
     2018.55168        -4.99935         6.38590
     2018.55442       -13.09132         6.38590
     2018.55716        -7.18629         6.46927
     2018.55990        -9.43925         6.57464
     2018.56263        -5.60022         6.51328
     2018.56537        -7.27019         6.46812
     2018.56811        -5.04216         6.45075
     2018.57085        -3.47813         6.41138
     2018.57358        -3.92210         6.58622
     2018.57632        -5.38206         6.75296
     2018.57906        -9.28403         6.75181
     2018.58180        -6.21400         6.53643
     2018.58454         1.33603         6.63138
     2018.58727        -6.47694         6.37896
     2018.59001        -1.82891         6.40790
     2018.59275        -4.92987         6.34422
     2018.59549        -1.48884         6.38127
     2018.59823        -4.26781         6.30138
     2018.60096        -5.53378         6.33496
     2018.60370        -3.87275         6.41022
     2018.60644        -1.24472         6.39285
     2018.60918        -3.41568         6.33611
     2018.61191        -0.38165         6.33727
     2018.61465        -3.27262         6.31643
     2018.61739         0.43141         6.35348
     2018.62013        -1.47956         6.35001
     2018.62287        -1.52753         6.52485
