# ================= DQRFIT RESULTS ================
# INPUT FILE: series/P064.rad
# OUTPUT: LDETRENDED
# FILTER FUNCTION: f(t)
# f(t)=+line(t)+annual(t)
# line(t)=+P 1+P 2*t
# annual(t)=+P 3*sin(2*pi*t+P 4)
# heav(t)=(t<0?0:1)
# TOTAL OBSERVATIONS MTOT= 4077
# INITIAL TIME INTERVAL= 2021.8467 - 2007.6030 = 14.2437
# TOTAL OBSERVATIONS AFTER PREFILTER M= 3902
# TIME-SPAN= 2021.8279 - 2007.6030 = 14.2249
# OBSERVATIONS: USED M=  3902 REJECTED MTOT-M=   175 %USED=   95.7076
# N=  4 PARAMETERS
# MAXSIG= 175.00000
# MAXRES= 164.61326
# SCALE FACTOR FOR LENGTHS: SCL=  10.00000
# SCALE FACTOR FOR SIGMAS: SCLSIG=   1.00000
# CHI^2=   7713.719 DOF=  3898 CHI^2/DOF=   1.97889
# RMS=     11.886 SDEV=     11.851 MEAN=    0.92892
#  P #       PARAMETER +-    SIGMA %error PARAMETER NAME
# P 1 =     -1222.08905 +-   77.522   6.34 YZERO                              
# P 2 =         0.60635 +-    0.038   6.35 SLOPE                              
# P 3 =         4.13411 +-    0.187   4.53 ANNUAL AMPLITUDE                   
# P 4 =        -2.96682 +-    0.063   2.13 ANNUAL PHASE                       
#       T            LDETRENDED       SIG_OBS
     2007.60301         3.86629         8.17170
     2007.60574         2.71363         8.11402
     2007.60848         4.74697         8.10558
     2007.61122         2.75931         8.04087
     2007.61396        -5.32435         8.10136
     2007.61670         3.69499         8.67390
     2007.61943         9.25433         8.61482
     2007.62217         8.01067         8.62185
     2007.62491         5.41301         8.43194
     2007.62765        -1.22665         8.72314
     2007.63039         7.17769         8.54026
     2007.63312         3.85303         8.46852
     2007.63586         3.74637         8.36020
     2007.63860         1.44071         8.51635
     2007.64134         1.98805         8.18999
     2007.64407         4.41239         8.58668
     2007.64681         0.49273         8.66265
     2007.64955         6.15907         8.63873
     2007.65229         4.67141         8.55574
     2007.65503         0.67875         8.50228
     2007.65776         6.60509         8.46993
     2007.66050         5.64643         8.43335
     2007.66324         7.15277         8.53042
     2007.66598         6.11811         8.50087
     2007.66872         8.92945         8.54870
     2007.67145         2.88879         8.66406
     2007.67419         5.36213         8.62185
     2007.67693         6.41747         8.45164
     2007.67967        10.00381         8.48399
     2007.68240        11.60515         8.34895
     2007.68514         5.76949         8.55714
     2007.68788         9.00583         8.63311
     2007.69062         8.46817         8.43335
     2007.69336         7.03750         8.42772
     2007.69609         3.12084         8.33066
     2007.69883         8.21818         8.35457
     2007.70157         9.85152         8.39537
     2007.70431         8.53086         8.52479
     2007.70705         2.23020         8.69500
     2007.70978         5.43654         8.65421
     2007.71252         1.15288         8.23078
     2007.71526         5.84022         8.24626
     2007.71800         6.31056         8.18858
     2007.72073         3.73690         8.35176
     2007.72347         9.27024         8.23219
     2007.72621        10.46758         8.12528
     2007.72895         9.40892         8.21812
     2007.73169         7.92626         8.24626
     2007.73442         2.76560         8.27017
     2007.73716         6.86494         8.59372
     2007.73990        12.51228         8.23922
     2007.74264        14.65562         8.20124
     2007.74538        21.38396         8.22093
     2007.74811        -3.07770         8.47415
     2007.75085        17.77664         8.86522
     2007.75359         2.49498         8.62467
     2007.75633         5.60632         8.26032
     2007.75906         9.14866         8.19843
     2007.76180         4.63600         8.27017
     2007.76454        11.30134         8.38552
     2007.76728         5.31468         8.87506
     2007.77002         4.53402         9.02418
     2007.77275         9.57836         8.62185
     2007.77549         8.64470         8.19280
     2007.77823        10.03904         8.21249
     2007.78097        12.45438         8.27720
     2007.78371        16.14772         8.16185
     2007.78644        20.58206         8.17733
     2007.78918         4.57640         8.43054
     2007.79192         7.73774         8.39537
     2007.79466         5.82208         8.56699
     2007.79739        17.39642         8.67109
     2007.80013         0.78376         8.31519
     2007.80287         4.63610         8.27439
     2007.80561         0.35244         8.39396
     2007.80835         4.51878         8.42632
     2007.81108        20.02612         8.54308
     2007.81382        -5.73854         8.33910
     2007.81656         0.49780         8.49384
     2007.81930         6.04414         8.24907
     2007.82203        -2.68252         8.35598
     2007.82477         1.19882         8.49806
     2007.82751        -4.77584         8.35739
     2007.83025         1.21550         8.50791
     2007.83299         5.15984         8.10418
     2007.83572         3.06218         8.14216
     2007.83846         3.21152         8.15904
     2007.84120         8.54586         8.19843
     2007.84394        -2.84580         7.99445
     2007.84668         3.84154         8.08870
     2007.84941        -1.31212         8.16326
     2007.85215         1.48622         8.47274
     2007.85489         3.34656         8.48821
     2007.85763        13.16090         8.16326
     2007.86036         8.69324         7.92974
     2007.86310        19.63758         8.41928
     2007.86584         7.49292         8.20968
     2007.86858         5.79926         8.17873
     2007.87132         8.74460         8.26173
     2007.87405        15.76194         8.21249
     2007.87679         4.65928         8.18858
     2007.87953        -0.16838         8.14216
     2007.88227        -4.87304         7.98038
     2007.88501        -1.20770         8.00148
     2007.88774        -6.03336         7.99023
     2007.89048        -2.91802         7.92833
     2007.89322        -0.22068         8.24344
     2007.89596         5.04366         8.24204
     2007.89869        -2.34500         7.96350
     2007.90143         4.12634         8.01837
     2007.90417        -4.04532         8.03243
     2007.90691        -9.19398         7.95928
     2007.90965        -5.16164         8.22375
     2007.91238        -3.62830         8.18436
     2007.91512         5.40604         8.26595
     2007.91786         3.91838         8.26876
     2007.92060        -2.69528         8.55574
     2007.92334         0.36906         8.47555
     2007.92607        -0.78360         8.20124
     2007.92881        -4.29626         8.17873
     2007.93155        -3.05392         8.16607
     2007.93429        -6.55358         8.14778
     2007.93702        -9.58424         8.12528
     2007.93976       -12.59090         8.10277
     2007.94250         0.64444         8.30393
     2007.94524         3.98478         8.18999
     2007.94798        -7.12488         8.13794
     2007.95071        -5.89054         8.22093
     2007.95345        10.27680         8.36020
     2007.95619         6.05214         8.41928
     2007.95893        10.91648         8.64717
     2007.96167        -0.96218         8.64436
     2007.96440         9.69916         8.52198
     2007.96714        -5.71050         8.55714
     2007.96988       -15.62817         8.52901
     2007.97262        -7.78183         8.70626
     2007.97535        -6.62049         8.71751
     2007.97809        -8.93115         8.80613
     2007.98083       -11.50081         8.58809
     2007.98357       -13.44747         8.67250
     2007.98631        -2.43813         8.86100
     2007.98904        -8.17879         9.13390
     2007.99178        -7.36545         9.01292
     2007.99452         5.00989         9.17892
     2007.99726       -10.81577         8.80332
     2008.00000       -17.83043         8.52198
     2008.00273        -2.50609         8.09152
     2008.00547         3.86925         7.95928
     2008.00821         1.13159         8.11543
     2008.01095         8.95293         8.55574
     2008.01368         8.60527         8.65561
     2008.01642         7.51261         8.55996
     2008.01916         7.86695         8.80895
     2008.02190         0.83429         8.94962
     2008.02464         6.69363         8.70766
     2008.02737         2.26897         8.45023
     2008.03011        -1.88569         8.54026
     2008.03285       -14.57035         8.07463
     2008.03559        -5.77301         8.10699
     2008.03833       -11.12467         7.91005
     2008.04106       -18.26433         8.01555
     2008.04380       -15.30599         8.04509
     2008.04654       -15.17565         7.97335
     2008.04928       -11.45531         7.93115
     2008.05201       -14.98297         7.82986
     2008.05475       -14.20563         7.80876
     2008.05749       -14.80229         7.84534
     2008.06023        -8.31095         7.89176
     2008.06297        -3.16261         7.87488
     2008.06570        -7.65527         7.81298
     2008.06844        -1.73593         7.82002
     2008.07118         7.83841         7.84252
     2008.07392         3.52375         7.81017
     2008.07666         5.96109         8.31378
     2008.07939         0.49443         8.57824
     2008.08213        30.59877         8.92430
     2008.08487        42.45411         9.10999
     2008.08761        39.42645         8.96088
     2008.09034        38.80079         8.86381
     2008.09582        60.76047         9.46167
     2008.15058        83.19927         8.61623
     2008.15331        74.28261         8.46852
     2008.15879        68.46129         9.04669
     2008.16153        59.31263         9.59812
     2008.17248        80.44299         8.57824
     2008.28473         8.41692         9.19017
     2008.28747        16.71026         9.10436
     2008.29021        18.49060         9.04809
     2008.29295       -14.24306         9.07623
     2008.29568       -18.55072         8.77659
     2008.29842         3.35062         8.62607
     2008.30116        43.58196         8.88913
     2008.30390        46.40730         8.69078
     2008.30937        51.32998         9.18173
     2008.31211        42.67632         9.06497
     2008.31485        42.58666         8.98760
     2008.31759        33.57800         9.97513
     2008.33949        15.38072         8.91445
     2008.34223       -13.76694         8.80473
     2008.34496       -12.86760         8.53042
     2008.34770        -8.75526         8.21812
     2008.35044        -7.51392         8.15904
     2008.35318        -7.46358         8.07323
     2008.35592        -3.05424         8.00571
     2008.35865       -12.38190         7.94803
     2008.36139        -3.48256         7.92271
     2008.36413        -3.31222         8.07041
     2008.36687       -16.35288         7.97757
     2008.36961       -16.83754         7.83268
     2008.37234        -5.11420         7.90301
     2008.37508        -4.13286         8.28705
     2008.37782        -6.46052         8.13231
     2008.38056         4.36282         8.04931
     2008.38329         7.04316         8.05494
     2008.38603        -6.15850         8.01555
     2008.38877        -1.50016         8.11543
     2008.39151        -6.03382         8.20687
     2008.39425        -6.06348         8.09714
     2008.39698         1.32086         8.22375
     2008.39972         3.44720         8.13934
     2008.40246         1.63254         8.00852
     2008.40520        -2.64512         8.11121
     2008.40794        -1.96578         8.09574
     2008.41067        -1.43244         8.00430
     2008.41341        -0.11610         8.00148
     2008.41615        -4.76276         8.11262
     2008.41889        -4.23342         8.11824
     2008.42162        -8.61508         8.49384
     2008.42436        -3.72674         8.08730
     2008.42710         0.87260         8.30393
     2008.42984        -2.13006         8.31800
     2008.43258         3.09628         8.52760
     2008.43531        -2.48938         8.29127
     2008.43805         1.03496         8.27017
     2008.44079        -6.67770         8.14778
     2008.44353        -9.22736         8.08589
     2008.44626        -6.59002         8.28142
     2008.44900        -5.03568         8.11824
     2008.45174        -1.83434         8.35035
     2008.45448        -0.66500         8.47555
     2008.45722        -3.65566         8.16748
     2008.45995        -0.30832         8.13090
     2008.46269        -6.62598         8.22656
     2008.46543         0.67136         8.23922
     2008.46817        -2.57130         8.18717
     2008.47091         0.54204         8.31519
     2008.47364        -5.02462         8.22516
     2008.47638         0.67972         8.04791
     2008.47912        -1.53594         8.06338
     2008.48186         5.36340         8.06338
     2008.48459        -8.11726         8.24204
     2008.48733        -0.80392         8.16748
     2008.49007        -2.35958         8.06619
     2008.49281         1.92976         8.02399
     2008.49555         0.52610         8.01837
     2008.49828         1.02044         7.97194
     2008.50102        -2.14522         8.08589
     2008.50376         3.86112         8.21531
     2008.50650         1.56946         8.14356
     2008.50924         6.53380         8.32081
     2008.51197         7.68714         8.14919
     2008.51471         1.54248         8.32644
     2008.51745         3.27582         8.07182
     2008.52019         7.30315         8.22938
     2008.52292         4.87049         8.31378
     2008.52566         9.81583         8.33629
     2008.52840         7.79017         8.08308
     2008.53114         4.36751         8.16045
     2008.53388        11.40185         8.12950
     2008.53661         2.86519         8.20124
     2008.53935         3.49553         8.02540
     2008.54209         3.62487         7.99586
     2008.54483         4.46821         8.28142
     2008.54757         5.50955         8.24204
     2008.55030        14.63089         7.98038
     2008.55304         7.57623         8.19421
     2008.55578         9.96057         8.10699
     2008.55852         5.91891         8.17170
     2008.56125         5.01525         8.05635
     2008.56399         8.27359         8.07886
     2008.56673         4.55393         8.19421
     2008.56947         5.53027         8.08730
     2008.57221         4.39061         8.31237
     2008.57494         9.12195         8.48118
     2008.57768         5.12229         8.47555
     2008.58042         8.82163         8.14638
     2008.58316        13.28097         8.28846
     2008.58590         8.82331         8.22797
     2008.58863         7.03065         8.40803
     2008.59137         4.14799         7.98038
     2008.59411         6.44933         8.02681
     2008.59685         7.50567         8.26314
     2008.59958        11.81601         8.48118
     2008.60232         9.46435         8.52760
     2008.60506        10.85869         8.50228
     2008.60780         0.38003         8.34895
     2008.61054         4.47737         8.36020
     2008.61327         8.78571         8.22938
     2008.61601         9.77905         8.36020
     2008.61875         7.43639         8.29268
     2008.62149         9.07773         8.27580
     2008.62423        12.07007         8.23641
     2008.62696        14.28941         8.36301
     2008.62970        13.53375         8.08589
     2008.63244        10.18109         8.42772
     2008.63518         9.90943         8.72736
     2008.63791         5.29677         8.41084
     2008.64065         8.15711         8.39115
     2008.64339         8.06945         8.15904
     2008.64613        10.39579         8.45727
     2008.64887         2.23113         8.40522
     2008.65160         6.51147         8.20546
     2008.65434         6.12681         8.70204
     2008.65708         4.59315         8.65843
     2008.65982         0.62049         8.81458
     2008.66256        11.44583         8.29690
     2008.66529         3.24117         8.30393
     2008.66803        -0.62949         8.24766
     2008.67077         3.57785         8.30815
     2008.67351         4.45419         8.48821
     2008.67624         0.24553         8.80754
     2008.67898         0.27687         8.28142
     2008.68172         2.40521         8.42350
     2008.68446         2.47755         8.28283
     2008.68720         6.15089         8.28705
     2008.68993         7.23223         8.33769
     2008.69267         4.19557         8.28986
     2008.69541         6.87191         8.27158
     2008.69815        11.38925         8.32925
     2008.70089         5.73359         8.28283
     2008.70362        10.72493         8.29127
     2008.70636         9.81027         8.18436
     2008.70910         6.89561         8.30534
     2008.71184         5.49595         8.45445
     2008.71457         6.34929         8.13372
     2008.71731         2.33663         8.15341
     2008.72005         6.33197         8.09152
     2008.72279         5.19531         8.17029
     2008.72553        -2.55335         8.40944
     2008.72826         3.42499         8.23922
     2008.73100        10.20733         8.35176
     2008.73374         6.16567         8.58387
     2008.73648         4.14601         8.33769
     2008.73921         5.47735         8.28424
     2008.74469         5.88703         8.33629
     2008.74743         8.39137         8.19280
     2008.75017         7.95471         8.18436
     2008.75290        16.46205         8.28846
     2008.75564         7.75339         8.62748
     2008.75838        10.06873         8.63029
     2008.76112         7.24307         8.40240
     2008.76386         6.35641         8.38412
     2008.76659        14.37875         8.68094
     2008.76933         1.50609         8.28846
     2008.77207        -2.73857         8.18999
     2008.77481        -1.63423         8.11121
     2008.77754        -2.52289         8.10136
     2008.78028         1.48945         8.03947
     2008.78302        -5.49421         8.17873
     2008.78576        -3.38987         8.22375
     2008.78850        -0.90853         8.29690
     2008.79123         5.80481         8.44179
     2008.79397        -2.63486         8.26595
     2008.79671         1.54048         8.23782
     2008.79945        -1.26718         8.22093
     2008.80219         6.23816         8.29408
     2008.80492        -5.98450         8.08026
     2008.80766         4.70684         8.08589
     2008.81040         2.40118         8.33207
     2008.81314         1.23352         8.17592
     2008.81587         2.63386         8.16045
     2008.81861         0.45620         8.17029
     2008.82135        -1.06146         8.17592
     2008.82409         1.20888         8.34191
     2008.82683        -2.79978         8.21390
     2008.82956        -6.98644         8.41647
     2008.83230        -7.75910         8.39396
     2008.83504        -0.81176         8.33910
     2008.83778        -2.32742         8.29408
     2008.84052         4.51492         8.34332
     2008.84325        -0.50574         8.26173
     2008.84599         4.11060         8.31800
     2008.84873         0.50494         8.43054
     2008.85147        -5.42672         8.26314
     2008.85420         6.18362         8.57121
     2008.85694         1.73296         8.28142
     2008.85968         1.29630         8.37005
     2008.86242         2.74764         8.40100
     2008.86516        11.15698         8.32081
     2008.86789         6.60032         8.30534
     2008.87063        -3.64534         8.39537
     2008.87337        -3.19100         8.41647
     2008.87611        -1.74666         8.22093
     2008.87885         0.20468         8.13934
     2008.88158        -1.63298         8.19843
     2008.88432        -2.17764         8.17311
     2008.88706        -9.83530         8.42772
     2008.88980         0.45104         8.44742
     2008.89253         2.87538         8.13512
     2008.89527        -4.29228         8.30112
     2008.89801         2.51906         8.25751
     2008.90075        -3.86960         8.27861
     2008.90349        -2.31026         8.04509
     2008.90622        -0.88192         8.22938
     2008.90896         0.14042         8.23219
     2008.91170        -7.50224         8.39959
     2008.91444         0.32510         8.41366
     2008.91718         1.62144         8.27861
     2008.91991        -1.63622         8.41084
     2008.92265        -5.28288         8.16748
     2008.92539        -2.93254         8.28846
     2008.92813         3.73380         8.31378
     2008.93086        -5.60686         8.40662
     2008.93360        -8.35852         8.34051
     2008.93634        -7.50418         8.24344
     2008.93908       -13.21884         8.16748
     2008.94182       -14.53550         8.41366
     2008.94455        -9.50616         8.22093
     2008.94729        -3.20382         8.20405
     2008.95003        -7.65248         8.00148
     2008.95277        -1.43614         7.93678
     2008.95551        -9.36680         8.03806
     2008.95824        -9.83646         8.00008
     2008.96098         3.83288         7.97335
     2008.96372        -1.62078         8.00008
     2008.96646        -4.70444         8.10840
     2008.96919        -9.85510         7.93959
     2008.97193         2.54624         8.17170
     2008.97467        -7.66442         8.06619
     2008.97741        -9.24508         8.08308
     2008.98015        -5.16774         8.18295
     2008.98288        -8.75140         8.26454
     2008.98562       -19.69506         8.30112
     2008.98836         1.24628         8.22375
     2008.99110        -4.24838         8.29127
     2008.99384         1.19096         8.30675
     2008.99657        -4.84170         8.16607
     2008.99931        -4.17036         8.18014
     2009.00479        -5.26368         8.18295
     2009.00752        -8.97634         8.23500
     2009.01026        -9.22200         8.16607
     2009.01300        -0.44166         8.09996
     2009.01574         0.95668         8.18999
     2009.01848        -0.86598         8.11262
     2009.02121        -1.66964         8.25188
     2009.02395       -16.25130         8.31378
     2009.02669       -20.10896         8.01133
     2009.02943       -18.18762         7.91005
     2009.03216       -13.82828         7.92552
     2009.03490       -15.58494         7.85237
     2009.03764       -15.22260         7.94803
     2009.04038       -16.51726         7.96210
     2009.04312       -16.12592         7.86222
     2009.04585       -17.71058         7.87066
     2009.04859       -19.25224         7.95084
     2009.05133       -13.39990         7.95788
     2009.05407       -12.80556         7.92130
     2009.05681       -13.57222         7.95366
     2009.05954       -10.17088         7.93818
     2009.06228       -14.74754         7.99304
     2009.06502       -10.40620         7.94662
     2009.06776       -13.49686         7.91005
     2009.07049       -12.73253         7.86925
     2009.07323        -8.11719         7.95928
     2009.07597       -13.74785         7.85800
     2009.07871       -15.12051         7.96210
     2009.08145       -12.26017         7.92130
     2009.08418        -6.07483         7.83127
     2009.08692       -14.31349         7.95084
     2009.08966        -8.28115         8.01977
     2009.09240        -9.80981         8.06479
     2009.09514        -5.84747         7.94944
     2009.09787        -7.22413         7.95225
     2009.10061       -11.39379         7.91849
     2009.10335       -12.35645         7.96632
     2009.10609        -5.16911         7.97898
     2009.10882        -7.55277         7.82846
     2009.11156        -6.42043         7.79892
     2009.11430       -10.50009         8.02681
     2009.11704        -6.99575         8.00571
     2009.11978        -5.38441         7.87207
     2009.12251        -7.89807         7.82283
     2009.12525        -9.88473         7.79751
     2009.12799        -5.52039         7.99023
     2009.13073        -6.52305         8.15623
     2009.13347       -10.97171         8.01133
     2009.13620       -12.33037         7.93959
     2009.13894       -11.00603         7.94662
     2009.14168       -10.52169         7.86222
     2009.14442       -10.14935         8.14919
     2009.14715       -10.44701         8.26173
     2009.14989        -8.86667         8.20405
     2009.15263        -3.55433         7.99867
     2009.15537        -7.54099         8.22375
     2009.15811       -11.59665         8.19843
     2009.16084        -5.45931         7.91005
     2009.16358        -3.35397         8.34332
     2009.16632        -4.98963         8.06197
     2009.16906        -8.57329         8.12106
     2009.17180        -8.04995         7.92552
     2009.17453       -12.93761         7.85800
     2009.17727        -8.13127         8.13090
     2009.18001        -5.30393         7.81439
     2009.18275       -10.68659         7.84674
     2009.18548       -11.85025         7.86644
     2009.18822       -11.70891         8.01274
     2009.19096       -14.64057         7.86503
     2009.19370       -11.73823         7.88754
     2009.19644       -10.26989         7.87769
     2009.19917        -1.41655         7.87066
     2009.20191        -3.70121         7.90864
     2009.20465        -8.06587         8.42350
     2009.20739        23.65947         8.51213
     2009.21013        12.44381         8.50369
     2009.21286         3.15415         8.30815
     2009.21560        23.31849         8.28283
     2009.21834        17.83583         8.26736
     2009.22108        19.59617         8.19139
     2009.22381        23.21951         8.13934
     2009.22655        28.66585         8.21109
     2009.22929        31.16819         8.16748
     2009.23203        23.68153         8.14356
     2009.23477        21.62387         8.23641
     2009.23750        -6.14279         8.11543
     2009.24024       -10.18245         8.39818
     2009.24298        -7.55911         8.27158
     2009.24572        15.59123         8.52338
     2009.24846        32.59557         8.81458
     2009.26762         8.96195         8.78081
     2009.27036        -1.12271         8.51494
     2009.27310       -10.27637         8.53182
     2009.27583       -11.61303         8.49384
     2009.27857        -4.32369         8.47274
     2009.28131         2.61465         8.83849
     2009.28405        16.34299         8.90179
     2009.28679         9.57533         8.88069
     2009.28952       -19.28433         8.97635
     2009.29226       -12.55699         8.89757
     2009.29500       -12.79265         8.80332
     2009.29774       -11.72831         8.73580
     2009.30047        -7.06997         8.32925
     2009.30321        -4.67263         8.21249
     2009.30595         1.63871         8.24626
     2009.30869        -4.33895         8.05494
     2009.31143        -6.41961         8.08167
     2009.31416        -7.46527         8.04228
     2009.31690        -7.70593         7.95647
     2009.31964        -9.92859         7.96210
     2009.32238        -7.26425         8.01555
     2009.32512        -7.81991         8.23922
     2009.32785        -9.84557         8.28424
     2009.33059        -9.45023         8.05494
     2009.33333       -14.38489         7.94522
     2009.33607       -10.42655         8.00148
     2009.33880        -4.34321         7.92552
     2009.34154         0.07513         8.04650
     2009.34428       -10.89354         8.01274
     2009.34702        -8.70120         8.07745
     2009.34976        -7.54586         7.87347
     2009.35249        -7.90952         7.89879
     2009.35523        -9.97318         7.93818
     2009.35797       -10.53084         8.08308
     2009.36071        -2.85650         8.10699
     2009.36344        -5.79416         7.92130
     2009.36618        -3.58882         7.90020
     2009.36892        -0.40448         7.95084
     2009.37166        -7.66814         7.90864
     2009.37440        -6.26980         7.97335
     2009.37713        -4.09146         8.09574
     2009.37987        -3.83012         8.43476
     2009.38261        -6.33278         8.00008
     2009.38535         0.55756         8.10840
     2009.38809        -6.03710         7.98460
     2009.39082        -8.87076         7.96491
     2009.39356        -2.24842         7.97616
     2009.39630        -2.82808         7.93115
     2009.39904        -3.09074         8.04791
     2009.40177         0.97060         8.09855
     2009.40451        -2.66106         8.05494
     2009.40725         3.46728         8.16185
     2009.40999         0.80762         8.10558
     2009.41273        -1.79304         8.05213
     2009.41546         3.81230         8.05494
     2009.41820         0.01864         8.08448
     2009.42094        -6.88502         8.10136
     2009.42368         2.08432         8.04228
     2009.42642        -3.70234         8.07886
     2009.42915        -2.94000         8.18155
     2009.43189         0.06134         8.23219
     2009.43463         0.75868         8.14497
     2009.43737         7.06802         8.20827
     2009.44010        -1.11364         8.20687
     2009.44284         2.22170         8.16889
     2009.44558         2.44804         8.08730
     2009.44832         4.16838         8.07886
     2009.45106        -0.78028         8.16326
     2009.45379         2.84406         8.19983
     2009.45653        -0.24660         8.11965
     2009.45927         0.42374         8.04791
     2009.46201         5.93908         8.12106
     2009.46475         4.12942         8.14216
     2009.46748         1.56176         8.23922
     2009.47022         4.23210         8.14216
     2009.47296         2.98744         8.07886
     2009.47570         5.95278         7.99586
     2009.47843         5.25312         8.05916
     2009.48117         3.84546         8.24626
     2009.48391         5.80880         8.32785
     2009.48665        -0.92286         8.22234
     2009.48939         3.45948         8.16467
     2009.49212         4.31182         8.19561
     2009.49486         3.48516         8.11402
     2009.49760         3.52250         8.27439
     2009.50034         2.53084         8.22938
     2009.50308         5.99818         8.07604
     2009.50581         2.21352         8.13512
     2009.50855         3.73886         8.11965
     2009.51129         3.92420         8.06338
     2009.51403         3.20454         8.08730
     2009.51676         2.97988         8.06479
     2009.51950         3.57522         8.13512
     2009.52224         0.95456         8.11402
     2009.52498         7.31290         8.12809
     2009.52772         5.26224         8.22375
     2009.53045         5.30258         8.12528
     2009.53319         3.06892         8.07886
     2009.53593         6.65726         8.16185
     2009.53867        -1.30040         8.08730
     2009.54141         6.67994         8.04650
     2009.54414         4.68028         8.31378
     2009.54688         3.56062         8.06760
     2009.54962         8.81596         8.09855
     2009.55236         1.78330         8.05635
     2009.55509         7.72764         8.06901
     2009.55783         6.78798         8.07604
     2009.56057         1.99132         8.39396
     2009.56331         4.61466         8.38552
     2009.56605        -7.65000         8.54167
     2009.56878        -1.43766         8.11543
     2009.57152         5.86668         8.16467
     2009.57426         0.74002         8.21671
     2009.57700         3.51336         8.46711
     2009.57974         4.92770         8.20405
     2009.58247         7.08204         8.15341
     2009.58521         8.88338         8.14075
     2009.58795         5.52572         8.09714
     2009.59069         7.95506         8.15904
     2009.59342         1.11240         8.38412
     2009.59616        11.64274         8.17592
     2009.59890         6.03408         8.10699
     2009.60164         2.26742         8.35035
     2009.60438         1.39976         8.28705
     2009.60711        -1.12090         8.16607
     2009.60985         2.77544         8.28424
     2009.61259         0.01178         8.22375
     2009.61533        -0.08588         8.21531
     2009.61807         1.67246         8.28564
     2009.62080         5.98679         8.20968
     2009.62354         5.60213         8.28283
     2009.62628         6.37447         8.28424
     2009.62902         6.10481         8.26454
     2009.63175         3.89915         8.26314
     2009.63449         5.37049         8.22797
     2009.63723         6.40983         8.31378
     2009.63997         2.53917         8.36161
     2009.64271         2.22551         8.39396
     2009.64544         5.24585         8.28142
     2009.64818         5.09219         8.28564
     2009.65092         3.99753         8.33207
     2009.65366         0.64587         8.29690
     2009.65639         0.15421         8.18295
     2009.65913        -5.30145         8.12668
     2009.66187         5.26589         8.00852
     2009.66461         3.01423         8.02399
     2009.66735         3.84357         8.19139
     2009.67008         6.18691         8.30956
     2009.67282        11.78925         8.34051
     2009.67556         7.12159         8.08026
     2009.67830        13.44793         8.55011
     2009.68104        16.82027         8.53886
     2009.68377        -2.81939         8.33207
     2009.68651         7.74295         8.27580
     2009.68925         6.34729         8.44601
     2009.69199         4.96663         8.27580
     2009.69472         5.33897         8.13372
     2009.69746        12.43031         8.13090
     2009.70020         9.63965         8.04650
     2009.70294        13.27499         8.22516
     2009.70568         2.68433         8.19983
     2009.70841         7.03867         8.38552
     2009.71115         0.08801         8.19983
     2009.71389         3.42135         8.45586
     2009.71663         0.01469         8.25048
     2009.71937        -0.75797         8.19421
     2009.72210        -0.63663         8.18717
     2009.72484        -0.01329         8.35739
     2009.72758         0.90005         8.28986
     2009.73032         7.02539         8.22234
     2009.73305         3.24973         8.17733
     2009.73579        -0.44693         8.47133
     2009.73853         4.49141         8.20827
     2009.74127         9.10675         8.35035
     2009.74401         6.83709         8.54870
     2009.74674         1.32943         8.18999
     2009.74948         0.22777         8.21249
     2009.75222        -1.06589         8.14919
     2009.75496        -0.35855         8.25048
     2009.75770        -3.13421         8.23782
     2009.76043         0.35913         8.18155
     2009.76317         3.17947         8.31941
     2009.76591         3.89181         8.20405
     2009.76865         1.47115         8.42350
     2009.77138        -4.97851         8.10980
     2009.77412        -2.14517         8.20546
     2009.77686         2.90117         8.11965
     2009.77960         8.36851         8.19280
     2009.78234         9.00585         8.28846
     2009.78507        14.79319         8.39678
     2009.78781        -0.64147         8.61060
     2009.79055         8.91487         8.80051
     2009.79329         2.80921         8.83568
     2009.79603        -0.33645         8.69500
     2009.79876         1.57189         8.52198
     2009.80150         1.54323         8.47837
     2009.80424         0.96457         8.69219
     2009.80698        -1.57109         8.59935
     2009.80971         0.68225         8.93837
     2009.81245         5.29359         8.35035
     2009.81519         6.25593         8.39818
     2009.81793         5.52727         8.55292
     2009.82067         1.45561         8.23641
     2009.82340         7.15895         8.29127
     2009.82614         3.45629         8.46993
     2009.82888         5.89463         8.70766
     2009.83162         8.56897         8.83568
     2009.83436        -2.37169         8.51353
     2009.83709        -2.17835         8.57262
     2009.83983        -8.23401         8.24626
     2009.84257         2.76733         8.26314
     2009.84531        17.80767         8.77378
     2009.84804        11.35501         8.68375
     2009.85078        14.77335         8.66687
     2009.85352         7.61069         8.55152
     2009.85626        10.12403         8.66124
     2009.85900        13.29137         8.70344
     2009.86173        13.42371         8.76675
     2009.86447        12.44105         8.93555
     2009.86721         4.21339         8.70063
     2009.86995        -3.60627         8.56277
     2009.87269         2.31807         8.49665
     2009.87542         5.25641         8.55574
     2009.87816         8.42175         8.65421
     2009.88090         0.02509         8.49243
     2009.88364         9.36443         8.50791
     2009.88637        12.84177         8.69922
     2009.88911        15.47011         8.69500
     2009.89185         1.18945         8.70626
     2009.89459         1.47578         8.66546
     2009.89733        -6.18388         8.60638
     2009.90006       -13.05554         8.52479
     2009.90280       -10.52220         8.31800
     2009.90554        -8.22086         8.29127
     2009.90828        -5.53652         8.24626
     2009.91102        -8.31818         8.34473
     2009.91375        -2.01584         8.39256
     2009.91649        -5.69850         8.05213
     2009.91923        -6.38616         8.17029
     2009.92197        -8.22582         8.17733
     2009.92470       -10.00448         8.10277
     2009.92744       -11.55714         8.02540
     2009.93018       -11.76380         7.97757
     2009.93292        -6.09046         8.04650
     2009.93566        -7.27812         8.03243
     2009.93839        -4.44578         8.18999
     2009.94113        -1.70144         8.10418
     2009.94387        -4.67010         8.21531
     2009.94661        -5.55776         8.17592
     2009.94935        -4.04842         7.99867
     2009.95208        -8.69208         7.99164
     2009.95482        -2.43574         8.40944
     2009.95756         0.57560         8.39115
     2009.96030       -15.09306         8.53745
     2009.96303       -20.00972         8.45023
     2009.96577        -4.54838         8.52760
     2009.96851        -3.70704         8.66828
     2009.97125        -3.09270         8.50791
     2009.97399        -9.48836         8.29690
     2009.97672       -13.97702         8.08730
     2009.97946       -11.04568         8.00148
     2009.98220       -12.17834         8.02681
     2009.98494       -10.07200         7.99867
     2009.98767        -7.36266         8.15623
     2009.99041        -7.87732         8.02540
     2009.99315        -7.73398         8.02259
     2009.99589        -8.14064         7.95506
     2009.99863        -5.89530         8.03806
     2010.00410        -6.97762         8.20687
     2010.00684       -12.89028         8.22234
     2010.00958       -12.74994         8.36583
     2010.01232       -12.18160         8.42491
     2010.01505       -14.48826         8.42632
     2010.01779       -10.44192         8.15763
     2010.02053       -12.18458         8.80754
     2010.02327       -11.19024         8.72173
     2010.02600       -14.36790         8.35739
     2010.02874         3.89144         8.48118
     2010.03148         0.74578         8.30112
     2010.03422       -12.41288         8.44179
     2010.03696        -9.45554         8.71610
     2010.03969        -1.50420         9.00167
     2010.04243        -6.85886         8.46571
     2010.04517        -1.11152         8.36723
     2010.04791         1.89582         8.51494
     2010.05065         0.92516         8.66265
     2010.05338        -2.61650         8.73721
     2010.05612         1.81884         8.52479
     2010.05886        -6.55482         8.12950
     2010.06160       -10.70648         8.18999
     2010.06433        -7.55914         8.30393
     2010.06707        -9.09580         8.39115
     2010.06981       -12.47446         8.67953
     2010.07255       -11.01312         8.66828
     2010.07529        -7.97078         8.46711
     2010.07802        -1.93944         8.30675
     2010.08076        -6.42110         8.29831
     2010.08350        -8.18976         8.12106
     2010.08624        -0.82942         8.13512
     2010.08898        -1.99308         8.49665
     2010.09171        -2.97174         8.24626
     2010.09445        -1.15440         8.36161
     2010.09719        -3.82206         8.38834
     2010.09993       -10.39372         8.01696
     2010.10266        -9.89738         8.08448
     2010.10540        -5.41204         8.24766
     2010.10814        -1.25670         8.27861
     2010.11088        -6.63636         8.29690
     2010.11362        -2.24502         8.17733
     2010.11635         4.27332         8.24626
     2010.11909         0.74566         8.17873
     2010.12183         5.53900         8.28283
     2010.12457        -4.49666         8.03665
     2010.12731        -1.76132         8.49665
     2010.13004       -10.83598         8.10840
     2010.13278       -12.22964         8.15060
     2010.13552       -11.43630         8.17311
     2010.13826        -6.12296         8.04087
     2010.14099        -7.45862         7.95084
     2010.14373        -9.90128         8.18155
     2010.14647        -3.32894         8.33207
     2010.14921        -9.09160         8.15060
     2010.15195        -9.05826         8.00993
     2010.15468         0.43108         8.04931
     2010.15742        -1.58158         8.19702
     2010.16016         0.21276         8.21953
     2010.16290        -4.54390         8.11262
     2010.16564        -4.71356         8.15341
     2010.16837        -5.93022         8.05494
     2010.17111        -7.58489         7.99726
     2010.17385        -6.48955         8.06057
     2010.17659        -5.64521         8.11262
     2010.17932        -1.26487         8.05213
     2010.18206        -9.54453         7.94381
     2010.18480        -5.78219         7.88332
     2010.18754        -6.67685         8.02962
     2010.19028        -0.21951         8.14919
     2010.19301        -1.69017         8.04650
     2010.19575        -2.01183         8.22093
     2010.19849        -7.92949         8.12528
     2010.20123        -7.27615         8.17311
     2010.20397        -3.07181         8.20405
     2010.20670        -4.72247         8.10558
     2010.20944       -12.39613         8.03947
     2010.21218       -11.44379         8.05213
     2010.21492        -9.25945         8.08167
     2010.21765         6.00289         8.25470
     2010.22039        -8.85577         8.11402
     2010.22313       -10.19043         8.00571
     2010.22587        -8.25809         8.16748
     2010.22861        -4.89475         8.09152
     2010.23134       -14.45841         8.10699
     2010.23408        -9.00307         8.11402
     2010.23956         7.07761         8.27861
     2010.24230         2.20195         8.54730
     2010.24503        -6.03471         8.33910
     2010.24777        -9.66537         8.41788
     2010.25051        -3.58503         8.49806
     2010.25325         0.80931         8.64858
     2010.25598         2.66765         8.34051
     2010.25872         0.23099         8.24626
     2010.26146        -9.79667         8.40100
     2010.26420        -9.79233         8.53886
     2010.26694         6.25001         8.42632
     2010.26967        -0.69165         9.16907
     2010.27241        -2.14831         9.11140
     2010.27515        -6.98997         8.52338
     2010.27789        -7.32263         8.45445
     2010.28062        -4.80429         8.13794
     2010.28336        -7.26995         8.28564
     2010.28610        -9.53161         8.12246
     2010.28884        -7.23527         7.91849
     2010.29158        -3.08193         7.98460
     2010.29431        -3.98959         7.95366
     2010.29705        -2.00525         8.02259
     2010.29979       -10.22391         8.28846
     2010.30253        -3.36457         8.20968
     2010.30527         0.05977         8.31659
     2010.30800         4.13811         8.16607
     2010.31074        -4.05155         7.99023
     2010.31348        -6.27021         7.90442
     2010.31622        -0.58187         8.14356
     2010.31895         5.21947         8.42632
     2010.32169         2.30581         8.28564
     2010.32443        -2.67885         8.29408
     2010.32717         1.25149         8.11543
     2010.32991       -11.38717         8.24344
     2010.33264        -7.84783         7.98882
     2010.33538         5.63651         8.20124
     2010.33812        -7.25415         7.94100
     2010.34086       -12.30981         7.96350
     2010.34360        -6.84947         8.11402
     2010.34633        -7.58013         8.28283
     2010.34907        -3.55179         8.06619
     2010.35181        -2.22845         8.01415
     2010.35455        -9.04311         7.97194
     2010.35728       -12.52977         8.02540
     2010.36002        -4.70843         8.23782
     2010.36276        -5.65609         7.99726
     2010.36550        -4.54375         8.41788
     2010.36824        -0.04541         8.44742
     2010.37097        -1.84507         8.20546
     2010.37371        -0.71373         8.04087
     2010.37645         9.12561         8.01415
     2010.37919        -1.08905         8.33066
     2010.38193         4.02229         8.34191
     2010.38466        -0.30737         8.11684
     2010.38740         3.64197         8.04650
     2010.39014        -4.44969         8.01555
     2010.39288       -10.68335         7.90583
     2010.39561        -7.05601         7.95506
     2010.39835        -6.49267         8.09996
     2010.40109        -6.47433         8.25048
     2010.40383        -5.87399         8.22234
     2010.40657        -3.46565         8.13512
     2010.40930         1.04569         8.12668
     2010.41204        -2.54997         8.18295
     2010.41478         0.73137         8.15201
     2010.41752        13.06371         8.21109
     2010.42026        -0.73195         8.05916
     2010.42299        -0.31461         7.99023
     2010.42573        -7.33527         7.97757
     2010.42847        -4.32493         8.02681
     2010.43121        -8.95959         8.05494
     2010.43394        -5.45125         7.99304
     2010.43668        -5.57591         7.92552
     2010.43942        -3.62757         7.95647
     2010.44216        -8.25323         7.98742
     2010.44490        -6.35790         8.03384
     2010.44763        -6.78356         8.00993
     2010.45037         2.48778         7.82142
     2010.45311        -4.22488         7.94522
     2010.45585        -3.89454         7.97335
     2010.45859        -4.22420         8.23782
     2010.46132        -1.07086         8.19561
     2010.46406        -1.90852         7.91708
     2010.46680        -5.82618         7.99445
     2010.46954        -4.51884         7.94240
     2010.47227        -8.72450         8.04087
     2010.47501        -3.72516         8.02259
     2010.47775        -6.56382         8.27861
     2010.48049        -4.17848         8.18295
     2010.48323         0.74586         7.87207
     2010.48596        -3.37680         8.04087
     2010.48870         2.16554         8.04369
     2010.49144        -1.70212         7.99304
     2010.49418         1.09922         7.87347
     2010.49692        -3.44344         7.89457
     2010.49965         1.22790         8.03525
     2010.50239         2.74524         8.04650
     2010.50513        -1.80342         7.98742
     2010.50787        -3.91908         7.86222
     2010.51060        -1.19674         7.99304
     2010.51334         2.09760         7.84252
     2010.51608        -1.31606         7.89598
     2010.51882         7.00528         7.87066
     2010.52156         3.56062         7.96913
     2010.52429         8.47396         7.92693
     2010.52703         5.90830         7.91286
     2010.52977        -0.05636         7.92833
     2010.53251         2.33798         7.95647
     2010.53525        -2.88768         7.88613
     2010.53798        -6.81334         7.87769
     2010.54072        -3.61800         7.87629
     2010.54346        -7.33266         7.93537
     2010.54620         0.46468         7.93396
     2010.54893        -2.78998         7.93537
     2010.55167        -4.69264         7.91005
     2010.55441         2.94270         8.00430
     2010.55715         3.20704         7.94100
     2010.55989        -1.84662         7.97335
     2010.56262         7.40972         8.01133
     2010.56536         1.38806         7.93115
     2010.56810        -2.30360         7.89457
     2010.57084         2.57774         7.94240
     2010.57357        -2.17192         8.19561
     2010.57631         1.09242         8.26314
     2010.57905        -0.33624         7.93818
     2010.58179        -1.62590         7.96491
     2010.58453        -5.90656         7.95225
     2010.58726        -3.31122         8.13653
     2010.59000        -0.13588         8.15482
     2010.59274        -1.21954         7.96772
     2010.59548         3.41880         8.03806
     2010.59822         4.78914         7.90583
     2010.60095         0.21848         7.91989
     2010.60369         0.92082         7.78063
     2010.60643         0.62816         7.90161
     2010.60917         0.16950         7.81439
     2010.61190        -2.23016         7.74124
     2010.61464        -1.31782         7.87488
     2010.61738        -4.67948         7.74968
     2010.62012         0.32886         7.80595
     2010.62286        -2.63480         7.76375
     2010.62559         3.61854         7.77922
     2010.62833         6.10488         7.85096
     2010.63107         3.82022         8.00993
     2010.63381        10.90656         7.80736
     2010.63655        10.93890         7.89035
     2010.63928         4.93924         7.86925
     2010.64202         4.87158         7.80454
     2010.64476         2.95092         7.93256
     2010.64750         9.55226         7.81439
     2010.65023        13.51460         8.11965
     2010.65297         4.21994         8.19280
     2010.65571         3.76628         7.76797
     2010.65845         8.21162         7.62167
     2010.66119         4.91596         7.82002
     2010.66392         8.65730         7.96913
     2010.66666         9.90964         7.88613
     2010.66940        10.16398         7.74265
     2010.67214         6.83732         7.78766
     2010.67488        10.08466         7.76375
     2010.67761         9.67800         7.72295
     2010.68035         6.35834         7.93115
     2010.68309         9.64168         7.94944
     2010.68583         9.54102         7.87629
     2010.68856         7.59936         8.13512
     2010.69130         4.35370         7.79329
     2010.69404         3.13804         7.96210
     2010.69678         3.04638         7.79188
     2010.69952         0.15772         7.86925
     2010.70225         4.29406         7.80032
     2010.70499        10.15240         7.80595
     2010.70773         5.00574         8.02118
     2010.71047        12.13508         7.86785
     2010.71321         7.04842         7.93818
     2010.71594        13.30476         8.11262
     2010.71868        12.30810         8.08589
     2010.72142         6.56743         8.13512
     2010.72416         4.45377         8.02962
     2010.72689        11.96011         8.02962
     2010.72963         5.13945         7.93959
     2010.73237        14.65079         7.88754
     2010.73511         9.40513         8.12106
     2010.73785        10.75747         8.18858
     2010.74058        13.60781         8.32503
     2010.74332         5.23115         7.87488
     2010.74606        10.66549         7.91567
     2010.74880         9.94383         7.99445
     2010.75154         7.90517         7.80876
     2010.75427         4.00951         8.02962
     2010.75701         2.45585         8.13794
     2010.75975         1.21619         7.96913
     2010.76249         5.36053         7.76937
     2010.76522         1.14387         7.86222
     2010.76796         1.01821         7.98038
     2010.77070        -0.05245         8.32363
     2010.77344        16.54389         8.37005
     2010.77618         0.20823         7.75390
     2010.77891        -4.38243         7.80454
     2010.78165         5.94891         7.80314
     2010.78439        12.06425         7.96772
     2010.78713         2.57659         7.87347
     2010.78987         6.94593         7.75953
     2010.79260         4.32127         7.72295
     2010.79534         2.08961         7.76375
     2010.79808         3.73395         7.79892
     2010.80082         3.83529         7.68919
     2010.80355         7.23763         7.87347
     2010.80629        14.18597         7.99445
     2010.80903         2.72331         7.85518
     2010.81177        11.24165         8.08448
     2010.81451        14.58499         7.94662
     2010.81724        10.82133         8.00571
     2010.81998         7.90867         7.94803
     2010.82272         4.29401         7.99586
     2010.82546         1.13735         7.79048
     2010.82820         8.74069         7.82142
     2010.83093         8.26803         8.33347
     2010.83367        11.15737         8.66968
     2010.83641         4.33471         7.89317
     2010.83915        -1.13495         7.80173
     2010.84188         9.22839         7.81580
     2010.84462         9.87373         8.22797
     2010.84736         8.65407         8.05072
     2010.85010         2.81041         8.23078
     2010.85284         2.12775         7.96632
     2010.85557         2.65509         7.64699
     2010.85831         3.35643         7.95928
     2010.86105        -3.00223         7.88473
     2010.86379       -13.29389         7.87769
     2010.86653        -7.08355         7.89317
     2010.86926        -6.12721         8.08589
     2010.87200         3.42313         8.01555
     2010.87474        -0.04453         8.25048
     2010.87748        -1.56519         7.86644
     2010.88021         1.95015         7.90864
     2010.88295        -1.61351         8.08589
     2010.88569        -4.52417         7.93818
     2010.88843        -3.22383         8.31237
     2010.89117        -2.40749         8.34613
     2010.89390        -7.72315         7.86925
     2010.89664         1.55319         7.77922
     2010.89938        -2.54547         7.84393
     2010.90212         7.23287         7.82986
     2010.90485        -2.27579         7.92974
     2010.90759         3.05155         7.77219
     2010.91033         2.34389         7.80454
     2010.91307        -1.78477         7.87347
     2010.91581        -1.38243         7.88332
     2010.91854        -0.13809         7.94803
     2010.92128        -0.94775         7.96210
     2010.92402         0.67459         7.90583
     2010.92676         5.79793         7.99304
     2010.92950        -0.95373         7.78626
     2010.93223        -0.14739         7.85237
     2010.93497        14.04695         7.95928
     2010.93771         7.00729         7.90723
     2010.94045        -5.78537         7.93678
     2010.94318         0.77497         8.02259
     2010.94592        -0.58969         7.63573
     2010.94866         4.84065         7.66528
     2010.95140         5.70999         7.86222
     2010.95414         2.84433         7.62448
     2010.95687        -1.41633         7.67372
     2010.95961        -2.80199         7.88754
     2010.96235         0.78135         7.55133
     2010.96509         2.25169         7.55274
     2010.96783        -1.76297         7.57525
     2010.97056        -3.00863         7.74405
     2010.97330         1.02971         7.77781
     2010.97604         7.80105         7.90301
     2010.97878        11.04939         7.89176
     2010.98151         0.60873         7.90723
     2010.98425         0.61107         7.95084
     2010.98699        10.13741         8.03384
     2010.98973         7.48975         8.06057
     2010.99247        -0.57091         8.27439
     2010.99520         1.54442         8.07604
     2010.99794        -6.29224         7.86503
     2011.00342         0.11644         7.74968
     2011.00616         4.18678         7.61323
     2011.00889         4.65612         7.71311
     2011.01163        -0.94354         7.57806
     2011.01437        -0.62020         7.63151
     2011.01711        -2.34086         7.78344
     2011.01984         2.20648         7.47818
     2011.02258        -7.26318         7.52179
     2011.02532        -3.20184         7.72014
     2011.02806        -2.07150         7.87488
     2011.03080         4.04084         7.75531
     2011.03353         9.44918         7.87910
     2011.03627         1.53952         7.87910
     2011.03901        -3.30014         7.65824
     2011.04175        -3.36580         7.80173
     2011.04449        -3.83846         7.78485
     2011.04722       -11.70012         7.65402
     2011.04996       -11.12378         7.68356
     2011.05270       -12.25644         7.61745
     2011.05544        -8.70110         7.87347
     2011.05817        -5.29476         7.63433
     2011.06091        -4.07542         7.77359
     2011.06365        -3.78708         7.77922
     2011.06639        -7.30674         7.74265
     2011.06913       -11.13340         8.23078
     2011.07186        -4.59806         7.77922
     2011.07460        -0.91372         7.73280
     2011.07734        -6.70638         7.71592
     2011.08008       -10.69604         7.66387
     2011.08282       -14.12770         7.53586
     2011.08555        -9.84036         7.56821
     2011.08829       -10.67002         7.67653
     2011.09103       -11.95668         7.85096
     2011.09377         3.22866         7.88473
     2011.09650       -10.24500         7.67090
     2011.09924        -8.60466         7.87629
     2011.10198        -9.93532         7.79329
     2011.10472        -5.38598         7.59635
     2011.10746        -9.24864         7.63011
     2011.11019        -5.52130         7.61041
     2011.11293         1.47004         7.57243
     2011.11567         3.94338         7.74968
     2011.11841         0.53572         7.67231
     2011.12115         5.66606         7.72577
     2011.12388        -0.26660         7.96913
     2011.12662         1.25174         8.05916
     2011.12936         2.61708         7.83690
     2011.13210        -6.44058         7.78485
     2011.13483       -12.65724         7.83690
     2011.13757        -8.31990         7.79892
     2011.14031       -11.95856         7.77781
     2011.14305        -8.50522         7.84393
     2011.14579        -8.16788         7.76234
     2011.14852        -5.35554         7.80173
     2011.15126        -3.71320         7.76375
     2011.15400        -4.94886         7.82846
     2011.15674         4.54648         7.79188
     2011.15948        40.51682         8.20968
     2011.16495        10.63250         7.97054
     2011.16769        -1.01816         7.79751
     2011.17043       -11.90782         7.87910
     2011.17316       -22.36348         7.74265
     2011.17590       -18.68814         7.69763
     2011.17864        -6.63580         7.62307
     2011.18138        -7.20046         7.61885
     2011.18412       -10.48212         7.71451
     2011.18685        -4.10378         7.83690
     2011.18959        -1.88744         8.10277
     2011.19233         8.80590         8.21953
     2011.19507         6.78724         8.01555
     2011.19780        22.83558         8.42350
     2011.20054         4.15092         8.24626
     2011.20328        37.87926         8.37427
     2011.20876        37.20194         8.42491
     2011.21149        29.60228         8.32785
     2011.21423        28.02362         8.30815
     2011.21697        22.33896         8.50369
     2011.21971        25.93530         8.48821
     2011.22245        13.68264         8.20546
     2011.22518        -0.66402         8.19843
     2011.22792        -1.77168         8.28564
     2011.23066        -2.89434         8.33207
     2011.23340       -14.93000         8.25048
     2011.23613       -17.73566         8.30253
     2011.23887        -9.87932         8.34473
     2011.24161        -3.68198         8.24485
     2011.24435         5.17736         8.24485
     2011.24709        -8.38630         8.08167
     2011.24982         0.42804         8.22516
     2011.25256        16.28638         8.17592
     2011.25530        15.92372         8.13090
     2011.42885        -7.63652        16.16474
     2011.43052        -8.40053         7.91708
     2011.43326       -17.86819         7.82424
     2011.43600       -13.52085         7.78626
     2011.43874       -12.46651         7.82846
     2011.44147       -12.18717         7.80173
     2011.44421       -13.17683         7.83127
     2011.44695       -11.26949         7.90020
     2011.44969       -10.34915         7.98179
     2011.45243       -12.59181         7.85518
     2011.45517       -11.32648         7.86081
     2011.45790       -13.53013         7.87347
     2011.46064       -10.64379         7.88754
     2011.46338       -12.62645         8.02540
     2011.46611        -7.48711         7.93256
     2011.46885        -7.32177         7.82986
     2011.47159        -4.13443         7.80173
     2011.47433        -8.56909         7.79048
     2011.47707        -9.93975         7.82002
     2011.47980        -5.61541         7.84252
     2011.48254        -7.40307         7.84674
     2011.48528        -8.38473         7.93396
     2011.48802        -1.73639         7.91145
     2011.49076        -2.29505         8.09011
     2011.49349       -10.17571         8.01274
     2011.49623        -5.78737         8.00008
     2011.49897        -1.99803         7.91427
     2011.50171         0.70531         7.85941
     2011.50444        -6.62235         7.76797
     2011.50718        -6.38801         7.83971
     2011.50992        -4.53067         7.87347
     2011.51266        -2.54833         7.93396
     2011.51540       -10.04199         7.90583
     2011.51813        -0.59865         8.00430
     2011.52087        -1.78831         7.88051
     2011.52361        -3.08097         7.94803
     2011.52635        -4.99463         7.98179
     2011.52908        -3.12729         8.02540
     2011.53182        -3.38695         7.98460
     2011.53456        -5.92961         8.00008
     2011.53730        -2.97427         8.05213
     2011.54004        -5.14893         7.93678
     2011.54277        -5.49359         7.98320
     2011.54551        -5.60526         7.81580
     2011.54825        -6.52292         7.89598
     2011.55099        -6.65558         8.04369
     2011.55373        -2.39724         7.86925
     2011.55646        -1.06390         7.88332
     2011.55920        -5.50256         7.86503
     2011.56194        -1.54222         7.91005
     2011.56468        -2.26888         7.87629
     2011.56741         3.01646         7.86363
     2011.57015        -4.14420         7.92552
     2011.57289        -5.07386         7.86222
     2011.57563         0.88248         7.81439
     2011.57837         3.42382         7.97335
     2011.58110        -6.09284         7.91286
     2011.58384        -1.69750         7.92693
     2011.58658         1.31384         8.09011
     2011.58932        -5.90382         7.78626
     2011.59206        -1.45948         7.84393
     2011.59479        -2.25014         7.90301
     2011.59753        -0.44880         7.91989
     2011.60027         1.38954         7.84252
     2011.60301         3.11388         7.87207
     2011.60574        -3.79078         7.92693
     2011.60848         4.13256         8.24626
     2011.61122         0.00290         8.19280
     2011.61396         1.31224         8.02821
     2011.61670        -0.54642         8.10558
     2011.61943        -4.19908         8.03384
     2011.62217         4.54226         8.00148
     2011.62491        -1.33440         7.99586
     2011.62765         2.06394         7.89739
     2011.63039         3.46328         7.97616
     2011.63312         8.47362         7.91567
     2011.63586        10.91396         7.83408
     2011.63860        14.09730         8.13372
     2011.64134         6.02164         8.48399
     2011.64407         3.99598         8.00993
     2011.64681         7.42032         7.99304
     2011.64955        11.31966         8.18155
     2011.65229         2.94900         8.03947
     2011.65503         8.04534         8.12106
     2011.65776         6.39868         8.15201
     2011.66050         1.57502         8.16185
     2011.66324         7.60136         7.99445
     2011.66598         1.62370         8.08589
     2011.66872         4.63404         8.06479
     2011.67145         8.63938         7.93959
     2011.67419         9.94972         7.92271
     2011.67693        11.16706         7.94522
     2011.67967         6.75540         7.89879
     2011.68240         5.58374         7.99726
     2011.68514         2.24908         8.03525
     2011.68788         5.48842         8.09011
     2011.69062         6.41776         8.06197
     2011.69336         7.96310         7.95928
     2011.69609         7.98044         8.03947
     2011.69883        10.00878         8.08870
     2011.70157         2.64812         7.99586
     2011.70431         2.64146         8.07463
     2011.70705         3.45180         8.23641
     2011.70978         1.58214         8.00008
     2011.71252        15.58748         8.42913
     2011.71526         9.06782         8.23078
     2011.71800         7.44516         8.28846
     2011.72073        10.51950         8.10277
     2011.72347         6.96784         8.25188
     2011.72621        18.02318         8.35035
     2011.72895        13.37152         8.04650
     2011.73169        21.33286         8.35739
     2011.73442         9.19920         8.25610
     2011.73716        13.69554         8.25048
     2011.73990        10.01788         8.07886
     2011.74264         5.54422         8.07745
     2011.74538        12.95256         8.26736
     2011.74811        12.41590         8.24063
     2011.75085        13.76224         8.28564
     2011.75359        10.63158         8.30112
     2011.75633        10.91592         8.24204
     2011.75906        11.04126         8.19702
     2011.76180         7.26460         8.23360
     2011.76454         7.13494         8.20546
     2011.76728         7.11828         8.30112
     2011.77002         6.84962         8.20124
     2011.77275         8.15696         8.34613
     2011.77549         7.04030         8.32925
     2011.77823         3.15764         8.31097
     2011.78097         2.55698         8.22797
     2011.78371         4.56032         8.14216
     2011.78644         9.97766         8.05072
     2011.78918         4.06900         7.96350
     2011.79192         3.23634         7.95366
     2011.79466         4.37268         8.05353
     2011.79739         7.88402         8.05072
     2011.80013         4.22436         8.09855
     2011.80287         3.03270         8.09152
     2011.80561         3.33204         8.22656
     2011.80835        10.17438         8.06901
     2011.81108        -2.60428         7.90161
     2011.81382        -5.00294         8.24907
     2011.81656         1.12940         7.95506
     2011.81930         1.00474         7.83830
     2011.82203         1.08507         8.01274
     2011.82477         5.33141         8.00711
     2011.82751         0.54075         8.11121
     2011.83025        -0.00091         8.02259
     2011.83299        -4.01057         7.85659
     2011.83572         2.80177         7.93818
     2011.83846         1.78911         7.89317
     2011.84120         4.66045         7.76375
     2011.84394         6.41879         7.83830
     2011.84668        -0.38987         7.76937
     2011.84941         0.01447         7.81017
     2011.85215        -2.81519         7.91567
     2011.85489         6.25815         8.17592
     2011.85763        -3.33251         8.18014
     2011.86036         8.50083         8.13090
     2011.86310         5.29117         7.85941
     2011.86584         6.35851         7.94662
     2011.86858         9.57585         7.98882
     2011.87132         0.98419         7.85659
     2011.87405         2.03553         7.88473
     2011.87679         2.19987         7.92693
     2011.87953        -7.83779         8.06901
     2011.88227         0.28055         7.81017
     2011.88501        -0.39411         7.75812
     2011.88774        -3.75877         7.79048
     2011.89048         7.77257         8.14216
     2011.89322         2.34791         8.00148
     2011.89596         0.44625         7.78203
     2011.89869         3.92259         8.04509
     2011.90143         5.38093         8.12809
     2011.90417        -1.17573         8.28846
     2011.90691        -3.37239         7.87347
     2011.90965         1.56895         7.78626
     2011.91238        -4.51471         8.08730
     2011.91512        -5.59937         7.88051
     2011.91786         0.31197         8.01837
     2011.92060       -10.51269         7.84815
     2011.92334        -6.37535         7.98460
     2011.92607        -5.50501         7.89739
     2011.92881        -7.38967         7.89739
     2011.93155        -5.21433         7.92693
     2011.93429        -2.78899         7.92833
     2011.93702        -3.97365         7.92974
     2011.93976         0.52669         7.89598
     2011.94250        -2.74897         7.81017
     2011.94524       -10.33563         7.92271
     2011.94798         2.62271         7.99726
     2011.95071        -0.68795         7.87769
     2011.95345        -1.39061         7.95084
     2011.95619        -3.55827         7.96069
     2011.95893        -4.31993         7.66950
     2011.96167         5.61241         7.83690
     2011.96440        -2.33625         7.89739
     2011.96714         0.71809         7.78766
     2011.96988         1.24243         7.51616
     2011.97262        -5.85323         7.64840
     2011.97535        -2.45889         7.63573
     2011.97809        -6.14455         7.74968
     2011.98083         6.38279         7.71592
     2011.98357         0.67713         7.62167
     2011.98631        14.05447         7.92130
     2011.98904         4.25781         8.10136
     2011.99178         4.01415         7.78203
     2011.99452         4.33849         7.76515
     2011.99726        -0.95817         7.67090
     2012.00273         7.42851         7.68778
     2012.00547        -0.51015         7.70748
     2012.00821         9.40719         8.02540
     2012.01095         0.54353         7.73280
     2012.01368        -1.88613         7.57665
     2012.01642         1.27721         7.69622
     2012.01916        -0.17345         7.77781
     2012.02190         9.04489         7.68638
     2012.02464         0.32923         7.55696
     2012.02737        -1.47043         7.54711
     2012.03011        -0.75609         7.56962
     2012.03285         0.40825         7.75531
     2012.03559        -0.49841         7.60057
     2012.03833        -8.03507         7.46271
     2012.04106        -6.64873         7.55274
     2012.04380        -5.22239         7.56258
     2012.04654         3.75395         7.56962
     2012.04928         3.19029         7.63996
     2012.05201         4.72263         7.62589
     2012.05475        18.75397         7.74405
     2012.05749        13.75431         7.96350
     2012.06023        15.04665         7.89176
     2012.06297         7.35799         7.74687
     2012.06570        -3.78467         7.74405
     2012.06844         6.90367         8.34191
     2012.07118         4.63901         8.33629
     2012.07392         6.57135         8.17170
     2012.07666         5.23969         8.04931
     2012.07939        -6.83397         7.78063
     2012.08213         6.24237         7.58509
     2012.08487        -1.10129         7.73983
     2012.08761        -3.68895         7.96632
     2012.09034        -1.38261         7.80454
     2012.09308        -1.81727         7.59072
     2012.09582        -5.64393         7.61041
     2012.09856        -3.40060         7.54570
     2012.10130        -1.09326         7.70466
     2012.10403        -4.99192         7.66246
     2012.10677         0.21542         7.73421
     2012.10951        -8.56324         7.76656
     2012.11225        -7.10690         7.64980
     2012.11498        -5.06956         7.58228
     2012.11772         2.26278         7.61885
     2012.12046         1.81212         7.66668
     2012.12320        -6.63154         7.66246
     2012.12594        -5.29120         7.64980
     2012.12867        -4.91286         7.59213
     2012.13141        17.49848         8.05494
     2012.16153        42.66922         8.39678
     2012.16427        37.03656         8.55433
     2012.16700        35.86890         8.53323
     2012.16974        28.03424         8.62045
     2012.17248        36.68558         8.49384
     2012.17522        77.34492         8.65280
     2012.33949       -12.34368         7.62870
     2012.34223       -13.69934         7.60057
     2012.34496       -16.57500         7.59775
     2012.34770       -17.37666         7.65543
     2012.35044        -5.75732         7.72577
     2012.35318       -10.52798         7.55133
     2012.35592        -6.83564         7.54008
     2012.35865       -10.41730         7.54711
     2012.36139       -11.01996         7.49928
     2012.36413       -13.98262         7.50069
     2012.36687       -14.11028         7.59635
     2012.36961       -11.29494         7.64699
     2012.37234        -8.23161         7.64277
     2012.37508        -7.28727         7.63855
     2012.37782        -6.28593         7.96210
     2012.38056        -9.56359         7.89457
     2012.38329        -8.77325         7.84393
     2012.38603       -11.56091         8.03947
     2012.38877        -7.04457         8.04087
     2012.39151       -10.29323         7.95647
     2012.39425        -9.49689         8.00289
     2012.39698       -10.50755         7.95506
     2012.39972       -10.85721         7.77219
     2012.40246       -11.21387         7.72436
     2012.40520        -9.13253         7.75249
     2012.40794        -7.81919         7.74968
     2012.41067        -5.20685         7.75249
     2012.41341        -9.02951         7.76797
     2012.41615         2.42583         7.98320
     2012.41889        -7.33283         7.95788
     2012.42162        -9.66449         7.79329
     2012.42436        -7.74115         7.79329
     2012.42710        -9.50781         7.90161
     2012.42984        -0.53447         7.71592
     2012.43258        -5.74113         7.83830
     2012.43531        -8.32579         7.65965
     2012.43805        -9.34045         7.71733
     2012.44079       -14.71511         7.73561
     2012.44353       -11.54077         7.72999
     2012.44626        -9.74343         7.75390
     2012.44900        -8.12309         7.72155
     2012.45174        -9.92175         7.68919
     2012.45448        -7.87441         7.62589
     2012.45722        -5.06607         7.83127
     2012.45995        -4.59873         7.87629
     2012.46269        -5.64439         7.67934
     2012.46543        -9.54805         7.84815
     2012.46817        -4.69871         7.81158
     2012.47091        -0.04937         7.79048
     2012.47364        -1.93803         7.71873
     2012.47638        -4.53169         7.87910
     2012.47912        -1.97035         7.74405
     2012.48186        -6.10601         7.74124
     2012.48459        -4.60367         7.77078
     2012.48733        -8.79333         7.78344
     2012.49007         0.39301         7.67231
     2012.49281         7.25135         7.77500
     2012.49555        -6.87231         7.77359
     2012.49828        -6.36897         7.77641
     2012.50102        -3.27363         7.70748
     2012.50376        -4.28129         7.87066
     2012.50650        -0.42795         7.72014
     2012.50924        -5.37861         7.83127
     2012.51197        -7.43127         7.86503
     2012.51471        -8.33793         7.67090
     2012.51745        -3.68559         7.65543
     2012.52019        -3.08225         7.68638
     2012.52292        -6.29791         7.67512
     2012.52566         1.17643         7.69200
     2012.52840        -4.88623         7.68075
     2012.53114        -0.67489         8.09152
     2012.53388        -5.93555         7.71733
     2012.53661        -6.73321         7.76515
     2012.53935        -6.61787         7.86644
     2012.54209         1.97347         7.64840
     2012.54483        -2.24819         7.71733
     2012.54757        -3.07585         7.77500
     2012.55030        -2.76251         7.83127
     2012.55304         3.64983         7.75812
     2012.55578        -3.22083         7.68075
     2012.55852        -7.30849         7.88332
     2012.56125        -2.22115         7.71311
     2012.56399         0.74819         7.76797
     2012.56673         0.17853         7.76234
     2012.56947        -0.95113         7.73139
     2012.57221         3.12121         7.72014
     2012.57494        -1.50745         7.75109
     2012.57768         0.90789         7.78907
     2012.58042         1.10223         7.86503
     2012.58316        -8.43743         7.79470
     2012.58590         4.09591         7.68075
     2012.58863         7.38825         7.81720
     2012.59137         3.56959         7.76093
     2012.59411         3.19393         7.68919
     2012.59685         5.70427         7.80454
     2012.59958         0.20661         7.74124
     2012.60232         0.59795         7.96913
     2012.60506         0.95329         7.69200
     2012.60780         2.20363         7.80314
     2012.61054         5.71297         7.72858
     2012.61327         2.97731         7.71451
     2012.61601         3.10965         7.70044
     2012.61875         2.65899         7.83549
     2012.62149         5.92333         7.73561
     2012.62423         5.49167         7.76515
     2012.62696         9.26801         7.79892
     2012.62970        -0.58565         7.76375
     2012.63244        -2.52431         7.71029
     2012.63518         6.04403         7.81439
     2012.63791         3.42537         7.84534
     2012.64065         2.44571         7.80314
     2012.64339         5.45105         7.72295
     2012.64613         5.19739         7.70607
     2012.64887         8.62772         7.73702
     2012.65160         8.40406         7.83127
     2012.65434         7.67340         7.95225
     2012.65708         7.30774         7.95928
     2012.65982         0.94408         7.93818
     2012.66256        -0.00458         7.79610
     2012.66529         6.86976         7.74827
     2012.66803         2.54210         7.76656
     2012.67077         2.51744         7.78626
     2012.67351         3.39478         7.79048
     2012.67624         4.81712         7.69060
     2012.67898         6.45846         7.81720
     2012.68172         7.06980         7.77641
     2012.68446         3.69914         7.81580
     2012.68720         6.01548         7.73702
     2012.68993         5.20982         7.71592
     2012.69267         3.28616         8.00148
     2012.69541         1.30350         7.89457
     2012.69815        -0.42116         7.94944
     2012.70089         0.02218         7.92271
     2012.70362        -0.44248         7.74124
     2012.70636         5.30686         7.79470
     2012.70910         0.74320         7.73843
     2012.71184         5.57954         7.69341
     2012.71457         6.34188         7.76375
     2012.71731        13.89522         7.73843
     2012.72005        11.56256         7.74546
     2012.72279         9.25390         7.73843
     2012.72553         9.83124         7.80314
     2012.72826         4.76558         7.74265
     2012.73100         9.06092         7.93537
     2012.73374         9.30726         8.06619
     2012.73648        10.54260         7.74546
     2012.73921        10.87394         7.91567
     2012.74195        11.86628         7.97898
     2012.74469         8.50362         7.84393
     2012.74743        10.50096         7.82564
     2012.75017         2.45430         7.97757
     2012.75290        18.36064         7.83690
     2012.75564         6.07998         7.71733
     2012.75838         4.90232         7.70185
     2012.76112        14.96166         7.66528
     2012.76386        14.59500         7.69060
     2012.76659        13.24034         7.82564
     2012.76933        12.14068         7.85237
     2012.77207        12.57702         7.81861
     2012.77481         7.41136         7.74968
     2012.77754        11.34970         7.73983
     2012.78028        16.02804         7.94522
     2012.78302        13.09538         8.33066
     2012.78576        12.83472         8.13794
     2012.78850        21.45006         8.26454
     2012.79123        19.21240         8.22797
     2012.79397         7.37274         8.01415
     2012.79671         3.88508         7.91708
     2012.79945        16.31042         8.26454
     2012.80219        15.05976         7.91567
     2012.80492         7.07810         7.95366
     2012.80766         7.71044         7.82986
     2012.81040         4.50978         7.99586
     2012.81314        -0.89388         8.01837
     2012.81587         1.14546         7.99586
     2012.81861        -1.85120         8.19983
     2012.82135        -0.60086         8.32644
     2012.82409         9.41648         8.06901
     2012.82683        16.27882         8.10418
     2012.82956         7.24016         8.03947
     2012.83230         6.47850         8.06760
     2012.83504         6.71384         8.17029
     2012.83778         8.36618         8.05635
     2012.84052        10.84452         8.15623
     2012.84325         4.37386         8.12387
     2012.84599         6.28920         8.24626
     2012.84873        11.71554         8.23360
     2012.85147         9.89888         7.96632
     2012.85420         0.20022         7.73280
     2012.85694         2.19356         7.82846
     2012.85968         1.79390         7.80173
     2012.86242        -0.67376         7.84674
     2012.86516        11.86858         8.19702
     2012.86789        -1.55008         8.29971
     2012.87063         4.34526         7.91989
     2012.87337         1.74260         7.95225
     2012.87611         9.00594         7.89457
     2012.87885        12.38028         8.02118
     2012.88158        15.35262         7.91005
     2012.88432        12.51296         8.03103
     2012.88706        10.12030         8.31800
     2012.88980        12.64664         8.12528
     2012.89253         3.39798         7.86644
     2012.89527         2.80532         8.04650
     2012.89801         0.48866         7.83549
     2012.90075         5.09300         7.69200
     2012.90349         0.21934         7.78063
     2012.90622         3.63568         7.73561
     2012.90896         5.39102         7.90301
     2012.91170        10.87236         8.08870
     2012.91444         9.68370         7.99445
     2012.91718        22.84704         8.01555
     2012.91991        20.48938         8.00289
     2012.92265        18.16971         8.16467
     2012.92539        16.49905         8.13372
     2012.92813         8.76639         8.05916
     2012.93086         0.26873         8.06338
     2012.93360         6.01207         8.15623
     2012.93634         4.77641         7.93115
     2012.93908         4.86075         7.97476
     2012.94182         2.40509         7.68497
     2012.94455         6.70143         7.66809
     2012.94729        -0.85223         7.82283
     2012.95003         3.76111         7.77078
     2012.95277         3.85245         7.67090
     2012.95551        14.23279         7.68356
     2012.95824        13.27013         7.66387
     2012.96098         9.44247         8.11121
     2012.96372        26.67681         8.36723
     2012.96646        14.70515         8.05635
     2012.96919         7.88149         8.19280
     2012.97193         8.85483         8.06338
     2012.97467         8.39317         7.84815
     2012.97741         6.68151         7.90161
     2012.98015        -3.09115         7.87769
     2012.98288         2.03619         7.91427
     2012.98562         2.60453         7.90864
     2012.98836        -1.73813         7.78907
     2012.99110         4.03021         7.83830
     2012.99384         0.32855         7.80454
     2012.99657        -2.20911         7.80454
     2012.99931        -1.16277         7.83408
     2013.00205         3.63257         7.76234
     2013.00479         0.38391         7.75109
     2013.00752        -0.59875         7.60901
     2013.01026        -0.90741         7.66528
     2013.01300        -0.55807         7.60338
     2013.01574         5.00927         7.60760
     2013.01848         1.63361         7.73139
     2013.02121         4.77095         7.64277
     2013.02395        -1.89471         7.94100
     2013.02669        -9.66737         7.93818
     2013.02943       -14.02503         7.80736
     2013.03216        -6.79769         7.71451
     2013.03490        -9.82235         7.67090
     2013.03764        -8.75001         7.65402
     2013.04038       -13.38567         7.63151
     2013.04312       -13.30833         7.71311
     2013.04585        -5.65399         7.78063
     2013.04859        -4.50765         7.79751
     2013.05133        -7.13031         7.57806
     2013.05407        -5.00897         7.59213
     2013.05681        -2.16363         7.57947
     2013.05954        -3.39429         7.70888
     2013.06228        -4.23595         7.93818
     2013.06776         5.34273         7.75109
     2013.07049        -4.39493         7.63292
     2013.07323        -5.24659         7.56540
     2013.07597        -7.90225         7.63855
     2013.07871        -2.27591         7.80876
     2013.08145        -4.81757         7.85237
     2013.08418        -8.74223         7.76515
     2013.08692        -8.21789         7.62729
     2013.08966        -8.78855         7.57665
     2013.09240        -3.95821         7.61745
     2013.09406         9.22978        15.27850
     2013.17012         9.34766        18.16934
     2013.17180        -1.67435         7.74405
     2013.17453        -3.68801         7.67512
     2013.17727        -6.56167         7.95788
     2013.18001        -6.33633         8.30253
     2013.18248         3.30217         8.96650
     2013.24968        13.31042        27.11614
     2013.25119        -6.36650         7.82002
     2013.25393        -6.48016         7.74968
     2013.25667        -4.48082         7.93115
     2013.25941        -0.78648         7.84393
     2013.26214         3.64386         7.97054
     2013.26488        -1.69280         7.92974
     2013.26762        -6.17646         7.98742
     2013.27036       -10.26812         7.84815
     2013.27310        -6.31178         8.27017
     2013.27583       -11.94144         7.88473
     2013.27857        -8.40810         7.89879
     2013.28131         4.49024         7.83690
     2013.28405        -0.08342         8.09574
     2013.28679        -3.98008         8.30112
     2013.28952        -7.09674         8.22797
     2013.29226        -6.76840         8.05775
     2013.29500        -8.71506         7.96632
     2013.29774       -11.13872         7.89317
     2013.30047       -10.97638         7.81017
     2013.30321       -16.53604         7.72155
     2013.30595       -12.54670         7.75249
     2013.30869       -13.76236         7.72155
     2013.31143       -11.12102         7.70888
     2013.31416       -12.32568         7.72155
     2013.31690        -6.98534         7.67653
     2013.31964        -7.93200         7.74546
     2013.32238       -10.22966         7.77641
     2013.32512        -4.01932         7.68497
     2013.32785       -10.56098         7.60479
     2013.33059       -10.94364         7.65262
     2013.33333       -11.14230         7.76234
     2013.33607       -11.23896         7.76656
     2013.33880        -9.45562         7.81298
     2013.34154        -7.01828         7.83408
     2013.34428        -3.69694         7.91145
     2013.34702        -2.55360         7.83408
     2013.34976        -8.08626         7.86644
     2013.35249       -10.86892         7.85659
     2013.35523        -7.97158         8.12106
     2013.35797        -3.77224         7.90442
     2013.36071        -3.85190         8.10699
     2013.36344         8.46844         8.15482
     2013.36618        -0.89022         8.02540
     2013.36892        -4.42288         8.00852
     2013.37166        -7.39154         8.02118
     2013.37440        -6.12620         7.97194
     2013.37713        -8.18886         7.98601
     2013.37987        -6.04652         7.97616
     2013.38261       -13.45618         7.99304
     2013.38535        -7.31484         7.98038
     2013.38809        -8.55850         7.99586
     2013.39082        -5.35416         8.10277
     2013.39356        -9.70282         8.04650
     2013.39630        -5.83848         8.04087
     2013.39904        -6.01314         8.02118
     2013.40177        -5.45680         8.02540
     2013.40451        -1.04646         8.05353
     2013.40725        -2.25412         8.11262
     2013.40999        -4.69478         7.96210
     2013.41273        -2.53744         7.97335
     2013.41546        -3.40810         8.30815
     2013.41820        -4.84576         7.96772
     2013.42094        -2.33542         7.98742
     2013.42368        -8.25608         7.98601
     2013.42642       -11.23074         8.01415
     2013.42915        -3.51740         7.87347
     2013.43189        -0.45406         8.04087
     2013.43463        -2.55872         7.94522
     2013.43737        -2.33338         7.81861
     2013.44010        -1.17804         7.92130
     2013.44284        -2.56270         7.93396
     2013.44558        -3.14836         8.07886
     2013.44832        -6.16702         7.92693
     2013.45106        -3.21168         7.89035
     2013.45379        -3.90934         7.95928
     2013.45653        -4.46700         7.87488
     2013.45927        -7.46266         7.82846
     2013.46201         3.95568         8.04087
     2013.46475        -0.16898         7.97476
     2013.46748        -2.98564         7.93115
     2013.47022        -7.73630         7.99164
     2013.47296        -4.53997         7.97616
     2013.47570        -2.66163         7.82002
     2013.47843        -0.50329         7.78626
     2013.48117        -0.13395         7.86925
     2013.48391         4.07739         8.02540
     2013.48665        -9.12627         8.02118
     2013.48939        -0.07793         7.96350
     2013.49212        -2.07459         7.98038
     2013.49486        -4.15925         7.82002
     2013.49760         3.16209         7.88191
     2013.50034        -9.75357         7.83971
     2013.50308        -8.82623         7.73702
     2013.50581         2.17211         7.76093
     2013.50855        -1.18855         7.72436
     2013.51129        -1.43021         7.74687
     2013.51403        -4.41487         7.73983
     2013.51676         0.55947         7.77078
     2013.51950        -0.81919         7.83690
     2013.52224        -6.48885         7.81158
     2013.52498        -1.43351         7.91567
     2013.52772        -0.46917         7.80595
     2013.53045        -4.04883         7.79470
     2013.53319        -3.58749         7.81580
     2013.53593        -0.62215         7.76515
     2013.53867        -1.62781         7.77359
     2013.54141         3.14453         7.91849
     2013.54414        -0.48513         7.72858
     2013.54688        -2.35279         7.79610
     2013.54962        -1.45645         7.82002
     2013.55236         0.84789         7.78063
     2013.55509         3.52423         7.81580
     2013.55783         0.84857         7.74405
     2013.56057        -4.51809         7.90723
     2013.56331        -1.25775         7.84815
     2013.56605        -5.96041         7.69763
     2013.56878         0.44793         7.80736
     2013.57152        -0.96673         7.76515
     2013.57426         2.09361         7.76656
     2013.57700         1.14695         7.86363
     2013.57974         6.17629         7.81580
     2013.58247         2.95863         7.84815
     2013.58521         3.60597         7.89598
     2013.58795         2.64431         7.90583
     2013.59069        -3.81835         7.75249
     2013.59342        -0.75101         7.81439
     2013.59616         1.85333         7.81580
     2013.59890        -1.34133         7.86081
     2013.60164         3.73301         7.80032
     2013.60438         1.60235         7.85237
     2013.60711         0.82969         7.94240
     2013.60985         2.02203         7.81861
     2013.61259         2.28137         7.87347
     2013.61533         5.69771         8.02540
     2013.61807        10.67805         8.04228
     2013.62080         2.87839         8.07182
     2013.62354        -1.79927         7.77781
     2013.62628        -1.70893         7.93678
     2013.62902        -3.73959         7.78063
     2013.63175         3.31375         7.82002
     2013.63449         6.69209         8.07463
     2013.63723         6.31343         7.84393
     2013.63997         5.65877         7.80876
     2013.64271         0.91111         7.82564
     2013.64544         1.60045         8.00993
     2013.64818         2.93179         7.88895
     2013.65092         3.49413         7.81298
     2013.65366         7.64547         8.09292
     2013.65639        11.61281         8.01415
     2013.65913         8.25815         8.32644
     2013.66187        16.90149         8.17170
     2013.66461         6.45183         8.02681
     2013.66735         9.52317         7.96210
     2013.67008         6.44751         7.91849
     2013.67282        10.51185         8.18014
     2013.67556        -0.64181         8.18436
     2013.67830         8.04953         8.01977
     2013.68104         3.05987         7.84815
     2013.68377         1.74421         7.88613
     2013.68651        -2.09345         7.82705
     2013.68925         5.84089         7.95506
     2013.69199         3.53423         7.77219
     2013.69472         9.60157         7.80454
     2013.69746         1.11391         7.77359
     2013.70020        10.47825         7.76937
     2013.70294         7.37059         7.88613
     2013.70568         6.18593         7.91849
     2013.70841         4.40327         7.97616
     2013.71115         2.90761         7.87769
     2013.71389         2.39195         7.83971
     2013.71663         2.99929         7.90442
     2013.71937        11.35863         7.93396
     2013.72210        12.22497         7.98882
     2013.72484        11.92931         8.08167
     2013.72758        14.01465         8.02118
     2013.73032         5.30099         7.86503
     2013.73305         5.53533         7.95366
     2013.73579         6.31567         7.93537
     2013.73853         2.79501         7.81720
     2013.74127        15.04435         7.87629
     2013.74401        18.10469         8.24344
     2013.74674        17.05803         8.14356
     2013.74948         7.58936         8.10418
     2013.75222        -3.37730         8.14638
     2013.75496         2.36704         8.11684
     2013.75770        -0.97462         7.91849
     2013.76043         3.56072         7.85096
     2013.76317         9.43006         7.85659
     2013.76591         8.16240         8.04650
     2013.76865         0.82574         7.91567
     2013.77138         4.65208         7.85096
     2013.77412         2.63242         7.91005
     2013.77686         6.38876         7.95225
     2013.77960         4.02810         8.09011
     2013.78234        -1.62756         7.97898
     2013.78507        -4.49622         7.83971
     2013.78781        -3.39988         7.80736
     2013.79055        -1.46254         7.84252
     2013.79329         4.46180         7.83549
     2013.79603         3.82514         7.80314
     2013.79876         3.64148         7.74405
     2013.80150         6.72082         7.97054
     2013.80424         7.35316         7.89317
     2013.80698         8.99850         7.83268
     2013.80971         9.40284         7.72999
     2013.81245         7.38818         7.73702
     2013.81519         4.39152         7.78907
     2013.81793        -2.71514         7.75953
     2013.82067         0.13420         7.98742
     2013.82340         5.49054         7.78485
     2013.82614         6.66188         8.00711
     2013.82888         6.62122         7.82002
     2013.83162         6.06656         8.06338
     2013.83436        -2.46410         8.06197
     2013.83709        12.40524         8.20687
     2013.83983         3.43658         8.02118
     2013.84257         6.45192         7.83127
     2013.84531         0.29926         8.17170
     2013.84804         1.98860         7.76797
     2013.85078         4.01994         8.05635
     2013.85352         4.52828         7.96913
     2013.85626         0.86062         7.83971
     2013.85900         3.56696         7.84534
     2013.86173         1.93930         7.99164
     2013.86447        -1.95336         7.97335
     2013.86721        -0.00602         7.97476
     2013.86995         0.22032         7.77781
     2013.87269         5.47866         7.75812
     2013.87542        13.49700         7.78344
     2013.87816         7.19834         7.91989
     2013.88090        13.22868         8.09292
     2013.88364        19.29502         8.28283
     2013.88637         2.83736         7.65684
     2013.88911        -1.01630         7.60619
     2013.89185        -3.44796         7.79470
     2013.89459        -2.96162         7.78063
     2013.89733         3.34272         7.79188
     2013.90006        -2.58794         7.81580
     2013.90280        -3.44060         7.82986
     2013.90554         1.81574         7.83408
     2013.90828         4.39408         7.92974
     2013.91102        -0.86058         7.88613
     2013.91375        -3.93124         7.91567
     2013.91649         9.02310         8.02821
     2013.91923         3.61244         7.84674
     2013.92197        -2.93222         7.86222
     2013.92470        -2.25088         7.60338
     2013.92744        -1.03954         7.80454
     2013.93018        -1.67120         7.66106
     2013.93292        -7.35686         7.64277
     2013.93566        -1.66452         7.64277
     2013.93839        -1.17018         7.63855
     2013.94113        -5.29684         7.65965
     2013.94387         0.81350         7.77219
     2013.94661        13.11184         7.85237
     2013.94935        -2.79582         7.86363
     2013.95208         0.28552         7.80736
     2013.95482         4.74086         7.96772
     2013.95756         0.35420         7.87488
     2013.96030         4.85254         7.89598
     2013.96303         2.01088         7.63855
     2013.96577         0.75122         7.62589
     2013.96851        -0.51344         7.95647
     2013.97125         2.08090         8.02540
     2013.97399        -1.21376         7.99445
     2013.97672        -6.61442         8.02821
     2013.97946        -5.13308         7.72295
     2013.98220        -3.54674         7.85096
     2013.98494        -9.46340         7.90723
     2013.98767        -2.85906         7.95225
     2013.99041        -9.52772         7.79329
     2013.99315       -10.19738         7.86222
     2013.99589        -6.66804         7.92552
     2013.99863        -7.58370         7.88754
     2014.00410        -1.41002         7.93959
     2014.00684       -17.77968         7.85800
     2014.00958       -18.09734         7.65262
     2014.01232        -6.38800         7.92552
     2014.01505        -1.15566         7.96491
     2014.01779        -3.20232         7.97335
     2014.02053        -1.44898         7.94100
     2014.02327        -1.98065         8.08167
     2014.02600         4.60969         8.29549
     2014.02874        17.19103         8.13934
     2014.03148         8.29837         7.90442
     2014.03422         7.40371         8.10418
     2014.03696        -6.18295         7.96632
     2014.03969        -2.38961         7.88613
     2014.04243        -2.39227         8.02962
     2014.04517         0.76607         7.96913
     2014.04791        -0.88959         7.66528
     2014.05065         2.13375         7.69200
     2014.05338        -3.32691         7.70044
     2014.05612        -5.40857         7.77219
     2014.05886        -8.89023         7.78907
     2014.06160        -4.17589         7.69200
     2014.06433         2.22545         7.99445
     2014.06707         2.62779         7.96069
     2014.06981         3.12313         7.75812
     2014.07255        -0.40553         7.68919
     2014.07529        -4.21419         7.95084
     2014.07802        -1.04385         7.91005
     2014.08076         0.05749         7.91989
     2014.08350        -0.78217         8.02399
     2014.08624        -1.18883         8.06619
     2014.08898        -4.35449         8.25188
     2014.09171        -2.94615         8.17873
     2014.09445        -6.28281         7.81720
     2014.09719        -7.38947         8.01555
     2014.09993         1.03587         7.68075
     2014.10266         0.55221         7.92411
     2014.10540         3.37955         7.66246
     2014.10814        -0.26411         7.74124
     2014.11088         7.08323         8.17592
     2014.11362         7.12157         8.01696
     2014.11635        13.00191         8.08026
     2014.11909         0.60025         7.83690
     2014.12183         2.86859         8.03243
     2014.12457         4.12893         7.85237
     2014.12731         9.28927         7.89739
     2014.13004        11.11561         7.95084
     2014.13278        13.93995         8.38271
     2014.13552        29.87129         8.68797
     2014.13826        45.16063         8.74143
     2014.14099        38.32297         8.63029
     2014.14373        31.58631         8.58950
     2014.14647        30.78565         8.60497
     2014.14921        28.16799         8.57824
     2014.15195        28.80833         8.52901
     2014.15468         5.83667         8.15904
     2014.15742        -0.32099         8.05916
     2014.16016        -0.54565         8.06619
     2014.16290        -1.70531         7.87066
     2014.16564        -0.52597         7.88613
     2014.16837         1.46137         8.35598
     2014.17111         7.83571         8.72314
     2014.17385        14.34505         8.52479
     2014.17659         7.66639         8.06901
     2014.17932        -0.49927         8.49243
     2014.18206         1.23207         8.16467
     2014.18480         2.74741         7.97898
     2014.18754        -6.83225         7.73421
     2014.19028        -3.13291         7.80314
     2014.19301        -1.21857         7.80454
     2014.19575        -5.10523         7.74265
     2014.19849        -2.95489         8.00571
     2014.20123         6.76445         7.84393
     2014.20397       -11.33721         8.06338
     2014.20670       -32.59287         8.25610
     2014.20944       -33.32953         8.37427
     2014.21218         3.86681         8.18577
     2014.21492        -2.58485         8.32222
     2014.21765        -1.86151         8.03806
     2014.22039        -2.52517         7.97194
     2014.22313        -3.46083         8.00852
     2014.22587         1.91551         7.96350
     2014.22861         4.88685         7.89739
     2014.23134         9.47319         8.12809
     2014.23408         5.49853         8.16748
     2014.23682        12.86887         8.28986
     2014.23956         8.74021         8.50931
     2014.24230        19.18455         8.59091
     2014.24503        21.72989         8.59231
     2014.24777         1.15123         8.99604
     2014.25051        -5.29343         8.57262
     2014.25325        -0.40609         8.57402
     2014.25598        -7.98975         8.79910
     2014.25872        -3.63741         8.45867
     2014.26146        -4.45607         8.59372
     2014.26420        -6.99573         8.21531
     2014.26694        -2.15939         7.97194
     2014.26967        -0.26905         7.81439
     2014.27241        -2.04871         7.96350
     2014.27515        -7.76637         8.03384
     2014.27789        -7.30403         7.79751
     2014.28062        -3.87769         7.81298
     2014.28336        -7.40135         7.69763
     2014.28610        -1.72701         7.98320
     2014.28884       -10.17567         8.04509
     2014.29158       -11.46333         7.80314
     2014.29431        -6.27399         7.90583
     2014.29705        -2.51065         7.78907
     2014.29979        -6.31432         7.89317
     2014.30253        -9.65098         7.78766
     2014.30527       -10.81064         7.83690
     2014.30800        -3.87830         7.81017
     2014.31074        -3.67096         7.98601
     2014.31348        -6.67462         7.80032
     2014.31622        -6.69628         7.72014
     2014.31895        -6.58694         7.75812
     2014.32169       -12.33660         7.98460
     2014.32443       -16.70426         7.87488
     2014.32717       -13.43992         7.93537
     2014.32991        -6.55658         7.72858
     2014.33264       -10.59924         7.96210
     2014.33538       -10.26190         8.04228
     2014.33812        -7.03656         8.17170
     2014.34086       -10.04322         8.17451
     2014.34360        -3.19388         7.92974
     2014.34633        -5.56154         8.02962
     2014.34907       -12.07920         8.28705
     2014.35181         0.02414         8.27580
     2014.35455        -5.84752         8.14778
     2014.35728        -9.38218         8.07041
     2014.36002       -10.65284         7.84393
     2014.36276       -14.44250         7.87347
     2014.36550        -7.75316         7.84534
     2014.36824        -6.59182         7.97054
     2014.37097        -6.84248         8.04087
     2014.37371        -2.91114         8.00571
     2014.37645         1.89720         8.13794
     2014.37919        -4.54646         8.17170
     2014.38193        -6.29812         8.04087
     2014.38466        -2.13278         8.04509
     2014.38740        -4.12744         7.92552
     2014.39014        -5.22310         8.08167
     2014.39288        -3.19676         8.00852
     2014.39561        -4.15142         8.03384
     2014.39835         1.03792         8.38834
     2014.40109        -2.56374         8.08870
     2014.40383        -2.18440         7.93678
     2014.40657        -4.90306         8.02681
     2014.40930        -3.18772         8.18436
     2014.41204        -5.45138         7.86363
     2014.41478        -1.84804         7.87910
     2014.41752         1.13330         7.81298
     2014.42026        -3.20736         7.87066
     2014.42299        -0.68702         7.94803
     2014.42573         1.01932         7.93115
     2014.42847        -5.84734         7.90583
     2014.43121        -7.56300         7.81861
     2014.43394        -6.68466         7.93115
     2014.43668        -1.08632         7.94100
     2014.43942        -3.49198         7.92271
     2014.44216        -3.40664         7.87769
     2014.44490         4.08470         8.19702
     2014.44763        -1.31996         8.27298
     2014.45037        -3.60162         7.93818
     2014.45311         0.29872         7.92693
     2014.45585        -1.43194         7.94522
     2014.45859        -7.06260         7.93115
     2014.46132        -8.42826         7.87629
     2014.46406        -2.37892         7.89879
     2014.46680        -8.41158         8.20124
     2014.46954        -2.57424         7.91427
     2014.47227        -2.11890         7.85378
     2014.47501        -1.24956         7.86785
     2014.47775        -9.26822         7.99726
     2014.48049        -2.62888         7.97757
     2014.48323        -0.23754         8.00852
     2014.48596        -3.21320         8.24907
     2014.48870         0.73214         8.17873
     2014.49144        -2.98652         7.94522
     2014.49418        -0.92218         7.87769
     2014.49692        -5.51384         7.81861
     2014.49965        -0.00750         7.92411
     2014.50239        -4.82916         7.93256
     2014.50513        -5.71382         8.01555
     2014.50787        -2.17548         7.86644
     2014.51060        -4.69514         7.94100
     2014.51334         2.53120         7.84252
     2014.51608         6.07954         7.81158
     2014.51882         0.30488         7.84393
     2014.52156         4.87322         7.96632
     2014.52429         1.76656         7.80173
     2014.52703         1.76290         7.81580
     2014.52977        -1.43176         7.73702
     2014.53251        -3.06442         7.92411
     2014.53525        -1.67208         7.92552
     2014.53798         5.54326         7.94803
     2014.54072         2.20960         7.97194
     2014.54346         2.09594         7.70607
     2014.54620        -8.04972         7.99586
     2014.54893        -2.73738         7.84956
     2014.55167        -2.06104         8.05213
     2014.55441         4.33030         7.92130
     2014.55715        -9.41336         7.98601
     2014.55989        -1.21002         7.90020
     2014.56262        -4.02268         7.82986
     2014.56536        -0.85434         7.83408
     2014.56810         0.41500         7.92974
     2014.57084         1.15534         7.79892
     2014.57357        -3.92233         7.71170
     2014.57631         1.64001         7.69904
     2014.57905        -2.02265         7.75390
     2014.58179         3.39369         7.93256
     2014.58453         0.41303         7.97616
     2014.58726        -1.57363         8.25751
     2014.59000         0.77871         7.89598
     2014.59274        -2.79895         7.93537
     2014.59548         1.30539         8.04087
     2014.59822         4.71673         8.07182
     2014.60095        -1.21293         7.95647
     2014.60369         3.45941         7.93396
     2014.60643        -0.93625         7.86503
     2014.60917         1.22709         7.96913
     2014.61190         1.22443         8.12950
     2014.61464         0.53977         8.15201
     2014.61738         4.11011         8.47133
     2014.62012         3.95845         8.32785
     2014.62286         2.72679         8.17170
     2014.62559        -0.87487         8.02118
     2014.62833        -5.39053         8.10558
     2014.63107         9.97981         8.14497
     2014.63381         5.47915         8.21671
     2014.63655         3.99849         7.97616
     2014.63928       -13.16517         7.87207
     2014.64202        -4.57483         7.97757
     2014.64476        -4.09649         7.94662
     2014.64750         0.86385         7.91286
     2014.65023        -1.32181         7.87488
     2014.65297         7.70353         7.87629
     2014.65571         5.38887         8.39256
     2014.65845         5.40521         7.92693
     2014.66119         0.39455         7.96210
     2014.66392         4.82489         7.92552
     2014.66666        12.73123         7.85941
     2014.66940        -1.26143         8.06338
     2014.67214        -6.31609         8.06901
     2014.67488        -2.14475         8.08730
     2014.67761        -1.65941         7.87347
     2014.68035         3.96693         7.86503
     2014.68309        -2.06873         7.87488
     2014.68583         2.74661         7.92833
     2014.68856        -2.59305         7.94522
     2014.69130         1.61729         7.96210
     2014.69404        -1.96537         7.81017
     2014.69678        -3.44403         7.82986
     2014.69952         0.51731         7.78626
     2014.70225         0.93265         7.81017
     2014.70499        -0.69401         7.81720
     2014.70773         2.79333         7.83690
     2014.71047         1.70867         8.01977
     2014.71321         4.58501         7.87488
     2014.71594        -6.40165         8.15904
     2014.71868         3.25869         8.01555
     2014.72142         4.23503         7.74968
     2014.72416         1.58537         7.87347
     2014.72689         3.19271         8.01274
     2014.72963        11.82305         8.09433
     2014.73237        -3.35861         8.11965
     2014.73511        -0.92227         8.21109
     2014.73785         1.30407         8.01274
     2014.74058         1.15641         7.86222
     2014.74332         1.21375         8.02540
     2014.74606        -0.81891         7.94803
     2014.74880        -2.85957         7.99867
     2014.75154        -0.99223         8.00008
     2014.75427        -4.06889         7.91989
     2014.75701         3.25645         8.10558
     2014.75975        -1.98321         8.09855
     2014.76249        -0.65587         7.96210
     2014.76522        -5.01353         7.88473
     2014.76796        -0.88819         7.84534
     2014.77070        -1.97885         7.80173
     2014.77344        -5.48451         7.90864
     2014.77618        -0.68317         8.15341
     2014.77891         8.96517         8.10558
     2014.78165         6.09351         7.91849
     2014.78439         7.16785         8.12106
     2014.78713         2.36219         7.82986
     2014.78987        -7.63147         8.04228
     2014.79260         8.08987         7.94522
     2014.79534        10.46321         8.42210
     2014.79808        13.09655         8.47555
     2014.80082        10.21089         8.14919
     2014.80355         2.97123         8.23219
     2014.80629         8.36457         8.38130
     2014.80903        10.57091         8.24766
     2014.81177         7.18125         7.89457
     2014.81451         2.72259         8.01977
     2014.81724        11.40193         7.95366
     2014.81998        -0.17373         8.02540
     2014.82272        20.65761         8.57262
     2014.82546         9.01595         8.15341
     2014.82820        -2.68671         8.11824
     2014.83093        -3.29437         8.09292
     2014.83367        -1.80903         7.93115
     2014.83641        -5.76669         8.01977
     2014.83915         0.34165         8.14356
     2014.84188        12.81099         8.36723
     2014.84462        -6.66967         8.31237
     2014.84736         1.42267         8.57402
     2014.85010        -5.11300         8.09433
     2014.85284        -0.29066         7.93396
     2014.85557         5.44068         8.10418
     2014.85831        -0.23198         8.05072
     2014.86105        -7.40864         7.78203
     2014.86379        -6.55130         7.76515
     2014.86653        -6.08596         7.71170
     2014.86926        -6.01562         7.72717
     2014.87200        -5.68228         7.79048
     2014.87474        -7.16494         7.90442
     2014.87748        -6.04160         7.88473
     2014.88021         0.28274         7.89035
     2014.88295         2.03008         7.95788
     2014.88569         2.47842         8.37427
     2014.88843         9.92476         8.53182
     2014.89117        -1.07490         8.29408
     2014.89390         1.25444         8.38130
     2014.89664         2.89478         8.25470
     2014.89938         2.83912         8.40240
     2014.90212        -2.71954         8.47696
     2014.90485         1.00880         8.24626
     2014.90759        -4.92186         8.18155
     2014.91033        -7.01152         7.94100
     2014.91307        -7.15018         7.78907
     2014.91581        -5.29984         7.83971
     2014.91854        -0.36150         7.82564
     2014.92128        -3.89516         7.82986
     2014.92402         0.74618         7.86222
     2014.92676         1.39052         8.11684
     2014.92950        -8.38514         8.18717
     2014.93223        -7.69280         7.94803
     2014.93497        -4.40246         8.03384
     2014.93771         4.12288         8.29408
     2014.94045        -1.26578         8.11543
     2014.94318        12.74656         8.23500
     2014.94592         2.00090         8.15201
     2014.94866        -8.21976         7.92552
     2014.95140        -3.29342         7.71592
     2014.95414         4.25692         7.75531
     2014.95687         4.61626         7.82002
     2014.95961         1.53260         7.82564
     2014.96235         0.22894         7.77641
     2014.96509        13.78928         8.07182
     2014.96783         1.41462         7.88051
     2014.97056        -0.67404         8.01274
     2014.97330       -13.22470         7.91849
     2014.97604        -7.75636         7.88613
     2014.97878       -15.52402         7.87488
     2014.98151       -15.50368         7.97194
     2014.98425       -17.79534         7.90020
     2014.98699         2.54700         7.95366
     2014.98973        -4.57966         7.89457
     2014.99247        -6.48532         7.96350
     2014.99520        -8.42698         7.68497
     2014.99794        -3.28664         7.66106
     2015.00068         2.38470         7.80876
     2015.00342        -5.30496         7.81017
     2015.00616       -11.10562         7.62589
     2015.00889        -5.53328         7.76375
     2015.01163         3.53806         8.12246
     2015.01437         2.22740         8.04087
     2015.01711        -1.95726         8.09855
     2015.01984         1.99208         7.86925
     2015.02258         4.16342         8.00008
     2015.02532        -0.70624         7.98460
     2015.02806        -1.68690         7.91567
     2015.03080         1.90444         7.88191
     2015.03353        -3.14522         7.93959
     2015.03627        -0.70888         7.88754
     2015.03901        -1.29154         7.93256
     2015.04175         6.55180         8.04228
     2015.04449         4.52314         7.93678
     2015.04722        11.09548         8.17029
     2015.04996        -0.87618         7.94100
     2015.05270        -4.09784         7.88473
     2015.05544        -3.87450         7.83549
     2015.05817        -2.48216         7.80736
     2015.06091         2.88118         8.03665
     2015.06365         9.32552         8.35457
     2015.06639         6.17586         8.00571
     2015.06913         1.69020         7.87347
     2015.07186        -0.90946         7.85659
     2015.07460         1.26488         7.73983
     2015.07734        -4.56078         7.83549
     2015.08008        -8.88444         7.79470
     2015.08282        -4.03410         7.80736
     2015.08555         5.17524         7.86925
     2015.08829         3.87858         7.80173
     2015.09103         3.24492         7.81720
     2015.09377         2.77126         7.84674
     2015.09650         1.24860         8.03103
     2015.09924        11.58694         8.16185
     2015.10198         5.19528         8.11684
     2015.10472        -0.07038         7.95647
     2015.10746         4.23996         8.02399
     2015.11019        -7.16170         8.22656
     2015.11293         0.74164         8.05072
     2015.11567        -2.79602         7.93115
     2015.11841        -7.60768         7.90020
     2015.12115         0.05766         8.00993
     2015.12388        -2.66301         7.85941
     2015.12662        -2.11567         7.92271
     2015.12936         0.62367         7.85096
     2015.13210        -1.06999         7.80454
     2015.13483        -6.04465         7.99867
     2015.13757        -1.14431         8.05916
     2015.14031        -3.84297         7.80032
     2015.14305        -0.24963         7.80595
     2015.14579        -1.41429         7.84674
     2015.14852        -1.17095         7.87347
     2015.15126        -2.80561         7.80454
     2015.15400        -5.28627         7.79470
     2015.15674        -2.16493         7.88895
     2015.15948         1.39241         8.02540
     2015.16221         1.38175         7.90020
     2015.16495         0.85409         7.91145
     2015.16769         0.95843         7.64699
     2015.17043         2.15777         7.73702
     2015.17316        -1.48689         8.02821
     2015.17590        -0.22255         8.05775
     2015.17864         0.74779         7.83549
     2015.18138         5.24313         7.75390
     2015.18412         3.23347         7.80454
     2015.18685         3.78181         7.77641
     2015.18959         7.24315         7.91005
     2015.19233        -3.32051         8.08730
     2015.19507         5.31283         7.71170
     2015.19780         4.41817         7.99023
     2015.20054         0.85451         7.76656
     2015.20328        -2.91715         7.87769
     2015.20602        -5.90881         8.22516
     2015.20876        -2.97947         7.87347
     2015.21149        -1.97513         7.82142
     2015.21423        -1.43579         8.23500
     2015.21697         1.44855         8.09433
     2015.21971        -8.25811         7.72295
     2015.22245        -5.22977         7.66528
     2015.22518        -3.93443         7.69200
     2015.22792        -5.00309         7.93678
     2015.23066        -2.20475         7.97757
     2015.23340         0.49359         7.95928
     2015.23613        -0.25807         8.09152
     2015.23887        -0.52473         8.28002
     2015.24161         5.09261         8.36020
     2015.24435        -7.07705         8.20968
     2015.24709        -6.70271         7.92693
     2015.24982        -4.50937         7.75249
     2015.25256        -0.23403         7.75812
     2015.25530        -5.14569         7.76093
     2015.25804        -6.76535         7.77219
     2015.26078         1.64199         7.71873
     2015.26351        -0.16067         7.65543
     2015.26625        -2.30433         7.73139
     2015.26899        -4.29399         7.91567
     2015.27173        10.66235         7.92271
     2015.27446         6.39269         7.94522
     2015.27720        -3.90997         7.83127
     2015.27994        -2.89863         7.76797
     2015.28268        -9.26729         7.76656
     2015.28542        -4.03595         8.00148
     2015.28815        -9.37761         8.01837
     2015.29089        -0.34127         7.94944
     2015.29363        -3.94793         7.82424
     2015.29637        -1.98959         7.81720
     2015.29911         4.46475         7.78766
     2015.30184         1.53309         7.73280
     2015.30458        -5.96757         7.72858
     2015.30732        -1.20123         7.58087
     2015.31006        -2.79989         7.72577
     2015.31279       -10.06155         7.70748
     2015.31553        -4.00321         7.66387
     2015.31827        -5.58087         7.81439
     2015.32101        -2.29253         7.83408
     2015.32375        -6.54019         7.52601
     2015.32648        -5.31585         7.81158
     2015.32922        -2.19251         7.79188
     2015.33196        -0.52417         7.61463
     2015.33470         1.08017         7.62307
     2015.33744        -2.49549         7.59072
     2015.34017        -6.85815         7.58369
     2015.34291        -5.85681         7.59494
     2015.34565        -2.42747         7.61182
     2015.34839        -3.53613         7.61182
     2015.35112        -4.00979         7.67794
     2015.35386         0.03255         7.57243
     2015.35660        -3.06111         7.87488
     2015.35934        -6.98377         7.94522
     2015.36208        -3.21843         7.86925
     2015.36481        -2.55809         7.84815
     2015.36755         1.30325         7.61041
     2015.37029        -0.77241         7.59635
     2015.37303        -2.22607         7.74124
     2015.37577        -0.67073         7.72014
     2015.37850        -6.10339         7.81580
     2015.38124        -6.16605         7.58791
     2015.38398        -1.58971         7.57384
     2015.38672        -3.31037         7.61604
     2015.38945        -5.06603         7.70607
     2015.39219        -1.03569         7.68075
     2015.39493         1.47965         7.63573
     2015.39767        -8.67301         7.66106
     2015.40041        -3.30968         7.63433
     2015.40314        -0.62334         7.84534
     2015.40588        -5.92100         7.81017
     2015.40862        -1.07066         7.57384
     2015.41136         1.14468         7.69763
     2015.41410        -2.69498         7.60338
     2015.41683        -3.21164         7.73280
     2015.41957        -4.38630         7.90442
     2015.42231        -1.65496         7.78766
     2015.42505        -6.46862         8.00430
     2015.42778         0.80072         7.67653
     2015.43052         2.24706         7.63151
     2015.43326        -2.19560         7.64136
     2015.43600        -0.17926         7.70748
     2015.43874         2.69508         7.58509
     2015.44147        -3.00458         7.97335
     2015.44421        -0.96024         7.62167
     2015.44695        -3.72990         7.62448
     2015.44969        -7.35056         7.70326
     2015.45243        -3.51722         7.83127
     2015.45516         0.93812         7.75109
     2015.45790        -2.58954         7.79470
     2015.46064         1.18780         7.78766
     2015.46338        -1.33386         7.85378
     2015.46611         2.69248         7.72999
     2015.46885         0.91782         7.57665
     2015.47159         1.74216         7.59916
     2015.47433         0.78250         7.87910
     2015.47707        -2.84116         7.93678
     2015.47980         0.03418         7.96350
     2015.48254        -4.79448         7.83549
     2015.48528        -3.21214         7.60619
     2015.48802         0.08620         7.61604
     2015.49076        -2.64846         7.72717
     2015.49349         3.90188         7.85378
     2015.49623         5.09022         7.89879
     2015.49897        -0.72244         7.81861
     2015.50171         2.96590         7.61885
     2015.50444         3.80624         7.62167
     2015.50718        -2.60142         7.70326
     2015.50992         0.26292         7.66950
     2015.51266         6.97426         7.66528
     2015.51540         2.00160         7.68075
     2015.51813         0.41994         7.66106
     2015.52087         6.91928         7.70185
     2015.52361         4.02562         7.92974
     2015.52635         2.60096         7.75390
     2015.52908        -0.67770         7.70326
     2015.53182         2.17164         7.79610
     2015.53456         0.91498         7.72014
     2015.53730         3.20032         7.76375
     2015.54004         4.25366         7.88613
     2015.54277         1.46000         7.86081
     2015.54551        12.04634         7.92271
     2015.54825         2.41468         7.83971
     2015.55099         9.41602         7.88613
     2015.55373         2.29836         7.93959
     2015.55646         7.35370         7.88613
     2015.55920         4.55104         8.05635
     2015.56194         9.06138         8.10277
     2015.56468         5.70872         7.93959
     2015.56741         4.97606         7.83830
     2015.57015         2.45540         8.06197
     2015.57289         3.29574         8.00852
     2015.57563         5.03508         7.86222
     2015.57837         7.04542         7.84956
     2015.58110         7.74576         7.80314
     2015.58384        10.09810         7.76093
     2015.58658        10.99344         7.82142
     2015.58932        11.05078         8.11262
     2015.59206         4.70112         8.01415
     2015.59479         6.89846         7.81158
     2015.59753         5.91780         7.84956
     2015.60027        13.08014         7.98882
     2015.60301         9.32048         8.18858
     2015.60574         7.43182         7.80032
     2015.60848         7.04016         7.83549
     2015.61122         8.49050         7.79188
     2015.61396        14.94484         7.82002
     2015.61670         4.65318         7.68919
     2015.61943         4.36352         7.72858
     2015.62217         8.51086         7.78907
     2015.62491        11.60220         7.67934
     2015.62765        11.87354         7.67512
     2015.63039        14.16788         7.63573
     2015.63312         0.20022         8.01274
     2015.63586         7.25756         7.62448
     2015.63860         9.10490         7.68919
     2015.64134        10.13324         7.61885
     2015.64407         8.03458         7.72999
     2015.64681         7.12492         7.83127
     2015.64955         8.64526         7.66387
     2015.65229         3.34160         7.72155
     2015.65503        13.46794         7.79188
     2015.65776         6.51628         7.90583
     2015.66050        17.15062         7.91145
     2015.66324         8.67496         7.83127
     2015.66598        11.91130         8.03384
     2015.66872        17.91064         8.09996
     2015.67145         3.43898         7.97054
     2015.67419         5.87031         7.86503
     2015.67693         5.24565         7.71451
     2015.67967         7.47799         7.82846
     2015.68240         2.15833         7.80173
     2015.68514         1.81667         7.89035
     2015.68788         5.56801         7.67231
     2015.69062         7.10335         7.69060
     2015.69336         2.31469         7.95225
     2015.69609         6.12303         7.67934
     2015.69883         5.77737         7.66809
     2015.70157         6.30871         7.75390
     2015.70431         7.09805         7.77500
     2015.70705         4.10039         7.66950
     2015.70978         9.33673         7.79892
     2015.71252         0.64707         7.75390
     2015.71526         5.27141         7.84956
     2015.71800        13.22575         8.06338
     2015.72073        12.62709         7.78063
     2015.72347         3.17843         7.70466
     2015.72621         1.20877         7.70607
     2015.72895        -1.16089         7.69622
     2015.73169         5.99345         7.78063
     2015.73442         2.24379         7.81298
     2015.73716         8.70613         7.75812
     2015.73990         7.41547         7.76656
     2015.74264         6.95881         7.77641
     2015.74538         9.15315         7.88473
     2015.74811         1.47849         7.98038
     2015.75085        -1.92217         7.71592
     2015.75359        -5.43683         7.76515
     2015.75633         4.45051         7.67090
     2015.75906         6.81585         7.71170
     2015.76180         5.80319         7.70466
     2015.76454        -1.17147         7.75531
     2015.76728         3.85987         7.72577
     2015.77002         7.84421         7.99726
     2015.77275        15.54155         7.99445
     2015.77549         9.25189         7.88895
     2015.77823         9.30423         7.77922
     2015.78097         4.94357         7.79329
     2015.78371         7.52991         7.64136
     2015.78644         7.47025         7.64558
     2015.78918         4.03359         7.69341
     2015.79192         8.41793         7.69622
     2015.79466         0.50027         7.72014
     2015.79739        -2.66739         7.72155
     2015.80013         2.87095         7.94381
     2015.80287        -3.17771         7.80736
     2015.80561        -3.45037         7.71311
     2015.80835         0.08297         7.75390
     2015.81108         0.82231         7.74265
     2015.81382         8.23565         7.84674
     2015.81656        -1.46601         7.71873
     2015.81930         2.04133         7.90161
     2015.82203         2.53267         7.84674
     2015.82477         3.68901         7.97898
     2015.82751        10.99235         7.99445
     2015.83025        10.93769         8.04369
     2015.83299         6.26103         8.00852
     2015.83572        -2.01563         7.97194
     2015.83846        -4.73229         7.94100
     2015.84120        -1.65095         7.85518
     2015.84394        -5.79461         7.90301
     2015.84668        -4.29427         7.86363
     2015.84941        -0.77493         8.21953
     2015.85215        -2.88859         7.99304
     2015.85489         2.17075         7.97616
     2015.85763        -4.49991         7.88473
     2015.86036        -3.69057         7.96632
     2015.86310         5.64377         7.80736
     2015.86584         9.09411         8.36723
     2015.86858       -21.76655         7.99023
     2015.87132        -5.43521         7.89317
     2015.87405       -13.36387         7.77500
     2015.87679        -2.75853         7.97757
     2015.87953        -0.88219         7.78766
     2015.88227        -3.31985         7.90583
     2015.88501        -9.72751         7.78907
     2015.88774        -6.77817         7.72436
     2015.89048         0.04517         7.71592
     2015.89322        -0.49549         7.68638
     2015.89596        -9.94615         7.63433
     2015.89869        -7.36981         7.65262
     2015.90143        -9.98247         7.70607
     2015.90417       -10.64913         7.65262
     2015.90691        -7.65379         7.61885
     2015.90965        -4.00845         7.63996
     2015.91238        -7.64711         7.64136
     2015.91512        -5.20977         7.69904
     2015.91786         0.22657         7.86363
     2015.92060         6.42691         8.02540
     2015.92334        -7.82775         7.91567
     2015.92607        -0.14341         7.98320
     2015.92881         9.41693         8.30253
     2015.93155         4.37627         8.42069
     2015.93429         1.72461         8.23922
     2015.93702         4.51495         8.16467
     2015.93976        -0.77571         8.28846
     2015.94250        -2.02037         8.29268
     2015.94524        -1.28503         8.25329
     2015.94798         4.98631         8.28705
     2015.95071         6.29464         7.97194
     2015.95345        -6.71802         7.94100
     2015.95619        -0.82668         8.04791
     2015.95893        -0.87734         8.38271
     2015.96167        11.42000         8.08870
     2015.96440         0.83634         7.77359
     2015.96714         7.96168         7.94662
     2015.96988         1.05702         7.94240
     2015.97262         5.67636         7.95928
     2015.97535        10.67470         7.99867
     2015.97809        13.93504         8.92852
     2015.98083        18.42138         8.87506
     2015.98357         6.88872         8.57121
     2015.98631         9.36406         8.86100
     2015.98904         9.67540         8.71610
     2015.99178         5.61474         8.47415
     2015.99452         3.87908         8.45445
     2015.99726         7.27542         8.19280
     2016.00000        -2.14024         7.99726
     2016.00273        -3.75990         7.76797
     2016.00547        -1.49756         7.74124
     2016.00821        -1.79822         7.68075
     2016.01095         2.09212         7.79751
     2016.01368        -1.72654         7.77219
     2016.01642        -1.33120         7.89035
     2016.01916        -2.61586         7.98038
     2016.02190        -1.10952         7.74827
     2016.02464        -3.01418         7.69904
     2016.02737         0.79216         7.71451
     2016.03011         3.32750         7.79470
     2016.03285         2.76984         7.76515
     2016.03559         2.26218         7.63433
     2016.03833         1.17452         7.75531
     2016.04106        10.34586         7.87207
     2016.04380         9.85920         7.99586
     2016.04654         2.17554         7.82705
     2016.04928         0.54188         7.74265
     2016.05201        -3.23578         7.86785
     2016.05475         2.98256         7.81861
     2016.05749         5.82690         7.77641
     2016.06023         1.38624         7.67794
     2016.06297        -3.51042         7.67512
     2016.06570         0.68492         7.92552
     2016.06844        -3.92474         8.00148
     2016.07118        -5.56140         8.22375
     2016.07392         3.58494         8.17029
     2016.07666         8.37628         7.95928
     2016.07939         4.39862         7.88895
     2016.08213        -1.37904         7.96491
     2016.08487        -5.76070         7.78344
     2016.08761        -4.01336         7.85800
     2016.09034        -1.96702         7.75531
     2016.09308         1.12432         7.86785
     2016.09582        -3.58734         8.02259
     2016.09856        -7.32900         7.92693
     2016.10130        -5.98766         7.84534
     2016.10403       -10.48232         7.95506
     2016.10677        -2.59298         7.82424
     2016.10951        -1.45864         7.98601
     2016.11225        -2.67730         7.94522
     2016.11498        -3.60196         8.21109
     2016.11772        -6.78262         7.84112
     2016.12046        -2.28628         7.96210
     2016.12320        -1.29394         7.95084
     2016.12594        -0.89460         7.86925
     2016.12867         2.01074         7.76656
     2016.13141         4.69208         7.85659
     2016.13415         1.85042         7.77922
     2016.13689        -4.15724         7.84534
     2016.13963        -3.27290         7.79329
     2016.14236       -13.64956         7.80454
     2016.14510        -6.14822         7.73561
     2016.14784        -4.65588         7.90301
     2016.15058        -5.88154         7.69341
     2016.15331        -4.31420         7.90301
     2016.15605        -5.73086         7.70607
     2016.15879         3.17148         8.01274
     2016.16153        -5.91018         7.87066
     2016.16427         0.50116         7.93818
     2016.16700         1.07550         7.82705
     2016.16974         3.59784         7.96632
     2016.17248         4.08218         7.92974
     2016.17522         1.34752         8.00148
     2016.17796         2.06686         7.99867
     2016.18069        -5.09880         7.86363
     2016.18343        -6.96046         8.03806
     2016.18617         0.68488         7.80595
     2016.18891         7.11322         7.86363
     2016.19164         5.09056         7.69200
     2016.19438        12.46590         7.67090
     2016.19712         8.15524         7.64980
     2016.19986        -7.66342         7.80173
     2016.20260       -13.90608         7.93678
     2016.20533       -11.18374         8.18436
     2016.20807        -6.37740         7.82986
     2016.21081        -5.44706         7.74546
     2016.21355        -7.87572         7.70044
     2016.21629        -3.03938         7.67934
     2016.21902         1.20796         7.62167
     2016.22176        -3.83370         7.63433
     2016.22450       -12.01637         7.55836
     2016.22724        -6.51303         7.62448
     2016.22997        -6.58369         7.73702
     2016.23271        -7.51835         7.66387
     2016.23545        -6.69601         7.68216
     2016.23819        -2.97967         7.53304
     2016.24093       -10.85433         7.66387
     2016.24366        -8.22399         7.52460
     2016.24640        -0.02765         7.48240
     2016.24914        -3.81331         7.50632
     2016.25188        -3.65697         7.55133
     2016.25462        -7.02963         7.61463
     2016.25735       -12.83729         7.74124
     2016.26009       -11.42095         7.78907
     2016.26283        -7.68461         7.67090
     2016.26557        -1.14927         7.60479
     2016.26830        -2.02693         7.67934
     2016.27104        -4.53159         7.65965
     2016.27378        -3.50525         7.79610
     2016.27652        -4.18691         7.72436
     2016.27926        -1.18657         7.79329
     2016.28199        -6.78323         7.61041
     2016.28473        -5.92189         7.71170
     2016.28747        -7.38055         7.77359
     2016.29021       -10.36121         7.79048
     2016.29295        -4.77487         7.79048
     2016.29568         0.21547         7.61885
     2016.29842         3.29581         7.72295
     2016.30116        -5.49185         7.85518
     2016.30390        -6.59151         7.76797
     2016.30663        -2.81817         7.83971
     2016.30937        -2.92583         7.78344
     2016.31211        -8.52849         7.78485
     2016.31485         0.91885         7.78063
     2016.31759        -3.19181         7.70466
     2016.32032        -3.93947         7.71311
     2016.32306       -11.41313         7.77922
     2016.32580        -9.70879         7.78344
     2016.32854        -6.45745         7.72577
     2016.33128        -5.01911         7.75109
     2016.33401         0.83023         7.72999
     2016.33675         2.42157         7.72577
     2016.33949         1.11791         7.72999
     2016.34223        -0.06775         7.82424
     2016.34496        -1.24141         7.93396
     2016.34770         2.75793         7.79188
     2016.35044         8.69827         7.88754
     2016.35318        -4.55639         7.65684
     2016.35592        -8.63205         7.65824
     2016.35865        -8.61871         7.64136
     2016.36139         1.96763         7.60901
     2016.36413         4.90497         7.59213
     2016.36687         1.78731         7.63996
     2016.36961        10.99065         7.73421
     2016.37234        11.67799         7.69904
     2016.37508         5.53933         7.71170
     2016.37782        -4.44333         7.61604
     2016.38056         2.12301         7.75390
     2016.38329         1.28635         7.60197
     2016.38603        -1.12631         7.59353
     2016.38877        11.68503         7.68216
     2016.39151         0.14037         7.59775
     2016.39425         0.69271         7.69341
     2016.39698         3.44805         7.67372
     2016.39972         5.88239         7.64840
     2016.40246        -1.57127         7.65965
     2016.40520        -6.49693         7.69060
     2016.40794        -1.55859         7.70326
     2016.41067        -2.49125         7.65262
     2016.41341        -1.74891         7.64558
     2016.41615        -1.50057         7.54711
     2016.41889        -0.11523         7.80454
     2016.42162         4.31411         7.87910
     2016.42436        -4.40655         7.71451
     2016.42710         0.53779         7.66106
     2016.42984        -1.45287         7.59213
     2016.43258         4.05247         7.55836
     2016.43531         3.56881         7.66668
     2016.43805         3.48815         7.62589
     2016.44079         4.87549         7.76375
     2016.44353        -4.04117         7.68919
     2016.44626        -8.59983         7.66668
     2016.44900        -0.85149         7.68497
     2016.45174         3.79285         7.67794
     2016.45448         5.09819         7.63292
     2016.45722        -0.44447         7.77219
     2016.45995         2.63587         7.77922
     2016.46269        -3.54979         7.79188
     2016.46543        -2.00945         7.65965
     2016.46817         3.39489         7.63011
     2016.47091         2.87123         7.67653
     2016.47364        -0.82943         7.68497
     2016.47638         3.17391         7.80314
     2016.47912        -1.80875         7.95506
     2016.48186        -0.37741         7.68497
     2016.48459         0.14793         7.54711
     2016.48733         4.98627         7.70044
     2016.49007         3.21361         7.68778
     2016.49281         6.12795         7.72155
     2016.49555         3.25029         7.63433
     2016.49828        -2.43837         7.63011
     2016.50102        -1.26404         7.72295
     2016.50376        -3.35370         7.86081
     2016.50650        -4.27036         7.84252
     2016.50924         1.38598         7.76375
     2016.51197        -2.81768         7.80032
     2016.51471         2.71666         7.75109
     2016.51745         2.28200         8.00852
     2016.52019         0.23034         7.68356
     2016.52292         0.59168         7.75249
     2016.52566         2.64002         7.74687
     2016.52840         3.18336         7.83971
     2016.53114        -0.64830         7.77641
     2016.53388        -3.27996         7.58791
     2016.53661         1.73638         7.75671
     2016.53935         1.44672         7.70185
     2016.54209         4.66006         7.76234
     2016.54483         6.70640         7.79188
     2016.54757        -0.04626         7.74827
     2016.55030         7.71608         7.89317
     2016.55304         5.06542         7.76937
     2016.55578        10.48876         8.01837
     2016.55852         5.37010         7.64418
     2016.56125         6.49344         7.66246
     2016.56399         2.62478         7.61041
     2016.56673         6.84212         7.82564
     2016.56947         8.18246         7.87488
     2016.57221         8.31680         7.55977
     2016.57494         6.09014         7.76656
     2016.57768         6.06448         7.62026
     2016.58042         4.66182         7.62026
     2016.58316         2.97916         7.62026
     2016.58590         1.82750         7.79188
     2016.58863         3.93984         7.62589
     2016.59137        -0.66282         7.59775
     2016.59411        12.04652         7.92833
     2016.59685         5.95286         7.63855
     2016.59958         2.34720         7.78344
     2016.60232         5.13854         7.63855
     2016.60506         2.08088         7.81861
     2016.60780         1.00722         7.69904
     2016.61054         3.06456         7.69200
     2016.61327         2.82590         7.66528
     2016.61601        -0.68176         7.71451
     2016.61875         6.72858         7.62870
     2016.62149         5.07492         7.56258
     2016.62423         5.11326         7.78907
     2016.62696         8.18560         7.67653
     2016.62970         5.86194         7.61885
     2016.63244        -0.32372         7.77922
     2016.63518         8.09662         7.60479
     2016.63791         9.50596         7.70748
     2016.64065         8.40730         7.66387
     2016.64339         0.04464         7.70607
     2016.64613         5.25898         7.68638
     2016.64887         3.48232         7.68356
     2016.65160         4.18766         7.85096
     2016.65434         9.35400         7.89317
     2016.65708        -1.03066         7.66950
     2016.65982        10.41468         7.70185
     2016.66256         1.89702         7.60338
     2016.66529         5.19036         8.21249
     2016.66803        -0.40630         7.87488
     2016.67077        -1.54396         7.97054
     2016.67351         8.58638         7.73561
     2016.67624         5.56072         7.79610
     2016.67898         8.06106         7.72155
     2016.68172         9.43640         7.78344
     2016.68446         8.62174         8.07604
     2016.68720         1.32308         8.29971
     2016.68993         5.06242         7.84956
     2016.69267         6.06876         7.95506
     2016.69541         5.90810         7.70044
     2016.69815         5.39944         7.68638
     2016.70089        10.06678         7.75812
     2016.70362         4.69012         7.88895
     2016.70636         6.84546         8.17873
     2016.70910         1.71780         8.12668
     2016.71184        17.68914         7.68919
     2016.71457        10.62748         7.74968
     2016.71731         9.16582         7.90301
     2016.72005         5.97016         7.74546
     2016.72279         3.64050         7.64418
     2016.72553         5.56284         7.78626
     2016.72826         7.46018         8.05072
     2016.73100         3.08652         7.69763
     2016.73374         4.87386         7.68638
     2016.73648         0.92420         7.82002
     2016.73921         8.99454         7.89176
     2016.74195         2.34788         7.66106
     2016.74469         2.52322         7.65965
     2016.74743         5.04556         7.74968
     2016.75017         2.09690         7.71733
     2016.75290         2.43624         7.78344
     2016.75564         3.67858         7.74687
     2016.75838         3.72392         7.86222
     2016.76112         9.56226         7.81580
     2016.76386         4.83060         7.80314
     2016.76659        12.55494         8.09714
     2016.76933        12.74828         8.09574
     2016.77207         3.97262         7.93959
     2016.77481         3.58395         7.64418
     2016.77754         1.45129         7.71733
     2016.78028        -2.80637         7.79188
     2016.78302        -1.39903         7.90864
     2016.78576         7.37831         8.15060
     2016.78850         4.63865         7.93818
     2016.79123         9.26099         7.95366
     2016.79397         1.62533         7.85518
     2016.79671         1.42867         7.96210
     2016.79945        -6.66699         7.81580
     2016.80219         3.57735         7.99023
     2016.80492        -4.36731         7.81720
     2016.80766        -3.64797         7.80595
     2016.81040        -3.62063         7.88191
     2016.81314        -8.21029         7.85800
     2016.81587        -0.35295         7.87769
     2016.81861        -4.87861         7.92974
     2016.82135         1.42273         8.14778
     2016.82409        -2.10793         8.00571
     2016.82683         1.38441         7.72155
     2016.82956        -1.59525         7.79188
     2016.83230         4.35809         7.89879
     2016.83504        -3.14257         7.85096
     2016.83778        -0.53223         7.99867
     2016.84052         1.13011         8.09996
     2016.84325        -5.35555         7.85800
     2016.84599         1.18979         7.99445
     2016.84873         0.86913         7.94240
     2016.85147         2.98747         7.98882
     2016.85420         5.91681         7.77922
     2016.85694         0.70215         7.92693
     2016.85968        -0.18451         7.92271
     2016.86242         1.93283         7.82705
     2016.86516         2.42317         8.26454
     2016.86789         0.86551         7.81720
     2016.87063        -0.49315         7.91286
     2016.87337         3.38719         7.78907
     2016.87611       -11.49047         7.70326
     2016.87885        -5.04913         7.78907
     2016.88158        -6.34479         7.72858
     2016.88432         9.70655         7.68497
     2016.88706         6.52789         7.86925
     2016.88980        -1.09577         7.85096
     2016.89253         6.81257         7.81298
     2016.89527         0.54191         7.77641
     2016.89801         4.71425         7.86222
     2016.90075         0.42159         7.82986
     2016.90349         1.28893         8.08308
     2016.90622         7.24627         8.04509
     2016.90896         0.04961         7.84534
     2016.91170        -3.96805         7.85800
     2016.91444         1.91429         7.85659
     2016.91718        -9.58737         7.99445
     2016.91991        -3.66603         8.15763
     2016.92265        -7.34569         7.94100
     2016.92539        -1.30235         7.75390
     2016.92813        -5.18401         7.84956
     2016.93086        -2.50667         7.84815
     2016.93360        -3.52633         7.94100
     2016.93634        -4.86999         7.97054
     2016.93908        -1.26165         8.03665
     2016.94182        -0.13231         7.86363
     2016.94455         3.82303         8.22234
     2016.94729         3.44837         8.62185
     2016.95003         3.21671         8.55152
     2016.95277         0.49905         8.50650
     2016.95551        -0.34461         8.19843
     2016.95824         2.45673         7.95647
     2016.96098        -1.45393         7.92271
     2016.96372        -8.54759         7.90020
     2016.96646         0.34875         7.95647
     2016.96919         9.61909         8.10699
     2016.97193        -6.20757         7.91708
     2016.97467         5.02577         7.90442
     2016.97741         0.09011         7.94662
     2016.98015        -2.39955         8.00852
     2016.98288        -2.19921         7.97476
     2016.98562        -2.83287         7.92974
     2016.98836        11.70447         7.98882
     2016.99110        10.82781         8.69641
     2016.99384         8.80815         8.30675
     2016.99657         6.60349         8.14075
     2016.99931         4.22383         8.03947
     2017.00205        -1.48283         8.01696
     2017.00479        -2.25349         8.13653
     2017.00752        -9.82315         8.06760
     2017.01026       -11.84881         7.94522
     2017.01300        -1.23947         7.84112
     2017.01574        -7.97313         7.80595
     2017.01848        -6.14479         7.69622
     2017.02121        -6.05345         7.79048
     2017.02395        -0.17711         7.76515
     2017.02669        -0.90077         7.81861
     2017.02943        -0.73743         7.69622
     2017.03216        -7.88909         7.61885
     2017.03490        -9.01175         7.57665
     2017.03764       -11.14141         7.64418
     2017.04038        -9.24307         7.56821
     2017.04312        -9.26273         7.57947
     2017.04585        -2.17939         8.01415
     2017.04859        13.92095         7.97335
     2017.05133         8.67928         7.70748
     2017.05407         5.65262         7.89035
     2017.05681         8.17096         7.85659
     2017.05954        -4.72370         7.77500
     2017.06228        -5.24736         7.70466
     2017.06502       -10.83102         7.55836
     2017.06776       -11.19768         7.58369
     2017.07049        -9.79234         7.56962
     2017.07323       -10.96800         7.65965
     2017.07527       -14.88023        11.46486
     2017.08812       -11.30202        21.39778
     2017.08966       -13.11996         7.40784
     2017.09187       -13.79629         9.89213
     2017.25514         1.70271        26.48874
     2017.25667         2.84978         7.82846
     2017.25941        -1.70788         7.95366
     2017.26214         4.65746         7.87910
     2017.26488         6.05080         7.76515
     2017.26762        -0.83486         7.99726
     2017.27036        -3.86552         8.13090
     2017.27310        -5.18618         8.01274
     2017.27583        -4.57584         8.33207
     2017.27857        -2.38650         8.17170
     2017.28119        -2.10309         8.49384
     2017.32358         0.73021        23.81877
     2017.32512       -11.69373         7.63011
     2017.32785        -7.33639         7.56821
     2017.33059       -13.10805         7.49788
     2017.33333       -11.50071         7.64418
     2017.33607       -10.62237         7.60338
     2017.33880        -7.14903         7.51054
     2017.34154        -7.16669         7.74827
     2017.34428       -12.45235         7.40081
     2017.34702       -12.99501         7.42754
     2017.34976       -13.05367         7.48381
     2017.35249       -15.47933         7.52742
     2017.35523        -6.65499         7.59775
     2017.35797        -8.20265         7.66246
     2017.36071        -9.45631         7.53304
     2017.36344        -7.90197         7.58931
     2017.36618       -10.86363         7.59072
     2017.36892        -1.76429         7.64840
     2017.37166        -9.96895         7.64840
     2017.37440        -8.68661         7.65543
     2017.37713        -8.68527         7.96069
     2017.37987       -18.27193         7.71873
     2017.38261        -6.59059         7.64980
     2017.38535        -5.30225         7.49366
     2017.38809        -3.04191         7.50350
     2017.39082        -0.14257         7.68497
     2017.39356        -4.60723         7.63855
     2017.39630        -5.38989         7.68497
     2017.39904         1.77345         7.60479
     2017.40177        -3.46021         7.61323
     2017.40451        -7.39087         7.91427
     2017.40725        -2.24153         7.66528
     2017.40999         0.54381         7.70326
     2017.41273        -1.89185         7.60901
     2017.41546        -4.13351         7.76656
     2017.41820        -3.73917         7.90864
     2017.42094        -0.36983         7.78063
     2017.42368        -3.24249         7.57806
     2017.42642        -1.00115         7.55977
     2017.42915         2.43419         7.65262
     2017.43189         0.57353         7.76375
     2017.43463         2.09587         7.73280
     2017.43737         3.65921         7.73421
     2017.44010         0.31655         7.71170
     2017.44284        -0.73911         7.73280
     2017.44558         3.46623         7.61604
     2017.44832        -1.71843         7.70326
     2017.45106         7.11191         7.80454
     2017.45379         8.78025         7.96069
     2017.45653         9.27859         8.10277
     2017.45927         1.34793         7.63433
     2017.46201        -1.95673         7.94381
     2017.46475        -0.99639         7.83830
     2017.46748        -2.00005         7.81017
     2017.47022         1.95129         7.54992
     2017.47296         1.41363         7.70748
     2017.47570        -1.24503         7.56258
     2017.47843        -2.10769         7.58931
     2017.48117         3.55965         7.59072
     2017.48391         2.28399         7.64699
     2017.48665         2.75033         7.55133
     2017.48939         2.00667         7.59494
     2017.49212        -0.68899         7.60901
     2017.49486         0.51035         7.68638
     2017.49760         1.49069         7.66528
     2017.50034         5.92203         7.59494
     2017.50308         0.78737         7.56118
     2017.50581         2.96671         7.62026
     2017.50855        -0.07095         7.64980
     2017.51129        -0.00261         7.75531
     2017.51403         5.92673         7.72999
     2017.51676        -0.54593         7.50913
     2017.51950        -2.61959         7.68075
     2017.52224         5.03475         7.68075
     2017.52498        -1.00091         7.59635
     2017.52772         0.26343         7.95084
     2017.53045         1.83977         7.61463
     2017.53319        -2.14189         7.66246
     2017.53593         7.51745         7.65965
     2017.53867         3.00579         7.64840
     2017.54141         7.72813         7.60338
     2017.54414         2.05247         7.57947
     2017.54688         3.33081         7.57947
     2017.54962        -3.35785         7.66246
     2017.55236        -0.30351         7.63011
     2017.55509        -1.67517         7.67372
     2017.55783         2.53417         7.67372
     2017.56057         3.23751         7.65824
     2017.56331         1.10685         7.56399
     2017.56605        -0.46181         7.61604
     2017.56878         0.61853         7.63011
     2017.57152         6.99687         7.73280
     2017.57426        -0.38379         7.59775
     2017.57700        -2.46345         7.65684
     2017.57974        -1.07811         7.59353
     2017.58247        -1.09977         7.60057
     2017.58521         0.28157         7.61745
     2017.58795        -4.73709         7.71311
     2017.59069        -0.42075         7.70748
     2017.59342         1.15459         7.50913
     2017.59616        -0.48007         7.55555
     2017.59890         2.44627         7.60057
     2017.60164         3.39960         7.58931
     2017.60438         2.40794         7.60197
     2017.60711         2.55928         7.63996
     2017.60985         2.02562         7.70044
     2017.61259         1.45896         7.71170
     2017.61533         7.98530         8.00993
     2017.61807         3.58264         7.73280
     2017.62080         1.58598         7.66387
     2017.62354        -3.43768         7.70888
     2017.62628         5.91366         7.88895
     2017.62902        11.30900         8.34613
     2017.63175        -0.32166         7.62167
     2017.63531        -4.19981        12.36235
     2017.63723        -4.95498         7.58650
     2017.63997         3.99736         7.72577
     2017.64271         6.36470         7.82283
     2017.64544         1.99204         7.72717
     2017.64818         3.84438         7.73843
     2017.65092         1.98972         7.69060
     2017.65366         4.90906         7.59916
     2017.65639         1.50740         7.66106
     2017.65913         8.78374         7.67372
     2017.66187         1.75008         7.78766
     2017.66461         1.24442         7.79751
     2017.66735         1.33076         7.69904
     2017.67008         6.79710         7.63433
     2017.67282         3.46544         7.87769
     2017.67556         2.58478         7.60479
     2017.67830         1.26312         7.64558
     2017.68104         2.73946         7.52460
     2017.68377         3.47180         7.84534
     2017.68651         6.77414         8.07182
     2017.68925         9.56848         7.80876
     2017.69199         4.88182         7.69341
     2017.69472         2.57016         7.49788
     2017.69746         0.83150         7.76234
     2017.70020         7.22684         7.94381
     2017.70294         1.84318         7.96350
     2017.70568        -0.32448         7.81158
     2017.70841         6.98586         7.51898
     2017.71115         4.88920         7.80173
     2017.71389         4.22654         7.66246
     2017.71663         6.52688         7.76656
     2017.71937         5.62722         7.80736
     2017.72210        -1.80244         7.74405
     2017.72484        -3.39610         7.62026
     2017.72758         2.97524         7.61885
     2017.73032         2.55358         7.57103
     2017.73305         2.06292         7.74968
     2017.73579        -0.82074         7.75531
     2017.73853         3.62760         7.69622
     2017.74127         3.57894         7.62167
     2017.74401         3.90028         7.70607
     2017.74674         0.43462         7.65262
     2017.74948         1.59196         7.82142
     2017.75222        -4.16670         7.64699
     2017.75496        -2.00136         7.56821
     2017.75770        -0.36702         7.74124
     2017.76043         0.72232         7.57947
     2017.76317         9.08166         7.71311
     2017.76591         7.82600         7.99164
     2017.76865        -2.00466         7.84956
     2017.77138        -0.16132         7.70326
     2017.77412        -1.43698         7.67653
     2017.77686        -0.59164         7.66106
     2017.77960         3.50570         7.87207
     2017.78234        -8.25796         7.59775
     2017.78507        -1.94162         7.63714
     2017.78781        -3.56428         7.74405
     2017.79055         1.44106         7.62729
     2017.79329        11.59540         7.85800
     2017.79603         3.90974         7.80454
     2017.79876        12.83708         7.91849
     2017.80150         1.79742         7.84534
     2017.80424         7.51276         7.74546
     2017.80698         6.81110         7.91567
     2017.80971        -2.63356         7.83268
     2017.81245        -6.23622         7.61182
     2017.81519         3.86112         7.89598
     2017.81793        -8.49554         7.73421
     2017.82067        -3.77220         7.83127
     2017.82340         0.81314         7.63573
     2017.82614        -0.83652         7.60057
     2017.82888        -4.97018         7.59353
     2017.83162         1.81616         7.70185
     2017.83436        -1.57650         7.58228
     2017.83709         4.21984         7.73702
     2017.83983       -10.61982         7.52601
     2017.84257        -7.33248         7.63996
     2017.84531        -9.06514         7.59635
     2017.84804       -13.13580         7.65402
     2017.85078         0.24254         7.61041
     2017.85352         3.31788         7.57665
     2017.85626         4.54322         7.81720
     2017.85900        -2.31144         7.93818
     2017.86173         5.83790         7.81298
     2017.86447         9.34324         7.80032
     2017.86721         9.71258         7.79892
     2017.86995         4.05592         7.86503
     2017.87269         7.89126         8.01555
     2017.87542        -0.74841         8.07604
     2017.87816        -5.59807         8.01274
     2017.88090         6.31527         8.12106
     2017.88364        14.44861         8.18999
     2017.88637         6.81795         7.96491
     2017.88911         2.46729         8.04087
     2017.89185        16.25863         8.18155
     2017.89459        -0.99703         8.05213
     2017.89733        -6.11869         7.82564
     2017.90006         0.79365         7.81158
     2017.90280         4.47999         7.93818
     2017.90554        -2.96267         7.65262
     2017.90828         2.27067         7.71873
     2017.91102       -11.34999         7.79188
     2017.91375        -5.04465         7.92974
     2017.91649         0.75369         7.80032
     2017.91923         3.79403         7.93537
     2017.92197         1.74437         7.92693
     2017.92470        -1.90529         7.81720
     2017.92744       -10.85795         7.67653
     2017.93018       -10.72061         7.56540
     2017.93292        -7.00627         7.54570
     2017.93566        -5.92593         7.50772
     2017.93839        -3.27659         7.63855
     2017.94113        -0.16925         7.60197
     2017.94387        -0.08091         7.63714
     2017.94661        -5.00557         7.66387
     2017.94935        -0.76423         7.55274
     2017.95208        -2.25189         7.84112
     2017.95482        -4.74155         7.61745
     2017.95756        -2.81221         7.61745
     2017.96030        -2.75687         7.72155
     2017.96303        -1.65253         7.76656
     2017.96577        -4.45119         7.90301
     2017.96851        -9.25585         7.58931
     2017.97125        -7.78751         7.39800
     2017.97399        -3.87317         7.50491
     2017.97672        -5.22283         7.40503
     2017.97946        -4.65649         7.50491
     2017.98220       -18.44415         7.42332
     2017.98494       -15.49181         7.43457
     2017.98767        -8.29047         7.46693
     2017.99041         0.05587         7.47537
     2017.99315        -5.96979         7.69060
     2017.99589        -3.56345         7.58650
     2017.99863        -8.85411         7.48521
     2018.00136       -12.78377         7.49506
     2018.00410       -13.02343         7.52320
     2018.00684        -8.23109         7.54570
     2018.00958        -8.22975         7.58650
     2018.01232        -7.23541         7.68075
     2018.01505        -7.00007         7.61885
     2018.01779        -1.37873         7.52038
     2018.02053        -1.55639         7.67231
     2018.02327         1.25395         7.58509
     2018.02600        -0.80071         7.59494
     2018.02874        -1.56937         7.82142
     2018.03148       -12.42603         7.77922
     2018.03422       -10.76269         7.72436
     2018.03696       -10.21435         7.61604
     2018.03969        -7.29601         7.52742
     2018.04243        -7.38767         7.65402
     2018.04517        -7.17333         7.74546
     2018.04791        -7.77899         7.75531
     2018.05065         0.31535         7.63855
     2018.05338        -0.17731         7.78485
     2018.05612         5.91303         7.78485
     2018.05886        -2.49163         7.74546
     2018.06160        -0.67629         7.89035
     2018.06433         3.29405         8.03806
     2018.06707         0.35539         8.00993
     2018.06981        -5.07227         8.06479
     2018.07255         3.01807         8.10136
     2018.07529       -12.88659         8.08448
     2018.07802       -16.03325         8.07463
     2018.08076       -13.87291         7.73561
     2018.08350       -15.52657         7.63714
     2018.08624       -16.09923         7.77078
     2018.08898        -1.11689         8.07604
     2018.09171       -11.08555         7.81158
     2018.09445        -2.07421         7.97757
     2018.09719        -9.37387         7.91427
     2018.09993       -12.66353         7.61745
     2018.10266       -16.07919         7.80173
     2018.10540        -9.95885         7.91005
     2018.10814       -10.24051         7.59494
     2018.11088       -12.13117         7.64136
     2018.11362        -8.20883         7.60760
     2018.11635       -13.02449         7.58369
     2018.11909       -11.73115         7.79048
     2018.12183        -9.59581         7.79048
     2018.12457        -8.23347         7.60338
     2018.12731       -13.19913         7.58650
     2018.13004         3.03421         7.65824
     2018.13278        -6.83145         7.73280
     2018.13552        -4.09711         7.68216
     2018.13826        -8.77677         7.70044
     2018.14099       -12.96943         7.62167
     2018.14373       -17.00009         7.63573
     2018.14647        -8.84875         8.01133
     2018.14921        -4.42441         7.79470
     2018.15195         3.89692         7.75390
     2018.15468        -3.06874         7.92552
     2018.15742         0.13260         7.79188
     2018.16016        -3.52906         7.76375
     2018.16290        -5.60972         7.95506
     2018.16564       -10.27238         7.80454
     2018.16837       -10.21704         7.68216
     2018.17111        -9.32170         7.62870
     2018.17385       -14.66736         7.62729
     2018.17659        -9.94202         7.69341
     2018.17932        -9.18268         7.68497
     2018.18206        -3.36234         7.80314
     2018.18480        -6.47700         7.76093
     2018.18754        -7.59466         7.63855
     2018.19028       -10.93432         7.64840
     2018.19301        -6.19098         7.68778
     2018.19575        -3.06064         7.71733
     2018.19849        -2.69830         7.64418
     2018.20123        -0.23796         7.75249
     2018.20397        -1.43162         7.59775
     2018.20670        -4.58828         7.67090
     2018.20944       -11.67794         7.65684
     2018.21218       -13.29160         7.66668
     2018.21492       -19.42526         7.58791
     2018.21765        -5.45292         7.52320
     2018.22039        -5.10658         7.51476
     2018.22313        -3.32924         7.50350
     2018.22587       -16.19390         7.59916
     2018.22861       -14.89356         7.48521
     2018.23134       -12.25122         7.50491
     2018.23408       -15.19988         7.64699
     2018.23682       -12.44354         7.51616
     2018.23956       -17.32320         7.57384
     2018.24230        -6.97686         7.49647
     2018.24503       -11.14752         7.51054
     2018.24777        -8.94218         7.51476
     2018.25051        -6.54284         7.42895
     2018.25325       -11.87850         7.44864
     2018.25598       -10.57816         7.45567
     2018.25872        -9.38982         7.78063
     2018.26146        -7.96848         7.82283
     2018.26420        -1.82914         7.64277
     2018.26694        -9.65480         7.61604
     2018.26967       -16.98746         7.69763
     2018.27241        -5.10412         7.58931
     2018.27515        -1.48678         7.46271
     2018.27789       -13.11044         7.74265
     2018.28062        -5.94110         7.82283
     2018.28336       -10.73176         7.64136
     2018.28610       -21.31742         7.52742
     2018.28884        -4.46308         7.56681
     2018.29158        -6.84674         7.91145
     2018.29431        -9.44940         7.79751
     2018.29705       -12.08006         7.71873
     2018.29979        -9.61472         7.56681
     2018.30253        -5.89738         7.64980
     2018.30527       -11.88704         7.40362
     2018.30800       -12.33570         7.33891
     2018.31074        -8.83836         7.41488
     2018.31348       -11.40302         7.46693
     2018.31622       -12.45368         7.48662
     2018.31895        -3.64734         7.67794
     2018.32169        -9.60700         7.49084
     2018.32443        -7.38266         7.54852
     2018.32717       -11.63732         7.60901
     2018.32991        -9.19098         7.76656
     2018.33264        -6.99864         7.63151
     2018.33538       -13.78230         7.81158
     2018.33812        -6.55696         7.77500
     2018.34086        -6.84162         7.40503
     2018.34360        -7.76028         7.57665
     2018.34633        -6.41194         7.65121
     2018.34907        -3.35460         7.53726
     2018.35181         0.50774         7.64418
     2018.35455         2.80108         7.46552
     2018.35728        -1.99758         7.48240
     2018.36002        -5.89424         7.51476
     2018.36276         0.15510         7.73421
     2018.36550        -1.99056         7.63292
     2018.36824         0.41578         7.49225
     2018.37097        -0.43988         7.52038
     2018.37371         3.28846         7.47818
     2018.37645        -6.59320         7.84534
     2018.37919        -0.67786         7.66809
     2018.38193         0.92048         7.50491
     2018.38466         3.88282         7.56399
     2018.38740         4.70216         7.59775
     2018.39014         7.19350         7.62307
     2018.39288         2.74684         7.68778
     2018.39561         3.16918         7.55133
     2018.39835         8.75552         7.61604
     2018.40109         1.26286         7.59775
     2018.40383         3.66520         7.71170
     2018.40657         3.08454         7.63573
     2018.40930        14.32188         7.72577
     2018.41204         6.81022         7.58228
     2018.41478         3.71656         7.64699
     2018.41752         1.33690         7.61745
     2018.42026        -4.71276         7.59213
     2018.42299         1.27558         7.66528
     2018.42573         7.86992         7.50069
     2018.42847         6.45225         7.58791
     2018.43121         9.18659         7.61745
     2018.43394         6.37193         7.59775
     2018.43668         1.32527         7.73561
     2018.43942         1.48261         7.64840
     2018.44216         7.34195         7.49647
     2018.44490         2.98629         7.59072
     2018.44763         3.51563         7.67090
     2018.45037         3.62197         7.57525
     2018.45311         3.96331         7.73561
     2018.45585         1.88865         7.62167
     2018.45859         0.96799         7.49647
     2018.46132         0.07733         7.48662
     2018.46406         6.00867         7.57384
     2018.46680        10.83601         7.61041
     2018.46954         3.35135         7.52320
     2018.47227        -0.67731         7.59213
     2018.47501         5.93103         7.47677
     2018.47775         0.71637         7.49647
     2018.48049         1.22071         7.67372
     2018.48323         3.55005         7.49366
     2018.48596         1.13639         7.52179
     2018.48870         0.01973         7.47396
     2018.49144         0.97307         7.51898
     2018.49418        -0.16759         7.79188
     2018.49692         3.56875         7.78766
     2018.49965         3.52009         7.56399
     2018.50239        -2.90057         7.55977
     2018.50513         1.24177         7.46411
     2018.50787         5.08311         7.56399
     2018.51060         0.36445         7.57947
     2018.51334         3.17279         7.52742
     2018.51608         2.05813         7.65121
     2018.51882         4.25547         7.55274
     2018.52156         8.39281         7.59494
     2018.52429        10.01715         7.51616
     2018.52703         8.41949         7.47959
     2018.52977         6.51283         7.46833
     2018.53251         4.46417         7.51757
     2018.53525        13.77551         7.50632
     2018.53798         6.97485         7.42191
     2018.54072         6.27119         7.44723
     2018.54346        12.79153         7.58369
     2018.54620         5.98487         7.46411
     2018.54893         5.01621         7.47818
     2018.55167         6.81055         7.50491
     2018.55441         9.23089         7.48943
     2018.55715         5.06523         7.55414
     2018.55989         1.75357         7.70185
     2018.56262         3.75091         7.46693
     2018.56536         8.91725         7.47818
     2018.56810        16.51759         7.50350
     2018.57084         6.01393         7.57384
     2018.57357         6.56227         7.71170
     2018.57631         5.78361         7.83268
     2018.57905         9.44695         7.87769
     2018.58179         9.55229         7.62729
     2018.58453        11.48163         7.67231
     2018.58726         8.58197         7.50913
     2018.59000         6.80731         7.54852
     2018.59274        10.54365         7.50491
     2018.59548        10.02799         7.58087
     2018.59822         8.93433         7.46974
     2018.60095         7.09867         7.49788
     2018.60369        10.63301         7.46130
     2018.60643         9.13335         7.47255
     2018.60917        14.92669         7.58650
     2018.61190         8.96903         7.59635
     2018.61464         7.81337         7.49225
     2018.61738        10.49171         7.48381
     2018.62012        12.78505         7.48099
     2018.62286        11.42239         7.57384
     2018.62559        10.68873         7.72999
     2018.62833         5.07907         7.49928
     2018.63107         8.63241         7.53586
     2018.63381         6.97375         7.63433
     2018.63655         5.67609         7.51194
     2018.63928        10.96543         7.88051
     2018.64202        12.28777         7.95084
     2018.64476        10.46111         7.52179
     2018.64750         5.87445         7.56258
     2018.65023         8.89879         7.68497
     2018.65297         7.22213         7.61182
     2018.65571         9.48647         7.58931
     2018.65845         8.59181         7.56821
     2018.66119         7.61515         7.55836
     2018.66392         3.62749         7.53164
     2018.66666         3.37583         7.62870
     2018.66940         4.79517         7.55555
     2018.67214         4.35351         7.65402
     2018.67488         9.45485         7.66668
     2018.67761        10.92219         7.58369
     2018.68035         6.98353         7.62729
     2018.68309         1.79887         7.66950
     2018.68583        10.70821         7.69622
     2018.68856         4.17455         7.59916
     2018.69130         9.83289         7.84252
     2018.69404        12.60123         7.85378
     2018.69678         9.01257         7.64558
     2018.69952        -0.30709         7.73983
     2018.70225         1.67624         7.86222
     2018.70499         4.88558         7.69482
     2018.70773         6.97592         7.69060
     2018.71047         4.49426         7.66387
     2018.71321         3.66660         7.57665
     2018.71594        -1.16906         7.53445
     2018.71868        -5.48672         7.50491
     2018.72142         4.45262         7.73983
     2018.72416        10.24296         7.83268
     2018.72689         0.17030         7.69060
     2018.72963         2.67964         7.54570
     2018.73237        -1.96402         7.51616
     2018.73511        -1.93468         7.63151
     2018.73785         4.12566         7.51194
     2018.74058        -0.65900         7.56821
     2018.74332         8.11634         7.60619
     2018.74606         4.89968         7.74546
     2018.74880         4.02902         7.69904
     2018.75154         1.65836         7.67512
     2018.75427         2.97870         7.43457
     2018.75701         2.91604         7.69622
     2018.75975         2.22738         7.68075
     2018.76249         4.87972         7.77078
     2018.76522         0.90106         7.77219
     2018.76796         3.48940         7.76234
     2018.77070         5.60574         7.76375
     2018.77344        -0.03492         7.59775
     2018.77618         4.35442         7.62448
     2018.77891         5.89876         7.66387
     2018.78165         0.00810         7.66387
     2018.78439         4.59044         7.52179
     2018.78713         2.14878         7.52320
     2018.78987        -2.48888         7.69060
     2018.79260         1.37246         7.49647
     2018.79534         9.06080         7.50069
     2018.79808        -0.23786         7.53867
     2018.80082         0.66448         7.61182
     2018.80355         3.25882         7.56821
     2018.80629         6.37316         7.71873
     2018.80903         3.69150         7.55696
     2018.81177         3.55384         7.85941
     2018.81451        19.61618         7.84956
     2018.81724        14.00852         8.00008
     2018.81998         7.10186         7.64136
     2018.82272         9.84320         7.87769
     2018.82546         0.44354         7.74124
     2018.82820        -0.86512         7.67934
     2018.83093         0.38422         7.77922
     2018.83367        -0.03544         7.77219
     2018.83641        10.49290         8.00430
     2018.83915         4.68524         7.77781
     2018.84188         7.81558         7.83127
     2018.84462         3.70592         7.67794
     2018.84736        -6.94974         7.60619
     2018.85010        -2.11740         7.58931
     2018.85284        -1.51606         7.55133
     2018.85557        -2.18672         7.72155
     2018.85831        -1.83438         7.59635
     2018.86105        -4.20004         7.58509
     2018.86379        -2.98670         7.75671
     2018.86653         7.98564         7.51616
     2018.86926         5.57598         7.83268
     2018.87200         0.17932         7.64980
     2018.87474         3.47866         7.76375
     2018.87748        -1.91200         7.70607
     2018.88021         3.39034         7.73843
     2018.88295         2.63968         7.64840
     2018.88569         3.30602         7.68638
     2018.88843        13.57536         7.88051
     2018.89117         0.72770         7.92693
     2018.89390        -5.36596         7.83549
     2018.89664       -17.06362         8.10418
     2018.89938        -1.05128         8.18295
     2018.90212         9.31406         8.15763
     2018.90485        19.05840         8.00852
     2018.90759         0.10174         7.78626
     2018.91033         2.52008         7.85941
     2018.91307         3.89042         7.95084
     2018.91581         2.40076         7.82705
     2018.91854         5.01610         7.82705
     2018.92128         2.27244         7.74405
     2018.92402        -2.71222         7.74546
     2018.92676         4.15512         7.69904
     2018.92950         4.23146         7.60338
     2018.93223         2.12980         7.79751
     2018.93497         1.05114         7.70466
     2018.93771         7.69048         7.73421
     2018.94045        -1.95218         7.69904
     2018.94318         9.23916         7.67653
     2018.94592        10.03750         7.76375
     2018.94866        15.28384         8.03103
     2018.95140        16.41618         7.87066
     2018.95414        13.14452         7.43598
     2018.95687        14.30986         7.70888
     2018.95961        12.44120         7.63996
     2018.96235        15.54754         7.97757
     2018.96509         2.54288         7.90864
     2018.96783         4.63522         7.95788
     2018.97056         0.22156         7.47818
     2018.97330        -0.16910         7.62026
     2018.97604         0.36724         7.82002
     2018.97878        -1.88143         7.74124
     2018.98151        -9.08709         7.79610
     2018.98425         6.17525         7.94381
     2018.98699        -5.98641         7.96350
     2018.98973       -11.46107         7.80454
     2018.99247        -2.57573         7.92552
     2018.99520       -10.08639         7.65684
     2018.99794       -12.41005         7.58791
     2019.00068       -11.51271         7.68216
     2019.00342        -9.53037         7.75249
     2019.00616         2.84797         7.76515
     2019.00889        11.18931         8.06197
     2019.01163        -2.11135         7.78626
     2019.01437         4.25799         7.70748
     2019.01711         5.87733         7.63292
     2019.01984        -5.17133         7.68638
     2019.02258        -7.28799         7.65121
     2019.02532        -0.96565         7.91427
     2019.02806        -4.76631         7.82283
     2019.03080        -4.53397         7.66387
     2019.03353        -6.61163         7.54852
     2019.03627       -10.40829         7.46552
     2019.03901        -1.13195         7.38815
     2019.04175        -3.99061         7.46130
     2019.04449         3.25973         7.43317
     2019.04722        -1.87393         7.72014
     2019.04996       -10.29359         7.75249
     2019.05270        -9.85525         7.72717
     2019.05544        -5.10391         7.61323
     2019.05817        -5.98157         7.71592
     2019.06091        -1.57623         7.86785
     2019.06365        -1.23889         7.67372
     2019.06639        -3.78155         7.67090
     2019.06913        -5.16121         7.73561
     2019.07186        -4.51487         7.71029
     2019.07460        -1.97453         7.52742
     2019.07734        -1.57219         7.46833
     2019.08008         1.35815         7.46411
     2019.08282        -3.11151         7.77219
     2019.08555         2.78483         7.69763
     2019.08829         0.72617         7.57243
     2019.09103         3.49251         7.45427
     2019.09377         2.04085         7.50069
     2019.09650         6.87419         7.50772
     2019.09924         0.71053         7.42895
     2019.10198        -2.82213         7.41910
     2021.06502        78.24458        21.85778
     2021.07049        85.66826        22.01534
     2021.07323        75.71860        22.13491
     2021.07597        74.70394        22.07301
     2021.07871        71.96328        22.66525
     2021.08145        98.31062        22.41485
     2021.08418        72.67996        22.48097
     2021.08692        79.29530        25.07498
     2021.08966        98.43664        24.80066
     2021.09240        76.73498        23.47693
     2021.09514        74.23332        23.23497
     2021.09787        69.53766        25.10592
     2021.10061        80.68600        24.06916
     2021.10335        90.17734        23.38971
     2021.10609        71.38568        23.70904
     2021.10882        62.41602        22.51332
     2021.11156        75.78136        22.65399
     2021.11430        71.77170        22.32763
     2021.11704        75.09904        22.78482
     2021.11978        79.11838        22.50347
     2021.12251        67.86572        23.00849
     2021.12525        73.06206        23.19980
     2021.12799        81.85840        25.70238
     2021.13073        82.29774        25.30427
     2021.13347        91.81108        23.51773
     2021.13620        68.41142        22.60194
     2021.13894        62.24776        22.66243
     2021.14168        56.27110        23.41925
     2021.14442        78.83444        24.55871
     2021.14715        74.21578        26.74055
     2021.14989        93.04312        29.65107
     2021.15263        88.00146        27.83639
     2021.15537       131.73280        30.19970
     2021.15811       160.80914        28.41034
     2021.20583       -63.26680       144.98049
     2021.20693       117.74053        38.69635
     2021.28405        80.54777        45.36285
     2021.28625        54.27844        37.05751
     2021.79705       -28.01629       152.84552
     2021.79876        64.83567        30.30661
     2021.80064        90.13253        97.87189
     2021.80971       100.98803       242.42895
     2021.82716        92.13045       139.81919
     2021.82787        14.78303       147.22704
