# ================= DQRFIT RESULTS ================
# INPUT FILE: series/P363.rad
# OUTPUT: LDETRENDED
# FILTER FUNCTION: f(t)
# f(t)=+line(t)+annual(t)
# line(t)=+P 1+P 2*t
# annual(t)=+P 3*sin(2*pi*t+P 4)
# heav(t)=(t<0?0:1)
# TOTAL OBSERVATIONS MTOT= 3677
# INITIAL TIME INTERVAL= 2017.5222 - 2007.4333 = 10.0890
# TOTAL OBSERVATIONS AFTER PREFILTER M= 3676
# TIME-SPAN= 2017.5222 - 2007.4333 = 10.0890
# OBSERVATIONS: USED M=  3676 REJECTED MTOT-M=     1 %USED=   99.9728
# N=  4 PARAMETERS
# MAXSIG= 175.00000
# MAXRES=  18.76815
# SCALE FACTOR FOR LENGTHS: SCL=  10.00000
# SCALE FACTOR FOR SIGMAS: SCLSIG=   1.00000
# CHI^2=   2699.878 DOF=  3672 CHI^2/DOF=   0.73526
# RMS=      4.790 SDEV=      4.790 MEAN=    0.02554
#  P #       PARAMETER +-    SIGMA %error PARAMETER NAME
# P 1 =      -880.52092 +-   54.369   6.17 YZERO                              
# P 2 =         0.43836 +-    0.027   6.16 SLOPE                              
# P 3 =         4.50137 +-    0.112   2.48 ANNUAL AMPLITUDE                   
# P 4 =        -3.11861 +-    0.035   1.13 ANNUAL PHASE                       
#       T            LDETRENDED       SIG_OBS
     2007.43326         1.04276         4.67752
     2007.43600        -8.41444         4.84987
     2007.43874       -16.01864         4.79928
     2007.44147        -2.60784         4.76241
     2007.44421        -4.41104         4.88588
     2007.44695        -4.46325         4.69810
     2007.44969        -8.37845         4.66980
     2007.45243        -7.73765         4.70324
     2007.45516        -5.84485         4.67495
     2007.45790         2.81095         4.67923
     2007.46064        -3.15425         4.65780
     2007.46338        -2.05745         4.66980
     2007.46611        -8.81765         4.68781
     2007.46885         1.99215         4.66294
     2007.47159        -4.44405         4.67580
     2007.47433        -8.18525         4.68352
     2007.47707       -10.00045         4.81300
     2007.47980        -8.14665         4.66380
     2007.48254       -12.25185         4.66980
     2007.48528        -8.62605         4.71439
     2007.48802        -5.03325         4.78127
     2007.49076        -1.66745         4.76841
     2007.49349        -7.02865         4.72811
     2007.49623         0.72715         4.69895
     2007.49897        -1.64105         4.77870
     2007.50171        -4.69625         4.67066
     2007.50444        -8.32845         4.67838
     2007.50718         1.70135         4.73154
     2007.50992        -0.12085         4.69895
     2007.51266        -1.33905         4.69467
     2007.51540        -0.97125         4.74354
     2007.51813        -1.87145         4.75726
     2007.52087        -7.04265         4.73583
     2007.52361         7.37915         4.82243
     2007.52635         3.90995         4.83444
     2007.52908         2.43075         4.71525
     2007.53182        -3.12545         4.86359
     2007.53456        -2.70065         5.07196
     2007.53730         1.54715         4.77956
     2007.54004         4.02795         4.76327
     2007.54277        -1.76425         4.91418
     2007.54551        -1.67845         4.83529
     2007.54825         5.96535         4.85502
     2007.55099        -6.89485         4.86788
     2007.55373         8.06395         4.84987
     2007.55646         4.77875         4.83272
     2007.55920         6.61555         4.77699
     2007.56194         4.99435         4.85073
     2007.56468         6.75515         4.84215
     2007.56741         1.78295         4.78899
     2007.57015         6.60375         4.82843
     2007.57289         5.59355         4.75469
     2007.57563         7.70835         4.76584
     2007.57837        -1.04185         4.81557
     2007.58110         7.39495         4.82329
     2007.58384        10.80975         4.75898
     2007.58658        -0.30145         4.72039
     2007.58932         7.60135         4.74354
     2007.59206         4.65615         4.77098
     2007.59479         7.12295         4.91075
     2007.59753         3.84475         4.90646
     2007.60027         7.22154         4.80528
     2007.60301        14.86234         4.79842
     2007.60574         9.33114         4.79070
     2007.60848         8.96094         4.83272
     2007.61122         3.79274         4.91590
     2007.61396         4.78254         4.82072
     2007.61670         2.41834         5.05652
     2007.61943         2.53214         5.03165
     2007.62217         9.60394         5.22116
     2007.62491         7.30574         5.10883
     2007.62765         1.19654         5.16199
     2007.63039         5.71134         5.14227
     2007.63312         0.83214         4.98192
     2007.63586         2.79494         4.91247
     2007.63860         1.95974         4.95620
     2007.64134        15.46454         4.85759
     2007.64407        14.44034         5.09082
     2007.64681         5.29714         4.96391
     2007.64955         6.85294         5.16199
     2007.65229         6.62474         5.10711
     2007.65503         4.20554         5.02479
     2007.65776         3.91534         5.06252
     2007.66050         8.41514         5.05824
     2007.66324        16.57194         5.02308
     2007.66598         7.58374         5.01365
     2007.66872         0.16154         5.01879
     2007.67145         6.37234         5.05309
     2007.67419         2.80714         5.19114
     2007.67693        13.52294         4.87988
     2007.67967         7.27674         4.98964
     2007.68240         9.57754         5.04366
     2007.68514         8.47434         5.09682
     2007.68788        12.14914         5.00936
     2007.69062        13.01494         4.90303
     2007.69336         9.88274         4.95448
     2007.69609         7.99854         4.95620
     2007.69883         7.57434         5.06424
     2007.70157        10.35914         4.92533
     2007.70431         9.82994         5.09339
     2007.70705        12.37474         4.94676
     2007.70978        15.66554         5.02651
     2007.71252         6.35234         4.89703
     2007.71526        16.11714         4.78299
     2007.71800        13.33294         4.78556
     2007.72073         7.59774         4.85673
     2007.72347        17.94754         4.83015
     2007.72621        11.73334         4.81900
     2007.72895        10.54214         4.79928
     2007.73169         8.23694         4.83015
     2007.73442         5.10674         4.75898
     2007.73716         4.57454         4.93991
     2007.73990        10.02334         4.93305
     2007.74264        11.11314         4.76927
     2007.74538        17.09394         4.79671
     2007.74811        14.04474         4.90218
     2007.75085         9.80654         5.03851
     2007.75359        12.42934         5.06510
     2007.75633        15.11613         4.92533
     2007.75906        15.07193         4.79756
     2007.76180         8.22173         4.79671
     2007.76454         6.25553         4.75469
     2007.76728         9.10333         5.11740
     2007.77002        15.69213         5.21515
     2007.77275         4.35693         5.10797
     2007.77549         8.69073         4.81986
     2007.77823        13.19953         4.79413
     2007.78097        11.32133         4.73840
     2007.78371         8.64813         4.78899
     2007.78644         5.06693         4.88417
     2007.78918         8.12573         4.83958
     2007.79192         7.42353         5.00422
     2007.79466        18.07433         4.92104
     2007.79739        14.76813         5.14484
     2007.80013        13.43893         4.94848
     2007.80287         9.50273         4.76670
     2007.80561         1.53353         4.79671
     2007.80835         9.79833         4.86445
     2007.81108        11.73913         4.96048
     2007.81382         6.94093         5.04194
     2007.81656         1.04973         4.92790
     2007.81930         3.73053         4.92533
     2007.82203         4.69133         4.82500
     2007.82477         6.98813         4.88503
     2007.82751         3.13793         4.89189
     2007.83025         6.24273         4.81729
     2007.83299         1.17953         4.76327
     2007.83572         1.77633         4.75383
     2007.83846         2.54913         4.80700
     2007.84120         7.93293         4.76584
     2007.84394         0.47673         4.78813
     2007.84668        -1.85547         4.81557
     2007.84941         0.60733         4.84215
     2007.85215         4.22513         4.98792
     2007.85489         4.36893         5.11654
     2007.85763         1.11473         5.06424
     2007.86036         4.32453         4.82500
     2007.86310         1.85233         5.07453
     2007.86584         7.70713         4.86016
     2007.86858         2.97193         4.85845
     2007.87132         7.18273         5.03251
     2007.87405         9.45053         4.94934
     2007.87679         5.07533         4.94162
     2007.87953        -3.86587         4.84987
     2007.88227        -5.24307         4.80785
     2007.88501         3.46273         4.75126
     2007.88774        -3.44847         4.81386
     2007.89048        -2.83867         4.78041
     2007.89322        -2.73687         4.89789
     2007.89596         1.67793         4.86702
     2007.89869         2.36373         4.81643
     2007.90143        -1.42947         4.91933
     2007.90417        -3.44067         5.04623
     2007.90691         4.27913         4.84301
     2007.90965        -1.21708         4.93390
     2007.91238         2.16172         4.82672
     2007.91512         3.69452         4.86102
     2007.91786         2.15132         4.84730
     2007.92060       -11.44988         5.09940
     2007.92334        -2.95408         4.97763
     2007.92607         4.21472         4.84473
     2007.92881         2.66652         4.93905
     2007.93155         2.48032         4.95534
     2007.93429         0.66812         4.87045
     2007.93702        -3.07908         4.91933
     2007.93976         1.42772         4.83186
     2007.94250         0.81652         4.91161
     2007.94524         1.61732         5.05824
     2007.94798        -1.80988         4.94848
     2007.95071         2.89092         4.93133
     2007.95345         3.80472         5.02222
     2007.95619         6.86552         4.99135
     2007.95893         9.66832         5.01965
     2007.96167         7.60912         5.02394
     2007.96440        10.23492         4.96134
     2007.96714         5.48072         4.97163
     2007.96988        -4.64348         4.91332
     2007.97262        -4.08968         5.05566
     2007.97535        -1.90388         5.06853
     2007.97809        -1.46708         4.97678
     2007.98083         5.55772         4.96649
     2007.98357         4.95752         4.90818
     2007.98631         2.08432         4.98278
     2007.98904        -4.64988         5.04023
     2007.99178         3.04892         4.97678
     2007.99452        -0.79028         5.02651
     2007.99726         2.14752         4.84473
     2008.00000        -8.18568         4.86445
     2008.00273        -9.03488         4.88760
     2008.00547        14.10392         4.86788
     2008.00821         6.61272         4.87902
     2008.01095        -6.14048         4.84215
     2008.01368       -10.08268         4.78470
     2008.01642         2.61112         4.77441
     2008.01916         1.61492         4.88074
     2008.02190        -1.66828         4.89103
     2008.02464         0.11552         4.93133
     2008.02737         0.12832         4.80099
     2008.03011        -0.07888         4.86445
     2008.03285        -4.77808         4.79413
     2008.03559        -0.62028         4.83015
     2008.03833        -5.97348         4.82072
     2008.04106       -11.90268         4.83015
     2008.04380        -5.88788         4.83444
     2008.04654        -3.88708         4.82415
     2008.04928        -6.00828         4.78813
     2008.05201        -3.70548         4.77784
     2008.05475         2.68032         4.73840
     2008.05749        -6.42288         4.74526
     2008.06023        -0.20308         4.72468
     2008.06297         1.03071         4.73840
     2008.06570        -1.46249         4.76069
     2008.06844         4.12731         4.76670
     2008.07118         0.67811         4.74955
     2008.07392         0.29491         4.75898
     2008.07666         7.97571         4.99478
     2008.07939        -4.80349         4.98192
     2008.08213        -3.70569         4.83444
     2008.08487        -8.01689         4.77699
     2008.08761        -2.33509         4.74955
     2008.09034         0.66971         4.79842
     2008.09308        -1.92449         4.79756
     2008.09582        -0.31169         4.92619
     2008.09856        -1.69689         4.97763
     2008.10130        -2.52509         4.98364
     2008.10403        -5.19529         4.92704
     2008.10677        -1.50649         4.74011
     2008.10951        -4.34669         4.84816
     2008.11225        -1.44289         4.77870
     2008.11498        -5.35309         4.76670
     2008.11772         0.03071         4.83101
     2008.12046        -3.01249         4.78727
     2008.12320         0.72031         4.83701
     2008.12594         1.53511         4.75040
     2008.12867        -1.38009         4.75726
     2008.13141         0.27671         4.78899
     2008.13415         4.37251         4.80357
     2008.13689         1.42831         4.76155
     2008.13963         7.36511         4.75298
     2008.14236        -0.78409         4.76841
     2008.14510         3.01771         4.76584
     2008.14784         6.79451         4.77098
     2008.15058        -0.33369         4.77013
     2008.15331        -4.25689         4.74783
     2008.15605        -2.16909         4.80528
     2008.15879        -2.12229         4.76241
     2008.16153        -4.98849         4.86530
     2008.16427        -1.06769         4.85416
     2008.16700        -4.96089         4.76069
     2008.16974       -12.52209         4.84816
     2008.17248        -6.91229         4.73411
     2008.17522        -4.44849         4.89789
     2008.17796        -5.93169         4.85416
     2008.18069        -6.78389         4.80700
     2008.18343        -1.66409         4.85930
     2008.18617        -3.21029         4.77013
     2008.18891        -4.78549         4.93905
     2008.19164        -1.54569         4.86702
     2008.19438        -6.72689         4.81300
     2008.19712        -2.77109         4.86102
     2008.19986         5.26071         4.80614
     2008.20260        -4.47349         4.79070
     2008.20533        -1.91169         4.78213
     2008.20807        -2.51089         5.02994
     2008.21081         2.13391         4.99564
     2008.21355        -0.34129         4.90818
     2008.21629         0.56451         4.88674
     2008.21902        -6.65670         4.89360
     2008.22176        -7.63390         4.91418
     2008.22450         1.47790         5.01022
     2008.22724        -4.30530         4.92619
     2008.22997        -4.57950         4.99907
     2008.23271         4.35630         4.99221
     2008.23545        -2.89890         5.02308
     2008.23819        -0.25110         4.93648
     2008.24093        -9.09530         4.87559
     2008.24366        -3.09650         4.84644
     2008.24640        -4.52170         4.84730
     2008.24914        -3.28890         4.85416
     2008.25188        -0.94510         4.91675
     2008.25462        -1.21830         4.82758
     2008.25735        -3.67050         4.88417
     2008.26009        -1.60170         4.83701
     2008.26283        -5.68890         4.84816
     2008.26557         1.99290         4.83186
     2008.26830         0.12470         4.80614
     2008.27104        -0.92650         4.85416
     2008.27378        -7.97270         4.84215
     2008.27652        -2.83290         4.86359
     2008.27926        -6.48910         4.86102
     2008.28199         0.56870         4.86102
     2008.28473        -0.44950         4.93905
     2008.28747         1.76930         4.92790
     2008.29021        -0.14490         4.91332
     2008.29295         1.19590         4.85244
     2008.29568         1.47170         4.84387
     2008.29842        -4.29850         4.88846
     2008.30116       -13.90870         4.92361
     2008.30390        -3.46990         4.85759
     2008.30663        -1.61110         4.94591
     2008.30937         2.45970         5.05309
     2008.31211        -2.42550         4.91418
     2008.31485        -1.35670         4.87559
     2008.31759        -8.83990         4.97077
     2008.32032        -3.86110         4.94676
     2008.32306        -3.91130         5.05824
     2008.32580        -1.94250         5.10454
     2008.32854        -6.23170         4.91332
     2008.33128        -8.06590         4.91847
     2008.33401        -2.71710         5.01193
     2008.33675        -0.67630         4.87131
     2008.33949        -3.17650         4.90561
     2008.34223        -3.37070         4.88846
     2008.34496        -3.28390         4.94762
     2008.34770         1.24890         4.91933
     2008.35044        -1.36130         4.85759
     2008.35318        -0.10450         4.84558
     2008.35592        -2.63170         4.91161
     2008.35865        -2.94790         4.85330
     2008.36139         0.28890         4.86788
     2008.36413         3.53770         4.84387
     2008.36687        -5.38450         4.87645
     2008.36961        -5.47370         4.86102
     2008.37234        -4.23891         4.84901
     2008.37508        -3.71711         4.92018
     2008.37782        -8.89931         4.88074
     2008.38056         2.96249         4.89274
     2008.38329         0.73029         5.00422
     2008.38603        -0.60491         4.80700
     2008.38877         2.85989         4.91933
     2008.39151         5.86669         4.97678
     2008.39425         0.25549         4.78556
     2008.39698         0.68529         4.75812
     2008.39972         3.23509         4.79671
     2008.40246         1.49889         4.78127
     2008.40520         2.21269         4.79756
     2008.40794         1.22749         4.81986
     2008.41067         2.90229         4.78470
     2008.41341        -2.52891         4.78813
     2008.41615         1.29389         4.80185
     2008.41889        -0.86131         4.82415
     2008.42162         0.71749         4.88931
     2008.42436         0.05829         4.80014
     2008.42710         1.96009         4.80785
     2008.42984        -1.38511         4.86016
     2008.43258         3.17769         4.96220
     2008.43531         0.72549         4.90904
     2008.43805        -1.92271         5.08482
     2008.44079        -3.64291         4.78299
     2008.44353        -4.41511         4.74097
     2008.44626        -3.93031         4.86102
     2008.44900        -6.18951         4.80957
     2008.45174        -2.74371         4.94934
     2008.45448         3.16409         4.93905
     2008.45722        -1.58111         4.72382
     2008.45995        -3.17031         4.75641
     2008.46269        -8.08751         4.78127
     2008.46543        -7.59171         4.83529
     2008.46817        -2.68091         4.92962
     2008.47091         4.83889         4.89103
     2008.47364        -2.82531         4.79842
     2008.47638        -0.61451         4.78470
     2008.47912        -2.28071         4.86445
     2008.48186        -1.47691         4.86873
     2008.48459         2.57589         4.88760
     2008.48733        -5.18131         4.75812
     2008.49007        -5.89751         4.75126
     2008.49281         4.76429         4.96477
     2008.49555        -3.81091         4.79842
     2008.49828         3.64189         4.77956
     2008.50102        -2.34331         4.84044
     2008.50376         2.48749         4.83358
     2008.50650         2.55629         4.93219
     2008.50924         5.35509         5.01279
     2008.51197        -0.40411         4.79671
     2008.51471        -0.13831         4.79499
     2008.51745        -0.05951         4.80185
     2008.52019         7.16429         4.86187
     2008.52292         2.91009         4.96048
     2008.52566         2.58588         4.95019
     2008.52840         7.98968         4.79499
     2008.53114        -2.13652         4.81214
     2008.53388         1.77728         4.81214
     2008.53661        -2.70792         4.83787
     2008.53935         0.62188         4.78299
     2008.54209         2.82168         4.75212
     2008.54483         7.21348         4.91247
     2008.54757         4.23028         4.87645
     2008.55030         4.84408         4.79413
     2008.55304         5.88088         4.83872
     2008.55578        10.53068         4.89274
     2008.55852         5.79948         4.80357
     2008.56125         2.18328         4.77613
     2008.56399         2.88608         4.76155
     2008.56673         6.54288         4.80185
     2008.56947        10.29968         4.80700
     2008.57221         3.98948         4.93305
     2008.57494         8.33728         5.11912
     2008.57768        11.48308         4.91675
     2008.58042         4.71788         4.86873
     2008.58316         1.35368         4.84558
     2008.58590        12.87048         4.93648
     2008.58863         3.14728         4.90046
     2008.59137        -0.46392         4.76155
     2008.59411         3.98588         4.85073
     2008.59685         7.01468         4.95620
     2008.59958         4.28948         5.17657
     2008.60232         7.22728         5.00593
     2008.60506         1.72708         5.01022
     2008.60780        -3.37812         4.90646
     2008.61054         4.44068         4.91675
     2008.61327         5.75648         4.95791
     2008.61601        10.48728         4.98964
     2008.61875         4.80308         4.98364
     2008.62149         4.98088         4.94076
     2008.62423         5.24968         4.92276
     2008.62696         6.98248         5.01879
     2008.62970        14.93528         5.08139
     2008.63244         7.26808         5.05481
     2008.63518        20.55788         5.00936
     2008.63791         6.78568         4.88846
     2008.64065         8.02548         4.95791
     2008.64339         4.81328         5.01794
     2008.64613         7.80508         5.11740
     2008.64887         6.22888         5.20829
     2008.65160         6.53768         4.89960
     2008.65434         4.66348         5.10111
     2008.65708         6.11928         5.12598
     2008.65982         1.62108         5.00765
     2008.66256        14.81188         5.16628
     2008.66529         3.70268         4.98364
     2008.66803         0.52648         4.97763
     2008.67077         0.48528         5.08396
     2008.67351         6.10208         4.96734
     2008.67624        -3.13712         5.34892
     2008.67898         0.13768         5.05909
     2008.68172        -2.68053         4.99221
     2008.68446         3.46127         4.97420
     2008.68720         5.96507         4.98792
     2008.68993         4.26187         5.00679
     2008.69267         2.17967         4.97420
     2008.69541         6.23247         4.99221
     2008.69815         7.68827         5.00850
     2008.70089        10.12807         4.93991
     2008.70362         9.34187         4.93648
     2008.70636         6.00667         4.85244
     2008.70910         5.20047         4.95277
     2008.71184         1.60827         5.14141
     2008.71457         5.03907         4.90904
     2008.71731         2.95687         4.94591
     2008.72005         4.92267         4.80357
     2008.72279         7.41247         4.87645
     2008.72553         4.25527         4.87731
     2008.72826         2.83607         4.91247
     2008.73100         9.79587         4.96306
     2008.73374        -2.38733         5.03680
     2008.73648         4.64047         4.87474
     2008.73921         3.17727         4.87216
     2008.74469        10.97687         4.86187
     2008.74743         4.89967         4.85759
     2008.75017         5.54347         4.83872
     2008.75290        18.48427         5.23316
     2008.75564         7.33907         5.05395
     2008.75838        11.61787         5.06595
     2008.76112         5.68467         4.81986
     2008.76386         1.58147         4.82672
     2008.76659        -4.01373         5.07453
     2008.76933        -2.57193         4.90904
     2008.77207         2.31787         4.74269
     2008.77481        -1.92833         4.79070
     2008.77754        -2.92653         4.73926
     2008.78028        -5.63473         4.80442
     2008.78302        -0.34893         4.81557
     2008.78576         3.23387         4.80614
     2008.78850         3.84867         4.87131
     2008.79123         2.92447         4.88417
     2008.79397        -3.24973         4.76241
     2008.79671         0.86507         4.85587
     2008.79945         3.16187         4.79756
     2008.80219        13.85467         4.98364
     2008.80492         5.84647         4.81986
     2008.80766         7.09127         4.84730
     2008.81040        -0.51993         4.86702
     2008.81314         3.33887         4.80614
     2008.81587         8.94567         4.83958
     2008.81861         0.60147         4.82500
     2008.82135        -3.21073         4.83872
     2008.82409        -2.68793         4.90561
     2008.82683         0.51887         4.90046
     2008.82956         7.83067         4.92361
     2008.83230         2.61747         4.92104
     2008.83504        13.54826         4.98021
     2008.83778        18.27806         5.01622
     2008.84052         1.38186         4.88588
     2008.84325         5.52066         4.80442
     2008.84599         2.36146         4.80871
     2008.84873         3.89926         4.88331
     2008.85147         2.49006         4.84816
     2008.85420        -1.67914         5.07024
     2008.85694         2.83166         4.85930
     2008.85968        -0.52754         4.83444
     2008.86242         2.31426         4.84987
     2008.86516        -8.76394         4.93991
     2008.86789        -3.17614         4.91847
     2008.87063        -0.19834         4.92704
     2008.87337        -1.83554         4.82758
     2008.87611         0.11626         4.84387
     2008.87885        -1.24594         4.87731
     2008.88158        -5.73714         4.83015
     2008.88432        -3.11134         4.87474
     2008.88706         0.22146         5.09511
     2008.88980        -0.89474         4.93047
     2008.89253         1.91406         4.99393
     2008.89527        -2.29614         4.96563
     2008.89801         2.09166         4.95105
     2008.90075        -5.09754         4.87045
     2008.90349        -2.75474         4.85073
     2008.90622        -0.32294         5.05566
     2008.90896         1.45686         4.88588
     2008.91170         5.11266         4.92276
     2008.91444         4.63446         4.86359
     2008.91718         9.70626         4.96477
     2008.91991         6.54506         4.90475
     2008.92265         1.31686         4.88245
     2008.92539        -2.09234         4.89103
     2008.92813         0.44446         4.86359
     2008.93086         1.12026         4.91418
     2008.93360        -5.66694         4.95791
     2008.93634        -4.34114         4.89446
     2008.93908        -5.92734         4.86959
     2008.94182       -10.65354         4.96048
     2008.94455        -7.87674         4.97077
     2008.94729         6.66806         5.08396
     2008.95003        -8.02314         4.81729
     2008.95277        -6.79134         4.79671
     2008.95551        -2.48654         4.78041
     2008.95824        -2.52774         4.81300
     2008.96098        -1.81494         4.87302
     2008.96372        -3.33814         4.78642
     2008.96646        -7.49234         4.95791
     2008.96919        -6.92554         4.79928
     2008.97193         1.56026         4.89189
     2008.97467        -0.26394         4.87731
     2008.97741         1.21186         4.80785
     2008.98015         3.39066         4.79242
     2008.98288        -0.21554         4.87559
     2008.98562        -8.30974         4.86016
     2008.98836         0.66505         4.84044
     2008.99110         2.86685         4.84130
     2008.99384        -4.82835         4.89103
     2008.99657        -9.62655         4.80099
     2008.99931        -5.49675         4.95534
     2009.00479        -5.84015         4.93390
     2009.00752        -1.93535         4.81043
     2009.01026        -3.50255         4.78642
     2009.01300         2.64125         4.83015
     2009.01574        -3.84395         4.83444
     2009.01848        -4.67315         4.84558
     2009.02121        -8.45835         5.01108
     2009.02395        -5.49755         4.90132
     2009.02669       -12.40075         4.80871
     2009.02943       -10.81595         4.81643
     2009.03216       -13.51815         4.78899
     2009.03490       -11.96535         4.80014
     2009.03764        -7.67155         4.79928
     2009.04038       -10.78875         4.80614
     2009.04312       -11.92695         4.82586
     2009.04585       -11.44715         4.80271
     2009.04859        -9.85535         4.84473
     2009.05133        -8.20655         4.85416
     2009.05407        -8.51175         4.80442
     2009.05681        -8.46895         4.81128
     2009.05954        -5.13715         4.81386
     2009.06228        -8.05835         4.81986
     2009.06502        -7.34155         4.87474
     2009.06776        -9.06175         4.88503
     2009.07049        -5.51095         4.83101
     2009.07323        -6.94315         4.88674
     2009.07597        -9.22435         4.78384
     2009.07871        -5.98955         4.78299
     2009.08145        -6.50975         4.82500
     2009.08418        -4.24095         4.87131
     2009.08692        -2.88615         4.80357
     2009.08966        -6.05135         4.79413
     2009.09240        -2.81955         4.81643
     2009.09514        -6.04475         4.82672
     2009.09787        -5.16095         4.84301
     2009.10061         1.81685         4.83701
     2009.10335        -4.61835         4.77270
     2009.10609        -3.18655         4.82758
     2009.10882        -3.61375         4.79070
     2009.11156        -2.93495         4.84044
     2009.11430        -6.43915         4.94505
     2009.11704        -1.67735         4.91761
     2009.11978        -0.04255         4.77784
     2009.12251        -1.51575         4.76755
     2009.12525         4.21305         4.78556
     2009.12799         0.76885         4.77013
     2009.13073         2.22565         4.87559
     2009.13347        -4.65555         4.77098
     2009.13620        -6.91575         4.79070
     2009.13894       -12.54195         4.81900
     2009.14168        -9.78215         4.83444
     2009.14442        -1.83436         4.88588
     2009.14715       -13.40456         5.16628
     2009.14989        -4.55376         4.91933
     2009.15263        -6.57396         4.80357
     2009.15537        -0.53116         4.90561
     2009.15811        -8.54736         4.92790
     2009.16084        -7.16156         4.88160
     2009.16358         6.82024         4.98106
     2009.16632        -5.93896         4.90646
     2009.16906        -7.29616         5.00507
     2009.17180        -4.90736         4.79671
     2009.17453        -8.34256         4.82072
     2009.17727        -4.22576         4.93905
     2009.18001        -7.59496         4.77870
     2009.18275        -8.42016         4.78470
     2009.18548       -11.06136         4.80957
     2009.18822       -12.51156         4.83272
     2009.19096        -7.79776         4.81814
     2009.19370        -6.47596         4.76498
     2009.19644        -5.65416         4.77956
     2009.19917        -5.60736         4.82843
     2009.20191        -6.46456         4.80357
     2009.20465        -4.57676         4.83958
     2009.20739        -1.82296         4.79928
     2009.21013        -8.81716         4.72296
     2009.21286        -3.97236         4.78127
     2009.21560        -4.64156         4.79070
     2009.21834        -8.01976         4.80700
     2009.22108        -4.18496         4.80014
     2009.22381        -7.47616         4.75212
     2009.22655        -6.54136         4.77956
     2009.22929       -10.99356         4.82843
     2009.23203        -6.38976         4.79499
     2009.23477        -3.73996         4.82329
     2009.23750        -3.25816         4.81729
     2009.24024        -2.07936         4.89360
     2009.24298        -4.27856         4.88846
     2009.24572        -5.79576         4.85845
     2009.24846        -8.89396         4.88674
     2009.25119        -2.80416         5.00250
     2009.25393        -5.38736         4.95534
     2009.25667        -6.55856         4.83787
     2009.25941        -8.42376         4.90303
     2009.26214        -4.89996         4.86187
     2009.26488        -4.17516         4.84215
     2009.26762        -1.19536         4.83186
     2009.27036        -7.25856         4.82672
     2009.27310       -10.43276         4.84816
     2009.27583        -1.69096         4.90218
     2009.27857        -9.75516         4.88074
     2009.28131        -8.89136         4.90475
     2009.28405       -19.07056         4.87817
     2009.28679        -2.52976         4.86959
     2009.28952        -5.89496         4.89703
     2009.29226        -7.71316         4.92962
     2009.29500        -7.89636         4.89446
     2009.29774        -6.43757         4.90389
     2009.30047        -7.11977         4.90646
     2009.30321        -7.11397         4.86102
     2009.30595        -3.14117         4.87902
     2009.30869        -1.56237         4.90732
     2009.31143        -5.78657         4.91590
     2009.31416        -6.72977         4.85244
     2009.31690        -8.04497         4.84558
     2009.31964        -2.18717         4.82329
     2009.32238        -6.33637         4.86873
     2009.32512        -2.58457         4.98106
     2009.32785        -4.92377         4.99307
     2009.33059        -1.71097         4.85587
     2009.33333        -6.89717         5.00936
     2009.33607        -1.44337         4.82843
     2009.33880        -5.96457         4.86616
     2009.34154         0.14923         4.93133
     2009.34428        -9.64197         5.05309
     2009.34702        -2.06217         4.84901
     2009.34976        -5.58437         4.86102
     2009.35249        -8.16357         4.83358
     2009.35523        -3.41777         4.89360
     2009.35797        -8.42697         4.84901
     2009.36071        -0.23717         4.96992
     2009.36344        -8.25737         4.86788
     2009.36618        -2.51357         4.89103
     2009.36892        -3.83677         4.85845
     2009.37166        -5.72897         4.87388
     2009.37440        -6.40817         4.83701
     2009.37713        -4.55737         4.87731
     2009.37987        -9.13957         5.06681
     2009.38261        -7.56377         4.83615
     2009.38535        -2.06897         4.85073
     2009.38809        -6.14417         4.83358
     2009.39082        -7.67637         4.83101
     2009.39356        -6.51957         4.85930
     2009.39630        -5.94377         4.85673
     2009.39904        -4.22797         4.86959
     2009.40177         2.02683         4.86273
     2009.40451        -0.47537         4.85587
     2009.40725         0.94343         4.86959
     2009.40999        -5.62177         4.87131
     2009.41273        -8.80197         4.93047
     2009.41546        -0.56317         4.89360
     2009.41820        -2.86137         4.89103
     2009.42094         1.42843         4.90646
     2009.42368        -7.58677         4.96820
     2009.42642         0.38403         4.93476
     2009.42915        -5.90517         4.99393
     2009.43189        -2.00337         4.87302
     2009.43463        -1.51957         4.82072
     2009.43737         2.81723         4.86702
     2009.44010        -4.48197         4.85244
     2009.44284        -3.92017         4.87817
     2009.44558        -4.06337         4.88588
     2009.44832        -5.53557         4.87645
     2009.45106        -5.17478         4.81043
     2009.45379        -4.53798         4.85845
     2009.45653        -5.69718         4.88931
     2009.45927        -4.71738         4.90046
     2009.46201        -4.09958         5.02994
     2009.46475        -1.91278         4.89789
     2009.46748        -6.58598         4.82329
     2009.47022        -1.94018         4.87216
     2009.47296        -1.33538         4.88846
     2009.47570        -3.06458         4.87731
     2009.47843         0.13522         4.95534
     2009.48117         0.36902         4.88331
     2009.48391        -0.66418         4.90561
     2009.48665        -6.51738         4.94848
     2009.48939        -3.16058         4.96477
     2009.49212         3.39922         4.97163
     2009.49486        -0.36298         4.97506
     2009.49760        -3.57918         4.91075
     2009.50034        -5.05738         4.85502
     2009.50308        -1.56458         4.89274
     2009.50581        -5.93078         4.91504
     2009.50855        -5.98698         4.93305
     2009.51129        -1.56918         4.89017
     2009.51403         1.02162         4.83101
     2009.51676         2.19542         4.84901
     2009.51950        -0.59078         4.88846
     2009.52224         0.00002         4.97849
     2009.52498         1.91482         4.89875
     2009.52772         0.43362         4.89532
     2009.53045         1.91742         4.82843
     2009.53319        -1.10078         4.86530
     2009.53593        -1.21098         4.90646
     2009.53867        -2.39518         4.88074
     2009.54141        -0.60638         4.87388
     2009.54414         4.25942         4.90303
     2009.54688         0.99122         4.83872
     2009.54962        -3.79598         4.87388
     2009.55236        -1.70618         4.86959
     2009.55509         5.63262         4.85930
     2009.55783         5.75642         4.88503
     2009.56057         1.42222         4.95705
     2009.56331         3.14102         5.00850
     2009.56605         0.88582         5.00164
     2009.56878         1.14462         4.92619
     2009.57152        -0.78358         4.96649
     2009.57426         2.02822         4.87388
     2009.57700         6.92402         5.07281
     2009.57974         3.99982         4.93562
     2009.58247         6.96862         4.87388
     2009.58521         8.85442         4.98021
     2009.58795         2.91222         4.92962
     2009.59069         4.84002         4.99307
     2009.59342         0.03482         4.99307
     2009.59616         3.61462         4.87731
     2009.59890         4.66742         4.87731
     2009.60164         2.67222         5.06938
     2009.60438        -6.32998         4.97849
     2009.60711        -0.31619         4.87216
     2009.60985        -1.24139         4.88931
     2009.61259        12.52441         4.97335
     2009.61533        -1.37979         5.01879
     2009.61807        -1.05699         4.90218
     2009.62080         4.89881         4.86959
     2009.62354        -2.74239         4.90561
     2009.62628         0.70941         4.89017
     2009.62902         7.67621         4.98021
     2009.63175        -1.36099         4.92533
     2009.63449         3.35281         4.92104
     2009.63723        -2.17939         4.99564
     2009.63997         0.44341         4.96649
     2009.64271        -2.75379         4.93476
     2009.64544         1.58301         4.96992
     2009.64818         5.06581         5.06938
     2009.65092         1.95861         5.00079
     2009.65366         7.64241         5.05395
     2009.65639        -0.76279         5.06510
     2009.65913        -5.64699         4.84558
     2009.66187         2.11781         4.83529
     2009.66461         1.85161         4.85159
     2009.66735         2.98241         4.87988
     2009.67008        -8.29379         5.01022
     2009.67282        -1.75899         4.89446
     2009.67556        -0.56319         4.98707
     2009.67830        10.94361         5.25974
     2009.68104         5.65341         5.05481
     2009.68377       -10.29379         4.89189
     2009.68651         6.16601         4.87902
     2009.68925         4.68381         4.95620
     2009.69199        -2.66139         4.94505
     2009.69472         4.19541         4.95791
     2009.69746         3.20021         4.89360
     2009.70020         1.83101         5.08310
     2009.70294         4.48781         5.38579
     2009.70568         2.05161         4.98106
     2009.70841        -3.54959         5.16971
     2009.71115         5.65521         4.90989
     2009.71389         1.87001         5.08053
     2009.71663        -0.21419         5.10625
     2009.71937         1.07561         4.91675
     2009.72210        -4.13459         4.91675
     2009.72484        -0.70079         4.95191
     2009.72758         0.27001         4.98449
     2009.73032         5.33681         4.91418
     2009.73305        -0.62539         4.95877
     2009.73579        -0.32959         4.90646
     2009.73853         4.00821         4.88074
     2009.74127         1.03601         5.01708
     2009.74401        -2.56819         5.15084
     2009.74674         1.02161         4.92018
     2009.74948        -3.33659         4.90132
     2009.75222        -4.72079         4.89189
     2009.75496         1.90901         4.86959
     2009.75770         1.59181         4.91247
     2009.76043         3.49060         4.93905
     2009.76317         0.58740         4.93991
     2009.76591        -0.37680         5.00507
     2009.76865         2.47200         5.01365
     2009.77138         1.89480         4.92962
     2009.77412        -1.51140         4.93476
     2009.77686         4.39440         4.96391
     2009.77960         4.81520         4.95877
     2009.78234         3.27400         5.17571
     2009.78507         7.82480         5.21515
     2009.78781         2.70160         5.30433
     2009.79055       -16.13960         5.22201
     2009.79329        18.20620         5.31977
     2009.79603        -0.31800         5.15170
     2009.79876        10.00480         5.10711
     2009.80150         1.55360         5.04880
     2009.80424        -2.60360         5.21001
     2009.80698         4.20520         5.02908
     2009.80971         4.43100         5.12512
     2009.81245         8.87880         5.05824
     2009.81519         5.50960         5.03508
     2009.81793         5.55940         5.17657
     2009.82067         8.32320         5.08310
     2009.82340         2.42800         5.03851
     2009.82614         6.65980         5.02737
     2009.82888         3.37160         4.99650
     2009.83162        10.22340         5.06510
     2009.83436        -2.10180         5.00250
     2009.83709         1.60800         5.10883
     2009.83983        -1.41820         5.15599
     2009.84257         5.76060         5.13284
     2009.84531         8.12440         5.29061
     2009.84804        11.88720         5.30605
     2009.85078         0.13100         5.22201
     2009.85352         6.14780         5.16028
     2009.85626         5.81060         5.29404
     2009.85900         4.79740         5.18514
     2009.86173        -3.23980         5.08396
     2009.86447        -1.64700         5.34378
     2009.86721         4.23380         5.18686
     2009.86995         2.33560         5.07281
     2009.87269         2.18040         5.12598
     2009.87542         5.89220         5.06595
     2009.87816        16.78000         5.34378
     2009.88090         4.66680         5.21515
     2009.88364         5.55460         5.07024
     2009.88637         8.09440         5.16542
     2009.88911         6.37420         5.03680
     2009.89185         1.83300         5.08482
     2009.89459         0.75880         5.00336
     2009.89733        -4.11840         4.99650
     2009.90006        -2.44560         4.99307
     2009.90280        -1.39780         5.16456
     2009.90554        -3.21400         5.09940
     2009.90828        -3.40820         4.87817
     2009.91102        -4.96440         4.86530
     2009.91375        -3.56361         4.90389
     2009.91649         4.25619         4.99307
     2009.91923        -3.01601         4.88331
     2009.92197        -4.84921         4.87131
     2009.92470        -4.21841         4.93648
     2009.92744        -1.40961         4.89274
     2009.93018        -5.47481         4.83615
     2009.93292        -0.56501         4.89532
     2009.93566        -1.91421         4.86959
     2009.93839         0.96959         4.98021
     2009.94113         1.98339         4.88674
     2009.94387        -4.36281         4.96477
     2009.94661        -1.27901         4.96391
     2009.94935         0.66379         4.88674
     2009.95208        -2.27141         4.90904
     2009.95482         0.22539         4.97763
     2009.95756         2.71219         4.96820
     2009.96030        -7.27601         4.87045
     2009.96303        -1.06021         5.09854
     2009.96577         4.89759         5.15084
     2009.96851         4.10839         5.16971
     2009.97125        -4.87581         5.01965
     2009.97399        -6.47101         4.93047
     2009.97672        -7.00221         4.80871
     2009.97946        -8.50141         4.80528
     2009.98220        -7.99061         4.81386
     2009.98494        -3.68281         4.79928
     2009.98767       -13.28301         4.89875
     2009.99041        -3.01421         4.89017
     2009.99315        -1.19041         4.90218
     2009.99589        -5.78661         4.94248
     2009.99863        -6.25881         4.96048
     2010.00410        -9.58021         4.87645
     2010.00684       -10.39541         4.90389
     2010.00958       -13.46161         4.90646
     2010.01232        -5.58381         5.00593
     2010.01505       -11.23601         4.97592
     2010.01779       -13.32621         5.29747
     2010.02053       -13.12841         5.03423
     2010.02327       -13.78361         4.96649
     2010.02600       -12.27581         5.06681
     2010.02874        -1.61101         4.97592
     2010.03148         1.25279         5.06681
     2010.03422        -3.66041         5.01965
     2010.03696        -1.95661         5.15856
     2010.03969        -6.08581         5.01451
     2010.04243        -5.23201         4.86616
     2010.04517         8.14079         4.92962
     2010.04791         4.66459         4.96992
     2010.05065        -5.36561         4.98621
     2010.05338        -0.56781         5.11740
     2010.05612        10.57199         4.98792
     2010.05886         1.30079         4.88503
     2010.06160        -1.71541         4.85244
     2010.06433        -3.88361         4.92276
     2010.06707        -1.06381         4.87216
     2010.06981        -1.85702         4.93562
     2010.07255        -4.54922         4.94076
     2010.07529        -6.89042         4.91504
     2010.07802        -7.23162         4.89960
     2010.08076        -1.01682         4.81128
     2010.08350        -0.27102         4.83615
     2010.08624         0.71278         4.83101
     2010.08898         2.42258         5.00507
     2010.09171         7.73538         4.88331
     2010.09445         2.44218         4.96477
     2010.09719         4.20898         4.99050
     2010.09993        -0.10122         4.85502
     2010.10266        -3.64442         4.81214
     2010.10540        -1.82562         4.89703
     2010.10814        -1.71682         4.89532
     2010.11088         5.32298         5.05223
     2010.11362         7.65178         4.89532
     2010.11635         0.54458         4.96306
     2010.11909        -0.74462         4.87902
     2010.12183        -2.82582         4.93648
     2010.12457         0.13598         4.80871
     2010.12731        -4.85222         5.01794
     2010.13004        -5.57442         4.92276
     2010.13278        -8.43062         4.91418
     2010.13552        -4.39982         4.88245
     2010.13826         0.18398         4.79242
     2010.14099        -3.36822         4.76841
     2010.14373        -2.90242         4.99821
     2010.14647        -4.64362         5.02394
     2010.14921        -8.94882         4.94076
     2010.15195        -3.69102         4.84816
     2010.15468         1.44878         4.89789
     2010.15742         4.14958         4.89103
     2010.16016        -0.49062         4.82243
     2010.16290        -5.89882         4.84130
     2010.16564         0.51898         4.83358
     2010.16837         0.69678         4.88074
     2010.17111        -2.32342         4.79070
     2010.17385        -3.60462         4.76584
     2010.17659        -1.20982         4.79242
     2010.17932         2.57998         4.78813
     2010.18206         2.06978         4.79671
     2010.18480        -0.19142         4.78470
     2010.18754        -0.63962         4.83272
     2010.19028         7.36318         4.87216
     2010.19301         2.75498         4.84387
     2010.19575        -5.00122         4.86445
     2010.19849        -3.28342         4.79842
     2010.20123       -10.37062         4.81643
     2010.20397         1.75418         4.87388
     2010.20670        -4.32902         4.78556
     2010.20944        -4.96822         4.81128
     2010.21218        -7.94942         4.81386
     2010.21492        -6.25462         4.81214
     2010.21765        -5.77282         4.92447
     2010.22039         0.12598         4.78384
     2010.22313        -8.00523         4.79928
     2010.22587        -1.56743         4.93733
     2010.22861        -1.89863         4.92361
     2010.23134       -11.47383         4.97163
     2010.23408        -8.46903         4.90475
     2010.23956        -3.46743         5.07710
     2010.24230        -4.05463         5.30262
     2010.24503        -2.46883         4.97678
     2010.24777        -4.92303         4.97592
     2010.25051        -4.05023         5.22030
     2010.25325        -1.16043         4.99478
     2010.25598         1.03937         5.06424
     2010.25872         6.18417         5.00936
     2010.26146        -1.92803         5.04795
     2010.26420        -3.75523         5.09082
     2010.26694         2.00857         4.97935
     2010.26967        -0.46363         4.96820
     2010.27241        -3.12083         5.04366
     2010.27515         0.38197         4.94248
     2010.27789        -1.48923         5.05395
     2010.28062         0.81657         4.93305
     2010.28336        -5.93563         4.98192
     2010.28610        -0.66183         5.00079
     2010.28884         2.41497         4.84044
     2010.29158        -4.90023         4.81814
     2010.29431        -2.16443         4.84558
     2010.29705        -4.89463         5.06938
     2010.29979         1.41217         4.92876
     2010.30253        -1.04203         4.94848
     2010.30527         5.59177         4.94848
     2010.30800         5.57157         4.90732
     2010.31074         0.58237         4.81986
     2010.31348        -1.64883         4.81471
     2010.31622         9.44397         4.83872
     2010.31895         3.34277         4.98106
     2010.32169         4.25957         4.90475
     2010.32443         0.40337         4.85673
     2010.32717         4.33817         4.78985
     2010.32991        -4.14203         4.81043
     2010.33264         1.85677         4.86873
     2010.33538        10.74557         5.10368
     2010.33812        -1.59563         4.81300
     2010.34086        -1.53283         4.78470
     2010.34360         0.08997         4.77441
     2010.34633        -1.69223         4.96563
     2010.34907        -3.80443         4.81214
     2010.35181        -3.34563         4.75555
     2010.35455        -3.62383         4.77956
     2010.35728        -3.80303         4.81128
     2010.36002         2.01277         4.88417
     2010.36276         1.33757         4.83186
     2010.36550        -6.14463         4.99307
     2010.36824        -4.26783         4.93991
     2010.37097         0.89097         4.83529
     2010.37371         3.71177         4.82329
     2010.37645        -2.47344         4.88160
     2010.37919       -13.95964         5.16885
     2010.38193        -2.54684         5.07796
     2010.38466        -2.69504         4.79585
     2010.38740         4.56376         4.80957
     2010.39014         0.49456         4.74011
     2010.39288        -3.31164         4.78127
     2010.39561        -6.62284         4.79070
     2010.39835        -0.94104         4.75383
     2010.40109        -0.95024         4.74955
     2010.40383        -1.04244         4.74354
     2010.40657         1.34236         4.75641
     2010.40930        -3.45784         4.79756
     2010.41204        -9.38404         4.81557
     2010.41478         1.35576         4.84730
     2010.41752        12.27556         4.78213
     2010.42026         2.23536         4.75984
     2010.42299         4.62316         4.88674
     2010.42573        -4.10504         4.80185
     2010.42847        -2.77124         4.97506
     2010.43121        -0.62444         4.79242
     2010.43394         6.85536         4.77784
     2010.43668         8.63216         4.92104
     2010.43942         2.17796         4.74354
     2010.44216        -4.25924         4.77098
     2010.44490        -5.59244         4.81643
     2010.44763        -3.67664         4.79756
     2010.45037         2.84416         4.76498
     2010.45311        -2.27604         4.73840
     2010.45585        -4.18224         4.78813
     2010.45859         1.81756         4.83615
     2010.46132        -0.03264         4.85416
     2010.46406         1.14416         4.78299
     2010.46680         0.18996         4.75641
     2010.46954        -1.34824         4.75383
     2010.47227        -3.84044         4.79842
     2010.47501        -0.05864         4.80957
     2010.47775        -3.61084         4.93219
     2010.48049        -2.62104         4.93476
     2010.48323         2.88476         4.74955
     2010.48596         2.76956         4.77870
     2010.48870         2.63736         4.79842
     2010.49144         2.20216         4.80271
     2010.49418         2.32296         4.80357
     2010.49692        -3.89624         4.74354
     2010.49965        -6.11144         4.75469
     2010.50239         5.20536         4.75812
     2010.50513        -2.26484         4.75641
     2010.50787         0.61896         4.77270
     2010.51060        -4.41024         4.74783
     2010.51334         3.89856         4.78813
     2010.51608        -0.78964         4.78985
     2010.51882        -1.50384         4.76412
     2010.52156        -0.70804         4.84387
     2010.52429         5.86276         4.77441
     2010.52703         2.67456         4.74097
     2010.52977        -1.18764         4.73754
     2010.53251        -3.12785         4.69895
     2010.53525         4.90795         4.72468
     2010.53798        -4.84625         4.72554
     2010.54072        -4.18545         4.68524
     2010.54346        -2.81365         4.71525
     2010.54620        -1.76585         4.69381
     2010.54893        -0.19105         4.72039
     2010.55167         2.47575         4.69210
     2010.55441         1.82155         4.67838
     2010.55715        -0.60565         4.70238
     2010.55989         2.00415         4.73240
     2010.56262        -1.20705         4.67838
     2010.56536         2.60075         4.69467
     2010.56810        -0.55245         4.71868
     2010.57084         1.84035         4.78470
     2010.57357         2.54915         4.82843
     2010.57631         0.56495         4.76670
     2010.57905        -6.63725         4.65522
     2010.58179         2.76755         4.67409
     2010.58453        -2.19765         4.69981
     2010.58726        -4.90385         4.77270
     2010.59000        -2.58005         4.74697
     2010.59274         4.71775         4.64751
     2010.59548         1.04255         4.66294
     2010.59822         4.95835         4.69210
     2010.60095        -1.78585         4.72639
     2010.60369         1.22595         4.69467
     2010.60643         2.98975         4.75383
     2010.60917        -0.95145         4.65780
     2010.61190        -2.95065         4.66294
     2010.61464         1.69715         4.69038
     2010.61738        -0.75805         4.68781
     2010.62012        -2.35925         4.68352
     2010.62286        -0.84945         4.65437
     2010.62559         3.47035         4.75726
     2010.62833         1.28015         4.81471
     2010.63107        -1.99105         4.85587
     2010.63381         3.15475         4.75040
     2010.63655         0.55455         4.70753
     2010.63928       -13.02565         4.69553
     2010.64202        -4.15885         4.68867
     2010.64476        -4.95005         4.74783
     2010.64750        -0.67925         4.71096
     2010.65023        -2.81945         4.77699
     2010.65297         0.01135         4.83958
     2010.65571        -1.70385         4.66294
     2010.65845        -4.89205         4.61749
     2010.66119        -1.31725         4.73668
     2010.66392        -2.01345         4.71953
     2010.66666        -5.82665         4.63121
     2010.66940         0.13715         4.72296
     2010.67214         1.15395         4.66037
     2010.67488         3.15275         4.66551
     2010.67761        -1.92345         4.69381
     2010.68035        -0.85465         4.68952
     2010.68309         1.94915         4.71353
     2010.68583        -1.53106         4.62950
     2010.68856        -4.72626         4.62950
     2010.69130         1.55854         4.62007
     2010.69404        -2.37166         4.73926
     2010.69678        -1.92886         4.65608
     2010.69952         0.69594         4.61235
     2010.70225        -0.65826         4.61321
     2010.70499         9.54354         4.66809
     2010.70773        -6.15966         4.80271
     2010.71047        -0.86086         4.75383
     2010.71321        -3.01406         4.75984
     2010.71594         6.16474         4.94676
     2010.71868         6.12254         4.61321
     2010.72142         6.73134         4.76498
     2010.72416         8.20614         4.77613
     2010.72689        -1.89206         4.81471
     2010.72963         3.21074         4.73240
     2010.73237         4.69854         4.69381
     2010.73511        -0.01666         4.69038
     2010.73785         4.30914         4.80271
     2010.74058         5.73294         4.79842
     2010.74332         2.44674         4.68181
     2010.74606        10.27454         4.73583
     2010.74880         5.56634         4.80357
     2010.75154         9.94514         4.66723
     2010.75427         7.13794         4.77356
     2010.75701         3.55374         4.83701
     2010.75975         1.73354         4.69981
     2010.76249         4.47034         4.66723
     2010.76522         4.24314         4.63464
     2010.76796         9.26394         4.75641
     2010.77070        -4.56026         4.71267
     2010.77618        -3.13466         4.64751
     2010.77891        -2.91586         4.62778
     2010.78165         1.51994         4.66294
     2010.78439         3.94474         4.73411
     2010.78713        11.99054         4.90475
     2010.78987         4.74134         4.61407
     2010.79260         2.01114         4.62178
     2010.79534        -1.92606         4.66466
     2010.79808         3.31474         4.69124
     2010.80082        -1.28446         4.62950
     2010.80355         5.44934         4.67495
     2010.80629         0.88214         4.69553
     2010.80903        -3.04906         4.78813
     2010.81177         7.73574         4.79499
     2010.81451         4.15254         4.77527
     2010.81724        11.68734         4.77784
     2010.81998         5.55814         4.71353
     2010.82272         1.03494         4.75555
     2010.82546        10.77474         4.72639
     2010.82820         5.19754         4.68352
     2010.82968        22.35489        18.22560
     2010.83749        -4.39054         9.97499
     2010.83915         1.34673         4.68352
     2010.84188        -2.41947         4.66637
     2010.84462         4.73133         4.64922
     2010.84736         7.09913         4.79156
     2010.85010        10.52193         4.71353
     2010.85284         6.11873         4.73068
     2010.85557        -0.69647         4.77956
     2010.85831        -2.57867         4.69124
     2010.86105        -3.53187         4.63893
     2010.86379        -6.04507         4.63207
     2010.86653        -8.00827         4.63722
     2010.86926        -7.63347         4.69210
     2010.87200        -2.66967         4.60549
     2010.87474        -3.38287         4.68095
     2010.87748        -1.31607         4.72211
     2010.88021         3.00773         4.67237
     2010.88295        -5.33647         4.80614
     2010.88569        -3.79067         4.65437
     2010.88843        -1.10287         4.81814
     2010.89117         2.43693         4.82072
     2010.89390        -1.74727         4.66380
     2010.89664        -0.53447         4.62521
     2010.89938         0.36433         4.62607
     2010.90212         0.78613         4.78556
     2010.90485        -0.20807         4.70667
     2010.90759        -0.00627         4.63207
     2010.91033         2.19953         4.61921
     2010.91307         6.61233         4.67838
     2010.91581        -3.18487         4.65179
     2010.91854         0.57093         4.59949
     2010.92128        -6.91627         4.60978
     2010.92402        -0.77847         4.72982
     2010.92676         0.00633         4.66294
     2010.92950        -1.31787         4.73068
     2010.93223        -0.46007         4.78384
     2010.93497         4.99373         4.80785
     2010.93771         1.98653         4.68181
     2010.94045        -1.33067         4.77270
     2010.94318        17.56213         4.72125
     2010.94592         6.67793         4.82586
     2010.94866        12.38473         4.74011
     2010.95140        -5.72847         4.88846
     2010.95414         1.70333         4.69295
     2010.95687        -2.16087         4.63979
     2010.95961         0.59793         4.81386
     2010.96235        -2.66827         4.73068
     2010.96509        -2.88247         4.62778
     2010.96783        -1.68667         4.66123
     2010.97056        -0.16887         4.64579
     2010.97330        -6.94807         4.63379
     2010.97604        -7.12127         4.69895
     2010.97878         1.49253         4.66380
     2010.98151         0.46933         4.69038
     2010.98425        -5.84387         4.73154
     2010.98699        -2.39907         4.66466
     2010.98973         0.92073         4.72982
     2010.99247        -0.03247         4.83872
     2010.99520        -2.94768         4.68095
     2010.99794        -4.67788         4.61235
     2011.00342        -0.10528         4.65008
     2011.00616         0.03752         4.61235
     2011.00889        -0.36268         4.72382
     2011.01163        -0.02888         4.62693
     2011.01437        -6.07308         4.61835
     2011.01711        -2.34928         4.70238
     2011.01984        -3.14848         4.68181
     2011.02258        -3.88868         4.62092
     2011.02532        -1.25888         4.71439
     2011.02806        -2.34008         4.81986
     2011.03080        -8.66028         4.61492
     2011.03353        -0.08748         4.74526
     2011.03627        -6.98868         4.69553
     2011.03901        -5.16688         4.67066
     2011.04175        -2.03808         4.65608
     2011.04449        -9.44928         4.70410
     2011.04722        -3.60748         4.72296
     2011.04996        -7.78168         4.71267
     2011.05270        -6.11288         4.61235
     2011.05544        -5.51708         4.65608
     2011.05817        -3.79128         4.66294
     2011.06091         4.56952         4.62435
     2011.06365        -0.03768         4.68352
     2011.06639        -2.56288         4.61235
     2011.06913        -3.01108         4.88160
     2011.07186        -8.93228         4.62864
     2011.07460        -1.62348         4.75726
     2011.07734         1.04132         4.63379
     2011.08008         0.78112         4.62778
     2011.08282        -8.37708         4.61921
     2011.08555        -9.56828         4.62007
     2011.08829        -3.42048         4.64751
     2011.09103        -7.93868         4.64922
     2011.09377        -1.12988         4.68867
     2011.09650        -4.27108         4.62950
     2011.09924         0.17872         4.63379
     2011.10198         1.88252         4.74097
     2011.10472         0.51632         4.60378
     2011.10746        -3.95688         4.65608
     2011.11019        -0.92508         4.63293
     2011.11293        -1.32328         4.68609
     2011.11567        -3.53648         4.69295
     2011.11841         8.23832         4.88503
     2011.12115         5.81512         4.72125
     2011.12388        -5.54008         4.74869
     2011.12662         1.17972         4.80871
     2011.12936        -7.33548         4.64065
     2011.13210        -2.06668         4.63636
     2011.13483        -6.23588         4.58491
     2011.13757        -5.23308         4.61407
     2011.14031        -5.34028         4.60978
     2011.14305        -2.09648         4.66637
     2011.14579        -3.67168         4.68352
     2011.14852       -11.53689         4.64493
     2011.15126         4.44891         4.58320
     2011.15400        -0.87229         4.62092
     2011.15674         3.57751         4.60463
     2011.15948         4.71031         4.66723
     2011.16221         3.41211         4.65265
     2011.16495         0.35591         4.69895
     2011.16769        -1.92129         4.66980
     2011.17043        -2.96349         4.71096
     2011.17316        -8.45469         4.62693
     2011.17590        -5.72289         4.63464
     2011.17864         1.59791         4.62693
     2011.18138        -4.23229         4.65522
     2011.18412         2.32351         4.71782
     2011.18685        -2.39769         4.76841
     2011.18959         6.30811         4.69038
     2011.19233        -5.15509         4.70496
     2011.19507         6.99371         4.71182
     2011.19780         1.57951         4.72725
     2011.20054        -8.33769         4.80185
     2011.20328        -0.83389         4.79499
     2011.20602         0.08991         4.78985
     2011.20876        -2.48729         4.71010
     2011.21149       -10.67449         4.71525
     2011.21423        -1.85769         4.64150
     2011.21697        -3.39889         4.80271
     2011.21971        -1.46209         4.74783
     2011.22245        -5.55429         4.70924
     2011.22518         3.84951         4.74955
     2011.22792        -3.12869         4.74269
     2011.23066        -3.26289         4.66637
     2011.23340         2.83591         4.71953
     2011.23613        -0.91029         4.65008
     2011.23887        -6.56349         4.66466
     2011.24161        -7.10469         4.73154
     2011.24435        -7.40189         4.65951
     2011.24709        -3.15109         4.62950
     2011.24982        -4.38129         4.67752
     2011.25256         0.06351         4.62607
     2011.25530        -0.86069         4.71010
     2011.25804         0.44011         4.80185
     2011.26078        -0.74409         4.75126
     2011.26351         0.84571         4.61492
     2011.26625        -2.52749         4.64322
     2011.26899         1.81831         4.71868
     2011.27173         0.22511         4.84473
     2011.27446         2.52891         4.86273
     2011.27720        -3.75529         4.79928
     2011.27994        -4.33149         4.70153
     2011.28268        -1.81669         4.66037
     2011.28542        -2.02189         4.65951
     2011.28815        -7.98809         4.69553
     2011.29089         1.62571         4.62007
     2011.29363        -7.03149         4.66466
     2011.29637        -1.30669         4.62092
     2011.29911        -3.19989         4.63207
     2011.30184         2.81190         4.78727
     2011.30458         0.51470         4.63379
     2011.30732         7.27650         4.67066
     2011.31006         6.27030         4.62950
     2011.31279        -1.78890         4.72554
     2011.31553         1.84190         4.62350
     2011.31827         2.20270         4.69895
     2011.32101        -1.97050         4.66037
     2011.32375        -2.33670         4.65522
     2011.32648       -10.23290         4.62178
     2011.32922        -7.00010         4.60120
     2011.33196        -8.76330         4.71953
     2011.33470        -7.98050         4.68609
     2011.33744        -3.52270         4.70238
     2011.34017         0.03510         4.82672
     2011.34291        -0.96310         4.69981
     2011.34565         1.82670         4.68009
     2011.34839        -2.05850         4.69210
     2011.35112        -3.01970         4.69724
     2011.35386        -5.43390         4.71868
     2011.35660        -7.14610         4.63464
     2011.35934       -10.44930         4.59263
     2011.36208       -15.63350         4.64493
     2011.36481        -2.32670         4.76069
     2011.36755        -3.73990         4.73411
     2011.37029        -4.06010         4.78642
     2011.37303        -2.90730         4.68352
     2011.37577         1.17650         4.69553
     2011.37850        -6.57570         4.76498
     2011.38124        -6.67190         4.75555
     2011.38398        -7.21610         4.74354
     2011.38672        -4.08330         4.72039
     2011.38945        -6.41550         4.67752
     2011.39219        -3.92270         4.75726
     2011.39493        -4.71290         4.76327
     2011.39767        -1.69310         4.74955
     2011.40041        -4.95030         4.80957
     2011.40314        -4.12050         4.76841
     2011.40588        -4.42570         4.68867
     2011.40862        -5.48990         4.71953
     2011.41136        -7.55610         4.73754
     2011.41410        -5.88030         4.74183
     2011.41683        -7.77250         4.72811
     2011.41957        -4.31570         4.69895
     2011.42231        -8.99190         4.73240
     2011.42505        -5.55710         4.76327
     2011.42778        -8.95530         4.81386
     2011.43052       -10.70250         4.72125
     2011.43326       -10.16270         4.74011
     2011.43600        -8.05090         4.70581
     2011.43874       -10.91510         4.73068
     2011.44147        -8.43230         4.75984
     2011.44421        -7.07550         4.77270
     2011.44695        -6.93870         4.75383
     2011.44969        -3.85090         4.69038
     2011.45243        -7.88210         4.72296
     2011.45516        -9.29030         4.73840
     2011.45790        -5.89751         4.75212
     2011.46064        -7.10771         4.77527
     2011.46338        -9.35191         4.72382
     2011.46611        -7.88911         4.69038
     2011.46885        -2.46231         4.77784
     2011.47159        -4.78051         4.81214
     2011.47433        -4.84171         4.82500
     2011.47707        -1.04091         4.77870
     2011.47980        -3.46011         4.76327
     2011.48254        -0.39531         4.76155
     2011.48528        -8.60851         4.77699
     2011.48802        -2.44671         4.79756
     2011.49076        -2.21191         4.78299
     2011.49349        -7.73711         4.77699
     2011.49623         3.57969         4.75469
     2011.49897        -1.39351         4.74697
     2011.50171         1.99429         4.84301
     2011.50444        -4.41391         4.78813
     2011.50718        -6.43711         4.75641
     2011.50992        -5.55431         4.72639
     2011.51266         3.00049         4.83272
     2011.51540        -3.87271         4.79842
     2011.51813         1.78909         4.75898
     2011.52087        -2.02911         4.81300
     2011.52361         1.63569         4.73583
     2011.52635        -0.43151         4.77613
     2011.52908         3.60529         4.73583
     2011.53182        -3.92191         4.71267
     2011.53456         0.27989         4.72811
     2011.53730        -1.79931         4.76755
     2011.54004         0.83949         4.77784
     2011.54277        -9.94971         4.81128
     2011.54551        -2.59891         4.79328
     2011.54825        -3.00111         4.73926
     2011.55099        -0.54731         4.75040
     2011.55373        -0.18451         4.80871
     2011.55646        -3.13471         4.77613
     2011.55920         4.90209         4.76241
     2011.56194         2.14289         4.80871
     2011.56468         0.27669         4.70410
     2011.56741         1.98549         4.71782
     2011.57015        -3.58771         4.78041
     2011.57289         1.92709         4.76755
     2011.57563        -0.97911         4.71010
     2011.57837         1.18269         4.70839
     2011.58110        -5.49151         4.78299
     2011.58384        -1.05871         4.77784
     2011.58658        -0.56191         4.90132
     2011.58932        -0.63911         4.73668
     2011.59206         0.27269         4.73154
     2011.59479         3.69449         4.72639
     2011.59753         4.41929         4.70238
     2011.60027        -0.01491         4.70067
     2011.60301        -4.63811         4.74269
     2011.60574        -0.66331         4.78556
     2011.60848        -0.32451         4.95362
     2011.61122         2.60528         4.92104
     2011.61396         3.02408         4.76670
     2011.61670        -2.29912         4.83358
     2011.61943        -2.29932         4.82072
     2011.62217        -0.72452         4.79156
     2011.62491        -4.33572         4.78813
     2011.62765         3.65208         4.73240
     2011.63039         8.86688         4.75126
     2011.63312         3.70468         4.76927
     2011.63586         3.32648         4.81814
     2011.63860         5.96728         4.78041
     2011.64134         0.44808         5.04366
     2011.64407        11.06788         4.87216
     2011.64681         6.02268         4.89103
     2011.64955         3.48048         4.88674
     2011.65229         1.55228         4.80014
     2011.65503        -2.03592         4.87216
     2011.65776         4.18488         4.80014
     2011.66050         3.65668         5.02651
     2011.66324         2.93148         4.83444
     2011.66598        -1.78672         4.88503
     2011.66872        -4.80592         4.92361
     2011.67145         4.24388         4.81986
     2011.67419         6.95468         4.70924
     2011.67693         6.29748         4.74526
     2011.67967         5.64428         4.75212
     2011.68240        -1.45092         4.80099
     2011.68514         2.94088         4.79499
     2011.68788         9.55768         4.81643
     2011.69062         5.83248         4.85759
     2011.69336         5.53728         4.82758
     2011.69609         1.76808         4.81386
     2011.69883         3.83688         4.83872
     2011.70157         2.33068         4.77956
     2011.70431         8.57148         4.81471
     2011.70705         2.31928         4.88160
     2011.70978         1.93208         4.79671
     2011.71252         7.68688         4.90218
     2011.71526        -5.99532         5.01536
     2011.71800         2.17148         4.92962
     2011.72073         2.66728         4.73668
     2011.72347         0.89808         4.76241
     2011.72621        -1.90712         4.82157
     2011.72895         8.50668         4.78384
     2011.73169         5.33648         5.26232
     2011.73442        -7.18672         4.82929
     2011.73716        -0.04192         4.80785
     2011.73990         5.38888         4.71953
     2011.74264         4.03668         4.77870
     2011.74538         4.47048         5.00850
     2011.74811        11.12028         5.03680
     2011.75085         5.33308         5.04194
     2011.75359        -1.89512         4.85845
     2011.75633         0.08668         4.82157
     2011.75906         6.31448         4.88074
     2011.76180         3.32128         4.82243
     2011.76454         5.30207         4.82415
     2011.76728         3.80787         4.77613
     2011.77002         2.63067         4.86273
     2011.77275        13.59447         5.02994
     2011.77549        11.55527         5.00936
     2011.77823        -0.80193         4.81300
     2011.78097         3.41387         4.82500
     2011.78371         5.88567         4.86102
     2011.78644        10.55147         4.74955
     2011.78918         7.20827         4.76670
     2011.79192         1.34407         4.75212
     2011.79466         2.56987         4.75469
     2011.79739        11.38367         4.80528
     2011.80013         7.53547         4.76755
     2011.80287         4.32127         4.77270
     2011.80561         1.31807         4.72982
     2011.80835         3.07487         4.71267
     2011.81108         0.69567         4.74955
     2011.81382        -4.20053         4.74697
     2011.81656        -0.01173         4.72125
     2011.81930        -0.02893         4.73240
     2011.82203         2.72987         4.82586
     2011.82477         6.00867         4.78127
     2011.82751         4.84347         4.75383
     2011.83025         1.62827         4.76755
     2011.83299        -7.36993         4.71096
     2011.83572        -4.04013         4.72982
     2011.83846        -9.05933         4.94762
     2011.84120         5.29647         4.72811
     2011.84394         3.63927         4.77441
     2011.84668        -0.78993         4.78470
     2011.84941        -3.19513         4.70496
     2011.85215        -3.54733         4.71267
     2011.85489        -0.08353         4.76584
     2011.85763        -2.17273         4.86445
     2011.86036         2.88507         4.71267
     2011.86310         7.68087         4.73411
     2011.86584         3.30967         4.75298
     2011.86858         6.05747         4.70667
     2011.87132         4.29427         4.68952
     2011.87405         1.54207         4.69467
     2011.87679         6.99787         4.77356
     2011.87953         3.28367         4.79242
     2011.88227         5.27847         4.76670
     2011.88501         2.06927         4.70581
     2011.88774         5.99007         4.77098
     2011.89048        -6.49913         4.80185
     2011.89322        -2.96533         4.93133
     2011.89596        -2.40153         4.77184
     2011.89869         3.81927         4.75641
     2011.90143        -3.72093         4.73497
     2011.90417        -0.33713         4.76755
     2011.90691         3.03667         4.70496
     2011.90965         5.54447         4.75040
     2011.91238        -0.96573         4.79585
     2011.91512        -0.76393         4.70839
     2011.91786         1.35287         4.81900
     2011.92060        -5.80634         4.74697
     2011.92334        -3.84954         4.82329
     2011.92607        -0.26774         4.80185
     2011.92881        -0.23294         4.80785
     2011.93155         1.10686         4.78642
     2011.93429         1.82266         4.78213
     2011.93702         1.52846         4.79585
     2011.93976         0.56126         4.77784
     2011.94250         5.12406         4.81386
     2011.94524         0.67586         4.79928
     2011.94798         7.91866         4.76498
     2011.95071         3.78446         4.74783
     2011.95345         1.67726         4.96477
     2011.95619         1.70606         4.91847
     2011.95893         0.56686         4.65865
     2011.96167         7.28866         4.70410
     2011.96440         3.10446         4.76498
     2011.96714         7.40526         4.71267
     2011.96988         2.17406         4.62864
     2011.97262         1.41986         4.63893
     2011.97535        -2.52734         4.67237
     2011.97809        -1.80854         4.67838
     2011.98083         3.69626         4.73240
     2011.98357         2.14706         4.64236
     2011.98631         6.31886         4.72725
     2011.98904         6.47166         4.75726
     2011.99178         9.05546         4.67152
     2011.99452         4.38826         4.73840
     2011.99726         3.96906         4.65437
     2012.00273         6.94566         4.83015
     2012.00547         1.65246         4.64150
     2012.00821         1.47826         4.77956
     2012.01095         4.06106         4.70153
     2012.01368         3.66286         4.62007
     2012.01642         5.49666         4.62521
     2012.01916         4.11746         4.60035
     2012.02190         0.51826         4.64922
     2012.02464         5.37406         4.68352
     2012.02737         1.78686         4.62264
     2012.03011         4.77766         4.60120
     2012.03285        -0.24454         4.62092
     2012.03559        -2.98774         4.65094
     2012.03833         0.82606         4.64922
     2012.04106        -4.72714         4.62092
     2012.04380         3.48166         4.64150
     2012.04654         5.40146         4.63893
     2012.04928        10.81426         4.62350
     2012.05201        12.61606         4.71782
     2012.05475         2.75686         4.79499
     2012.05749         7.17566         4.75984
     2012.06023         4.48446         4.70581
     2012.06297         1.24026         4.72811
     2012.06570         1.76406         4.77527
     2012.06844         0.85986         4.66551
     2012.07118        -4.02434         4.62864
     2012.07392        -1.61955         4.65865
     2012.07666        -2.79775         4.69981
     2012.07939         8.25905         4.68609
     2012.08213         4.02685         4.66380
     2012.08487         2.74365         4.66980
     2012.08761         0.82845         4.64836
     2012.09034        -4.25775         4.67409
     2012.09308        -2.13695         4.67152
     2012.09582         0.87885         4.66123
     2012.09856         2.53965         4.64236
     2012.10130        -1.04955         4.73411
     2012.10403        -2.06875         4.66208
     2012.10677        -2.38095         4.85159
     2012.10951         2.46385         4.82586
     2012.11225        -2.79735         4.69724
     2012.11498        -2.85555         4.68438
     2012.11772        -3.09575         4.68009
     2012.12046         3.30205         4.71182
     2012.12320        -1.12415         4.68181
     2012.12594        -2.35635         4.78556
     2012.12867        -4.90655         4.74526
     2012.13141        -5.65275         4.84816
     2012.13415        -0.67795         4.72725
     2012.13689         0.58485         4.77784
     2012.13963         4.18265         4.81814
     2012.14236        -1.10555         4.80185
     2012.14510         0.34025         4.78556
     2012.14784        -4.14095         4.64922
     2012.15058        -4.68315         4.68609
     2012.15331        -4.38735         4.62092
     2012.15605        -1.99955         4.72125
     2012.15879        -0.78375         4.75898
     2012.16153        -7.79595         4.69295
     2012.16427        -6.63215         4.77699
     2012.16700        -3.28335         4.76327
     2012.16974        -7.14055         4.71267
     2012.17248        -8.26875         4.65608
     2012.17522        -5.37295         4.70496
     2012.17796        -4.23515         4.75641
     2012.18069        -4.80135         4.66466
     2012.18343        -7.34755         4.73411
     2012.18617        -9.85275         4.72639
     2012.18891        -8.00895         4.81986
     2012.19164         3.82285         4.75040
     2012.19438         0.39865         4.71182
     2012.19712        -1.68455         4.74783
     2012.19986         1.54125         4.71782
     2012.20260        -1.83095         4.72639
     2012.20533         0.57685         4.68095
     2012.20807         4.17165         4.74097
     2012.21081        -3.22755         4.67580
     2012.21355         1.21825         4.65780
     2012.21629         0.45805         4.64751
     2012.21902        -2.92615         4.66208
     2012.22176        -5.37235         4.67323
     2012.22450       -12.96455         4.65780
     2012.22724        -4.60276         4.62092
     2012.22997        -1.91296         4.62435
     2012.23271        -2.42116         4.70410
     2012.23545         7.09264         4.69895
     2012.23819        -0.20756         4.71953
     2012.24093         2.07424         4.67495
     2012.24366        -1.03696         4.68438
     2012.24640        -1.93916         4.67666
     2012.24914        -3.02736         4.66723
     2012.25188        -7.06556         4.67323
     2012.25462       -16.62876         4.88846
     2012.25735        -5.36796         4.71010
     2012.26009        -8.48316         4.65522
     2012.26283        -5.20536         4.64408
     2012.26557       -11.74656         4.71353
     2012.26830        -4.72376         4.75812
     2012.27104        -3.91896         4.84215
     2012.27378        -5.09216         4.65265
     2012.27652        -0.97736         4.65608
     2012.27926        -0.91656         4.76670
     2012.28199        -2.90976         4.63121
     2012.28473        -0.43096         4.63293
     2012.28747        -5.21616         4.65437
     2012.29021        -3.76836         4.63807
     2012.29295        -2.02056         4.62007
     2012.29568        -5.54676         4.75298
     2012.29842        -1.82196         4.66894
     2012.30116        -0.49316         4.66037
     2012.30390        -4.82136         4.63893
     2012.30663       -11.67256         4.62521
     2012.30937        -8.76976         4.65608
     2012.31211        -3.96396         4.73068
     2012.31485         1.17384         4.77184
     2012.31759         1.25364         4.67923
     2012.32032        -5.70856         4.71525
     2012.32306        -5.68076         4.60892
     2012.32580        -8.03496         4.63207
     2012.32854       -10.59716         4.75726
     2012.33128        -5.15936         4.72296
     2012.33401        -6.53656         4.71782
     2012.33675        -1.01576         4.69810
     2012.33949       -12.86396         4.60635
     2012.34223        -9.09716         4.60120
     2012.34496       -12.79436         4.63550
     2012.34770        -4.71956         4.70324
     2012.35044        -5.60176         4.65265
     2012.35318        -1.75296         4.67066
     2012.35592        -9.01816         4.60978
     2012.35865        -6.31936         4.62178
     2012.36139       -10.78856         4.66037
     2012.36413        -9.86476         4.64408
     2012.36687        -7.35696         4.60635
     2012.36961        -3.58516         4.60378
     2012.37234        -4.48736         4.61749
     2012.37508        -4.44056         4.65179
     2012.37782        -3.50676         4.75641
     2012.38056        -9.84296         4.77013
     2012.38329        -8.63017         4.72725
     2012.38603        -5.56537         4.95019
     2012.38877        -3.83457         4.73497
     2012.39151        -2.09577         4.74955
     2012.39425        -4.13997         4.74955
     2012.39698        -6.60317         4.71696
     2012.39972        -5.68237         4.60292
     2012.40246        -4.54657         4.61235
     2012.40520         0.06723         4.63636
     2012.40794        -4.64297         4.66466
     2012.41067        -7.42317         4.64150
     2012.41341        -5.60037         4.61064
     2012.41615         0.23743         4.64751
     2012.41889        -3.29277         4.70753
     2012.42162        -4.95897         4.63207
     2012.42436         3.14883         4.87302
     2012.42710        -9.27437         4.62607
     2012.42984        -2.29457         4.62950
     2012.43258        -4.35677         4.65522
     2012.43531        -6.60297         4.65008
     2012.43805        -9.15217         4.64322
     2012.44079       -14.70937         4.64751
     2012.44353        -6.26857         4.65780
     2012.44626        -3.76777         4.67495
     2012.44900        -5.83697         4.62264
     2012.45174        -1.97217         4.68009
     2012.45448        -2.60437         4.64751
     2012.45722         2.86043         4.67152
     2012.45995         6.57623         4.87216
     2012.46269         2.82503         4.64065
     2012.46543        -5.44117         4.68952
     2012.46817        -3.78037         4.66294
     2012.47091         2.50243         4.66294
     2012.47364        -3.74677         4.78127
     2012.47638        -8.09197         4.67323
     2012.47912        -4.70617         4.64150
     2012.48186        -8.27337         4.70067
     2012.48459        -5.27657         4.67237
     2012.48733        -6.85877         4.65008
     2012.49007        -4.83797         4.71525
     2012.49281        -3.98317         4.69295
     2012.49555        -4.81537         4.74011
     2012.49828         0.78543         4.64408
     2012.50102         2.22423         4.63464
     2012.50376        -1.58897         4.64065
     2012.50650        -3.99417         4.62521
     2012.50924        -1.06937         4.74269
     2012.51197        -3.97357         4.76155
     2012.51471        -5.24177         4.63979
     2012.51745        -0.32197         4.71953
     2012.52019        -4.21917         4.67495
     2012.52292        -3.18237         4.65780
     2012.52566         0.90443         4.61407
     2012.52840        -2.82077         4.64493
     2012.53114        -5.50197         4.66894
     2012.53388        -2.79617         4.62864
     2012.53661        -1.79138         4.66208
     2012.53935        -0.47858         4.72211
     2012.54209         1.80222         4.66037
     2012.54483        -3.49298         4.62778
     2012.54757        -1.01618         4.69638
     2012.55030         3.40762         4.69810
     2012.55304        -4.31158         4.62007
     2012.55578        -8.40478         4.64493
     2012.55852        -3.85898         4.63464
     2012.56125        -2.57118         4.63379
     2012.56399         0.78662         4.63636
     2012.56673         0.76942         4.60806
     2012.56947         2.00222         4.62007
     2012.57221         2.25302         4.66894
     2012.57494        -2.31718         4.62693
     2012.57768         0.29962         4.60120
     2012.58042         0.60542         4.63379
     2012.58316        -5.72678         4.64322
     2012.58590         1.55102         4.66466
     2012.58863         8.44182         4.63207
     2012.59137         3.58962         4.66637
     2012.59411         4.32742         4.69638
     2012.59685         5.49622         4.84301
     2012.59958         2.25402         4.64493
     2012.60232        -1.11918         4.79842
     2012.60506        -1.53138         4.64150
     2012.60780         2.79742         4.61235
     2012.61054         4.03222         4.60721
     2012.61327         4.72602         4.61492
     2012.61601         2.49882         4.64236
     2012.61875         8.07562         4.64493
     2012.62149         3.11842         4.70067
     2012.62423         2.70622         4.73583
     2012.62696        -4.33198         4.68266
     2012.62970         0.69282         4.74440
     2012.63244         1.79662         4.69038
     2012.63518         5.18542         4.63121
     2012.63791         2.52022         4.63722
     2012.64065         2.83402         4.63807
     2012.64339         6.20982         4.62607
     2012.64613         7.30162         4.67666
     2012.64887         7.90942         4.62864
     2012.65160        12.52722         4.77098
     2012.65434         0.33702         4.66380
     2012.65708        -0.09018         4.89103
     2012.65982         5.17562         4.79413
     2012.66256         5.10342         4.68695
     2012.66529         3.59222         4.70410
     2012.66803         4.55702         4.68352
     2012.67077         5.78682         4.66123
     2012.67351         7.09762         4.68867
     2012.67624         8.79242         4.67666
     2012.67898         7.66422         4.65437
     2012.68172         8.89902         4.64236
     2012.68446         8.64682         4.76841
     2012.68720         6.35162         4.70581
     2012.68993         5.23741         4.62607
     2012.69267         8.10421         4.83101
     2012.69541        -0.77399         4.78985
     2012.69815         1.83681         4.73068
     2012.70089        -0.83039         4.72639
     2012.70362        -1.61559         4.67666
     2012.70636         2.99121         4.74440
     2012.70910        -3.00899         4.65694
     2012.71184         2.09181         4.63807
     2012.71457         3.19761         4.61578
     2012.71731         9.17541         4.62350
     2012.72005         4.63521         4.61921
     2012.72279         4.06001         4.63293
     2012.72553         2.80981         4.63807
     2012.72826         6.32761         4.80357
     2012.73100         2.94541         4.76670
     2012.73374         0.04121         4.75040
     2012.73648         2.70401         4.62950
     2012.73921         2.99981         4.74783
     2012.74195         1.95061         4.75040
     2012.74469         6.61041         4.68952
     2012.74743         4.03521         4.67323
     2012.75017         1.19801         4.67323
     2012.75290         6.10181         4.68524
     2012.75564         4.62161         4.68609
     2012.75838         2.39341         4.66980
     2012.76112         4.85421         4.65951
     2012.76386         5.71301         4.63636
     2012.76659         5.39181         4.71782
     2012.76933         3.70861         4.68438
     2012.77207         4.65341         4.68524
     2012.77481         2.66121         4.66380
     2012.77754         5.28601         4.68095
     2012.78028        13.46981         4.72811
     2012.78302        -4.68639         4.75898
     2012.78576         6.05841         4.73926
     2012.78850         5.60421         4.79413
     2012.79123         9.88601         4.94676
     2012.79397        12.31081         4.68266
     2012.79671         3.35061         4.68952
     2012.79945        14.29941         4.89875
     2012.80219         4.49421         4.75040
     2012.80492         7.65501         4.73754
     2012.80766         1.73081         4.74097
     2012.81040         7.03661         4.74183
     2012.81314         7.55341         4.76069
     2012.81587        -7.29579         4.69981
     2012.81861        -4.68099         4.91590
     2012.82135         5.37081         4.75126
     2012.82409        10.91361         4.81128
     2012.82683         6.10041         4.87388
     2012.82956         3.59921         4.76927
     2012.83230        11.62701         4.84730
     2012.83504        11.38481         4.84130
     2012.83778         8.57861         4.81814
     2012.84052        10.08341         4.86273
     2012.84325         0.42521         4.78299
     2012.84599         3.07800         4.74869
     2012.84873         3.32880         4.76584
     2012.85147         8.68660         4.83015
     2012.85420        -0.27160         4.72554
     2012.85694        -0.49880         4.76155
     2012.85968         1.32300         4.77699
     2012.86242        -4.58920         4.72125
     2012.86516         8.86160         4.78727
     2012.86789         4.51040         4.82843
     2012.87063         2.44020         4.71096
     2012.87337         2.16800         4.76498
     2012.87611         0.16180         4.72982
     2012.87885         6.15560         4.75641
     2012.88158        13.47740         4.68352
     2012.88432         7.27220         4.73754
     2012.88706         4.81100         4.92619
     2012.88980         5.97980         4.84730
     2012.89253         3.05760         4.69810
     2012.89527         5.32840         4.77613
     2012.89801         1.91520         4.71868
     2012.90075         5.68700         4.74697
     2012.90349        -0.21920         4.73583
     2012.90622         7.77760         4.72982
     2012.90896         8.39940         4.81729
     2012.91170         9.83320         4.87559
     2012.91444         2.00800         4.84473
     2012.91718         6.47880         4.79671
     2012.91991         8.80960         4.85073
     2012.92265         4.32240         4.69295
     2012.92539        -1.60280         4.74354
     2012.92813         2.57700         4.67237
     2012.93086        -5.22920         4.75555
     2012.93360         2.39060         4.72211
     2012.93634         0.91840         4.60549
     2012.93908        -1.08280         4.66980
     2012.94182        -0.09100         4.68352
     2012.94455         3.98680         4.74955
     2012.94729         6.82560         4.74183
     2012.95003         2.78140         4.71096
     2012.95277         7.29620         4.63807
     2012.95551         8.71600         4.70410
     2012.95824         4.94680         4.63893
     2012.96098         7.83260         4.91847
     2012.96372         1.99540         4.75126
     2012.96646         6.13720         4.63636
     2012.96919         2.36900         4.69981
     2012.97193         1.38780         4.78213
     2012.97467        -1.90140         4.68352
     2012.97741         3.26540         4.64150
     2012.98015         0.07720         4.64922
     2012.98288         3.13800         4.66723
     2012.98562        -0.73620         4.62607
     2012.98836        -1.07540         4.73240
     2012.99110         2.60040         4.62521
     2012.99384        -0.92480         4.63379
     2012.99657         1.78200         4.60892
     2012.99931         2.15079         4.66894
     2013.00205         3.54559         4.64922
     2013.00479         0.87339         4.63207
     2013.00752         1.76319         4.70153
     2013.01026        -2.58601         4.64493
     2013.01300        -6.60621         4.72725
     2013.01574         0.52159         4.62264
     2013.01848        -2.15761         4.63722
     2013.02121         2.27719         4.67066
     2013.02395         0.93399         4.75126
     2013.02669       -15.92321         4.80700
     2013.02943        -4.90441         4.69124
     2013.03216        -3.31661         4.63464
     2013.03490        -6.88881         4.63979
     2013.03764        -5.79901         4.63207
     2013.04038        -6.40621         4.64493
     2013.04312        -5.72141         4.73497
     2013.04585        -5.50561         4.73497
     2013.04859        -8.14681         4.75812
     2013.05133        -5.19801         4.60721
     2013.05407        -3.28521         4.62350
     2013.05681        -2.14441         4.62607
     2013.05954        -4.28361         4.67838
     2013.06228        -5.92681         4.77184
     2013.06502        -2.02201         4.74183
     2013.06776         0.66079         4.71868
     2013.07049         8.02759         4.76069
     2013.07323        -1.97661         4.63036
     2013.07597        -6.39281         4.63722
     2013.07871        -1.81001         4.63293
     2013.08145        -1.67921         4.58405
     2013.08418        -3.57041         4.59692
     2013.08692        -0.37561         4.65351
     2013.08966        -5.56481         4.59863
     2013.09240        -3.98401         4.62092
     2013.09514        -0.81221         4.62092
     2013.09787        -1.03441         4.94762
     2013.10061         1.03139         4.99050
     2013.10335        -6.94881         4.71525
     2013.10609        -2.96401         4.64836
     2013.10882        -1.11921         4.60892
     2013.11156        -7.78141         4.70324
     2013.11430        -5.76061         4.61321
     2013.11704        -7.76381         4.70153
     2013.11978        -3.71801         4.83186
     2013.12251        -8.62521         4.63293
     2013.12525       -11.60241         4.66980
     2013.12799        -2.67561         4.65694
     2013.13073        -0.52481         4.63121
     2013.13347        -0.00201         4.69295
     2013.13620         1.58079         4.72296
     2013.13894        -1.14941         4.63550
     2013.14168        -1.20361         4.74697
     2013.14442        -5.85081         4.88331
     2013.14715        -0.85901         4.94333
     2013.14989        -9.66421         4.67580
     2013.15263        -6.09442         4.69381
     2013.15537       -16.23262         4.60549
     2013.15811       -10.29082         4.66980
     2013.16084        -5.41002         4.65179
     2013.16358        -7.10022         4.65694
     2013.16632        -4.17042         4.61921
     2013.16906        -2.46162         4.62778
     2013.17180        -2.82582         4.70924
     2013.17453         4.15598         4.64579
     2013.17727        -2.15522         4.68867
     2013.18001        -0.37842         4.75898
     2013.18275         0.15738         4.61749
     2013.18548        -6.64982         4.62864
     2013.18822        -3.05502         4.63807
     2013.19096        -0.75122         4.67838
     2013.19370        -1.03442         4.59692
     2013.19644        -2.93462         4.66037
     2013.19917        -2.50082         4.72639
     2013.20191        -1.67502         4.65522
     2013.20465        -0.24022         4.62435
     2013.20739         0.83558         4.59949
     2013.21013        -0.08962         4.62007
     2013.21286        -2.16182         4.61578
     2013.21560       -10.62302         4.78299
     2013.21834        -2.64422         4.59949
     2013.22108        -1.63242         4.60721
     2013.22381        -1.24962         4.60120
     2013.22655        -5.91782         4.61321
     2013.22929         1.11898         4.64322
     2013.23203        -4.06022         4.58577
     2013.23477         2.19058         4.60721
     2013.23750        -3.67062         4.71267
     2013.24024        -5.97882         4.73583
     2013.24298        -2.84602         4.87731
     2013.24572         4.71778         4.70410
     2013.24846         3.68258         4.70839
     2013.25119        -3.45262         4.68952
     2013.25393        -0.81882         4.73240
     2013.25667        -0.61802         4.90475
     2013.25941         0.19878         4.75812
     2013.26214         0.05758         4.68609
     2013.26488         2.02038         4.75469
     2013.26762         1.50718         4.65179
     2013.27036         0.33998         4.69724
     2013.27310        -0.27022         4.92190
     2013.27583        -0.88642         4.73497
     2013.27857         1.55138         4.73668
     2013.28131        -3.54982         4.68009
     2013.28405         1.21198         4.67237
     2013.28679        -1.08022         4.71868
     2013.28952        -1.45542         4.76927
     2013.29226        -6.28662         4.68181
     2013.29500        -3.47882         4.68524
     2013.29774        -7.12102         4.72554
     2013.30047        -4.05522         4.69981
     2013.30321        -5.48142         4.68352
     2013.30595        -7.74062         4.66637
     2013.30869        -7.41583         4.70238
     2013.31143       -10.02603         4.66294
     2013.31416        -0.62123         4.69295
     2013.31690        -5.26843         4.70581
     2013.31964        -5.99363         4.68781
     2013.32238        -4.29883         4.70753
     2013.32512        -0.57203         4.69124
     2013.32785         2.58077         4.68352
     2013.33059        -5.93943         4.69895
     2013.33333        -9.29563         4.69724
     2013.33607        -9.31783         4.66208
     2013.33880        -3.31103         4.68524
     2013.34154         3.59977         4.71868
     2013.34428         2.67757         4.69124
     2013.34702        -2.57063         4.70238
     2013.34976        -1.47183         4.68781
     2013.35249        -4.56103         4.69038
     2013.35523        -5.03223         4.78127
     2013.35797        -3.62743         4.70924
     2013.36071         1.10337         4.91247
     2013.36344        -2.72983         4.77013
     2013.36618        -0.28503         4.63807
     2013.36892         1.50977         4.68352
     2013.37166         3.60057         4.81128
     2013.37440        -1.33863         4.63807
     2013.37713        -5.05083         4.68352
     2013.37987        -4.25203         4.65865
     2013.38261        -7.69723         4.66466
     2013.38535        -4.20543         4.79070
     2013.38809        -1.74363         4.66037
     2013.39082        -3.36883         4.67237
     2013.39356        -0.84103         4.67152
     2013.39630        -3.65323         4.65951
     2013.39904        -3.43943         4.67066
     2013.40177         2.99837         4.73068
     2013.40451        -3.58083         4.69467
     2013.40725        -1.95203         4.77784
     2013.40999        -5.12023         4.67923
     2013.41273         1.21957         4.69638
     2013.41546        -1.23763         4.78041
     2013.41820        -4.58083         4.68524
     2013.42094         1.82597         4.71953
     2013.42368        -6.08923         4.69467
     2013.42642        -2.37643         4.69981
     2013.42915         3.20837         4.65522
     2013.43189        -4.18283         4.72639
     2013.43463        -2.53703         4.81128
     2013.43737        -0.95323         4.72554
     2013.44010         1.59757         4.71610
     2013.44284        -1.61563         4.67409
     2013.44558        -2.75983         4.77956
     2013.44832        -7.82803         4.67580
     2013.45106        -4.28023         4.70839
     2013.45379        -3.77543         4.69724
     2013.45653        -3.82763         4.72211
     2013.45927        -2.80883         4.70753
     2013.46201        -1.16304         4.79585
     2013.46475        -3.91624         4.71182
     2013.46748        -5.81744         4.69467
     2013.47022        -5.54964         4.72468
     2013.47296        -2.34984         4.72639
     2013.47570        -0.25104         4.88160
     2013.47843         1.21976         4.69210
     2013.48117        10.48856         4.76755
     2013.48391        11.99236         4.69038
     2013.48665         2.01516         4.66294
     2013.48939         0.15396         4.65437
     2013.49212        -3.73924         4.65351
     2013.49486        -3.07244         4.67752
     2013.49760         3.32836         4.78299
     2013.50034         4.31316         4.68524
     2013.50308         0.92996         4.64493
     2013.50581         7.97376         4.69724
     2013.50855         0.26056         4.64836
     2013.51129         1.47836         4.62521
     2013.51403         3.44716         4.64579
     2013.51676         5.36996         4.66466
     2013.51950         1.00876         4.65780
     2013.52224         2.78256         4.64579
     2013.52498         4.29136         4.76755
     2013.52772         6.45716         4.67152
     2013.53045        -1.40104         4.67580
     2013.53319        -3.33424         4.65522
     2013.53593         4.01556         4.65179
     2013.53867        -2.14264         4.74269
     2013.54141         0.46516         4.70153
     2013.54414        -1.19604         4.70839
     2013.54688         0.01676         4.65265
     2013.54962         4.32656         4.62950
     2013.55236         6.01536         4.65780
     2013.55509         3.46816         4.64493
     2013.55783         2.39196         4.69810
     2013.56057         1.84176         5.04795
     2013.56331        -0.37244         4.74869
     2013.56605        -6.17964         4.69553
     2013.56878         3.49816         4.71610
     2013.57152         2.27796         4.66980
     2013.57426         3.92576         4.69038
     2013.57700         1.72656         4.66894
     2013.57974         1.28636         4.67237
     2013.58247         8.52316         4.68609
     2013.58521         3.70496         4.67409
     2013.58795         6.40476         4.69210
     2013.59069         8.34356         4.71096
     2013.59342         5.26536         4.67323
     2013.59616         8.29616         4.63893
     2013.59890         8.70296         4.74440
     2013.60164         8.50576         4.69467
     2013.60438        11.36656         4.77270
     2013.60711         2.49636         4.74183
     2013.60985         5.35016         4.67237
     2013.61259         8.35096         4.65780
     2013.61533         9.15175         4.83529
     2013.61807         0.85455         4.84644
     2013.62080         6.02135         4.92190
     2013.62354         7.88615         4.84215
     2013.62628         5.70095         4.72296
     2013.62902         7.86575         4.80528
     2013.63175         8.47355         4.71696
     2013.63449         8.36235         4.83272
     2013.63723        12.69615         4.75984
     2013.63997        22.30195         4.83701
     2013.64271         9.65975         4.73411
     2013.64544         8.40655         4.72125
     2013.64818        10.00635         4.71868
     2013.65092        12.36415         4.70324
     2013.65366        15.99995         4.70067
     2013.65639        11.36075         4.69038
     2013.65913        17.52555         5.05395
     2013.66187        10.87835         4.75383
     2013.66461         2.94415         4.71010
     2013.66735        17.51295         4.79328
     2013.67008        15.66575         4.90989
     2013.67282        11.49655         4.92790
     2013.67556         7.89335         4.83872
     2013.67830        12.24415         4.72125
     2013.68104         9.32495         4.73668
     2013.68377        15.96575         4.73325
     2013.68651        13.53555         4.72982
     2013.68925         9.47335         4.72211
     2013.69199        11.34515         4.76584
     2013.69472        15.64995         4.67323
     2013.69746        10.66475         4.67666
     2013.70020        13.04455         4.63379
     2013.70294         9.73035         4.66380
     2013.70568        12.58415         4.72725
     2013.70841        11.68395         4.71353
     2013.71115        13.21275         4.77527
     2013.71389        13.01255         4.66123
     2013.71663        10.33035         4.69638
     2013.71937        22.00615         4.95191
     2013.72210        16.91695         4.73840
     2013.72484        17.11275         4.79585
     2013.72758         7.43055         4.69810
     2013.73032        11.45635         4.67323
     2013.73305        10.14715         4.70067
     2013.73579        12.68195         4.66723
     2013.73853         9.51375         4.69038
     2013.74127        11.90755         4.73411
     2013.74401        12.42435         4.95362
     2013.74674         7.04615         4.94934
     2013.74948         2.49395         4.76241
     2013.75222         2.52075         4.69638
     2013.75496        -2.54245         4.71782
     2013.75770         2.01835         4.66809
     2013.76043         1.62815         4.67580
     2013.76317         3.58895         4.65437
     2013.76591         4.17775         4.87388
     2013.76865         3.74755         4.68266
     2013.77138         4.53334         4.67495
     2013.77412         7.64214         4.71525
     2013.77686         1.64394         4.68095
     2013.77960         1.24674         4.74183
     2013.78234        -0.86046         4.73754
     2013.78507        -2.38066         4.69638
     2013.78781        -3.12886         4.68867
     2013.79055         2.82494         4.68695
     2013.79329         1.13974         4.69553
     2013.79603         3.77554         4.68609
     2013.79876         2.09234         4.67152
     2013.80150         4.93114         4.76327
     2013.80424         9.61994         4.72039
     2013.80698         7.12874         4.67838
     2013.80971         7.94654         4.67666
     2013.81245         9.98834         4.69295
     2013.81519         2.99814         4.68609
     2013.81793         2.21094         4.68438
     2013.82067         5.34874         4.74612
     2013.82340         8.39754         4.70667
     2013.82614         5.66734         4.77956
     2013.82888         7.08314         4.69724
     2013.83162         3.31594         4.67838
     2013.83436         6.90074         4.79842
     2013.83709         6.55754         4.88503
     2013.83983        10.63634         4.76755
     2013.84257         1.97414         4.72725
     2013.84531         3.31494         4.77870
     2013.84804         1.97074         4.68524
     2013.85078         7.56454         4.78899
     2013.85352         1.77734         4.71782
     2013.85626         7.33914         4.67152
     2013.85900         2.40794         4.74011
     2013.86173         5.59974         4.73754
     2013.86447         1.28354         4.80528
     2013.86721         2.40934         4.67066
     2013.86995         0.09114         4.70753
     2013.87269         6.45894         4.72982
     2013.87542         6.26974         4.74869
     2013.87816         4.84054         4.72725
     2013.88090         9.63934         4.79499
     2013.88364        15.06414         4.99393
     2013.88637         5.41394         4.72382
     2013.88911         2.34174         4.67066
     2013.89185        -0.28346         4.67323
     2013.89459        -2.51566         4.70410
     2013.89733         3.03314         4.67838
     2013.90006         1.11894         4.70067
     2013.90280        -6.38726         4.76584
     2013.90554        -4.94546         4.72039
     2013.90828         7.06134         4.70839
     2013.91102         2.11814         4.71353
     2013.91375        -3.31206         4.70667
     2013.91649         4.30774         4.72982
     2013.91923        -0.89246         4.86788
     2013.92197         4.23234         4.76327
     2013.92470         2.64013         4.69210
     2013.92744         2.82293         4.80700
     2013.93018         2.33873         4.69295
     2013.93292        -3.17347         4.64665
     2013.93566         1.91733         4.73926
     2013.93839         3.07413         4.69124
     2013.94113        -0.86407         4.70410
     2013.94387         3.18373         4.69467
     2013.94661         3.11253         4.72468
     2013.94935         1.51533         4.65865
     2013.95208         3.09713         4.67923
     2013.95482        -1.88407         4.76755
     2013.95756         3.50973         4.73068
     2013.96030         3.26053         4.68695
     2013.96303         2.25933         4.75898
     2013.96577         0.33013         4.70839
     2013.96851         6.10393         4.71096
     2013.97125         5.16973         4.70839
     2013.97399         3.32053         4.72039
     2013.97672        -7.43867         4.71010
     2013.97946         1.69113         4.62950
     2013.98220         2.08093         4.68266
     2013.98494         0.46373         4.68695
     2013.98767        -6.96647         4.78384
     2013.99041        -8.90367         4.74612
     2013.99315        -6.65787         4.72296
     2013.99589        -0.82607         4.66723
     2013.99863        -6.39827         4.67495
     2014.00410        -6.87367         4.72639
     2014.00684         5.85713         4.82586
     2014.00958         0.62993         4.67580
     2014.01232        -4.58227         4.76584
     2014.01505        -4.26447         4.85759
     2014.01779        -4.52067         4.85845
     2014.02053         3.00413         4.74011
     2014.02327        -1.49207         4.91504
     2014.02600        -0.95427         4.81643
     2014.02874        11.71953         5.01536
     2014.03148        11.25733         4.75555
     2014.03422        -1.52887         4.69038
     2014.03696        -0.20007         4.67666
     2014.03969         1.97273         4.68352
     2014.04243         1.80653         4.80614
     2014.04517         4.45733         4.83787
     2014.04791        -1.16687         4.69981
     2014.05065         3.27593         4.65780
     2014.05338         0.52773         4.66208
     2014.05612        -0.02647         4.68695
     2014.05886        -1.26767         4.73926
     2014.06160         4.04813         4.68266
     2014.06433         7.96293         4.85244
     2014.06707        -0.05827         4.79585
     2014.06981         4.55753         4.71525
     2014.07255         3.02833         4.69210
     2014.07529        -2.19087         4.69810
     2014.07802        -3.60508         4.76755
     2014.08076         4.60972         4.70581
     2014.08350         4.83152         4.66380
     2014.08624        -0.90668         4.73325
     2014.08898         0.26212         4.89789
     2014.09171        -1.92708         4.85759
     2014.09445         1.30472         4.70324
     2014.09719         1.81652         4.78041
     2014.09993        10.84032         4.68352
     2014.10266        -0.00188         4.78127
     2014.10540         4.67692         4.82157
     2014.10814         9.81472         4.77870
     2014.11088         3.25952         4.86788
     2014.11362        -0.42968         4.70581
     2014.11635         7.06412         4.75126
     2014.11909         0.09592         4.77270
     2014.12183         8.98772         4.77699
     2014.12457         7.56152         4.72125
     2014.12731         2.58232         4.82415
     2014.13004         4.84012         4.76327
     2014.13278         5.45992         4.88760
     2014.13552         3.30372         4.85073
     2014.13826         1.22652         4.70839
     2014.14099         1.45832         4.68524
     2014.14373         0.84912         4.68266
     2014.14647         1.33592         4.72296
     2014.14921         3.99372         4.73411
     2014.15195         2.81052         4.78642
     2014.15468         6.03132         4.80099
     2014.15742         4.58312         4.76241
     2014.16016         9.98692         4.88245
     2014.16290         2.16172         4.75898
     2014.16564         3.29252         4.75641
     2014.16837         9.94532         5.01022
     2014.17111        -0.75988         4.88760
     2014.17385        13.93892         5.06081
     2014.17659        -5.39628         4.88931
     2014.17932         5.81652         4.96906
     2014.18206         5.82432         4.87645
     2014.18480         6.69212         4.77784
     2014.18754        -3.40308         4.76841
     2014.19028        -0.53128         4.71525
     2014.19301         0.12252         4.72125
     2014.19575         0.56532         4.81729
     2014.19849         4.19012         4.78642
     2014.20123         0.43492         4.75812
     2014.20397        -5.76128         4.74011
     2014.20670         1.99952         4.80700
     2014.20944         3.43732         4.71096
     2014.21218         2.10212         4.72468
     2014.21492         5.15292         4.83958
     2014.21765         3.07672         4.73840
     2014.22039         3.89352         4.70324
     2014.22313         2.05632         4.70924
     2014.22587         3.98112         4.72811
     2014.22861         5.84692         4.84473
     2014.23134         7.55472         4.75812
     2014.23408         2.47151         4.75126
     2014.23682         8.39631         4.77441
     2014.23956         0.23611         4.88245
     2014.24230         1.64391         4.72039
     2014.24503       -10.81329         4.71868
     2014.24777         3.95851         5.03680
     2014.25051        -3.94369         4.70753
     2014.25325        -6.74389         4.72125
     2014.25598         0.14191         4.83101
     2014.25872        -1.70629         4.72639
     2014.26146         0.24851         4.83358
     2014.26420        -5.04469         4.74097
     2014.26694        -3.88289         4.74783
     2014.26967        -5.09709         4.72125
     2014.27241        -2.06029         4.87216
     2014.27515        -2.75549         4.81986
     2014.27789         0.05831         4.77613
     2014.28062        -1.53789         4.70581
     2014.28336        -2.63509         4.73240
     2014.28610        -0.55829         4.83358
     2014.28884        -3.85749         4.94934
     2014.29158        -7.88469         4.69467
     2014.29431         0.93911         4.71267
     2014.29705         5.23291         4.81214
     2014.29979        -9.89029         4.71010
     2014.30253        -2.16549         4.79156
     2014.30527         4.13631         4.73497
     2014.30800        -2.04089         4.68095
     2014.31074         7.72291         4.81814
     2014.31348        -1.56829         4.69810
     2014.31622        -2.44349         4.67838
     2014.31895         3.14531         4.75555
     2014.32169        -7.88689         4.85587
     2014.32443        -9.46709         4.81300
     2014.32717        -8.85029         4.81900
     2014.32991        -0.61849         4.75812
     2014.33264        -5.57769         4.73754
     2014.33538        -2.81389         4.73754
     2014.33812         4.51491         4.83787
     2014.34086        -5.66329         4.70496
     2014.34360        -4.70749         4.68352
     2014.34633        -5.15969         4.72639
     2014.34907        -3.53789         4.92790
     2014.35181         3.03191         4.85502
     2014.35455        -1.03129         4.72382
     2014.35728        -1.78549         4.65694
     2014.36002        -6.55569         4.74354
     2014.36276        -9.29789         4.76584
     2014.36550        -3.04609         4.77356
     2014.36824        -3.66829         4.79499
     2014.37097        -3.19349         4.81300
     2014.37371        -0.73369         4.72897
     2014.37645        -1.53589         4.76498
     2014.37919        -6.28609         4.77870
     2014.38193        -3.87029         4.73583
     2014.38466         0.43751         4.75726
     2014.38740         0.77830         4.75898
     2014.39014        -3.21890         4.85073
     2014.39288        -0.88910         4.74183
     2014.39561        -1.31930         4.82329
     2014.39835        -1.08050         4.73497
     2014.40109        -7.34270         4.73497
     2014.40383         0.85610         4.75298
     2014.40657        -8.66810         4.74869
     2014.40930        -4.98530         4.72982
     2014.41204        -7.23750         4.67495
     2014.41478         0.10430         4.69038
     2014.41752         1.48810         4.70153
     2014.42026         0.73290         4.72382
     2014.42299        -0.08830         4.69810
     2014.42573        -2.31250         4.72982
     2014.42847         2.14230         4.72725
     2014.43121        -5.09990         4.71782
     2014.43394        -0.13410         4.70839
     2014.43668        -0.02530         4.73154
     2014.43942        -6.46250         4.70067
     2014.44216        -2.10270         4.69210
     2014.44490        -5.56790         4.84816
     2014.44763        -1.70710         4.83529
     2014.45037        -2.17930         4.69638
     2014.45311         1.60250         4.74955
     2014.45585         0.59730         4.71267
     2014.45859        -4.68690         4.66551
     2014.46132        -2.39110         4.69895
     2014.46406        -5.26830         4.73754
     2014.46680        -5.71350         4.72639
     2014.46954        -4.43270         4.74440
     2014.47227        -1.49190         4.71696
     2014.47501        -2.49410         4.73840
     2014.47775        -0.08230         4.70581
     2014.48049        -0.04050         4.76155
     2014.48323        -0.31070         4.75383
     2014.48596         0.80210         4.79328
     2014.48870        -1.42810         4.73325
     2014.49144         1.81370         4.65608
     2014.49418         1.94250         4.66208
     2014.49692        -5.07770         4.61749
     2014.49965        -2.80990         4.70410
     2014.50239        -6.31410         4.67666
     2014.50513         3.59070         4.74440
     2014.50787        -6.59750         4.67495
     2014.51060         3.40530         4.66809
     2014.51334         1.32610         4.67152
     2014.51608         5.64690         4.71353
     2014.51882        -1.84330         4.67838
     2014.52156        -0.77050         4.75812
     2014.52429         6.94630         4.76327
     2014.52703         6.80410         4.66809
     2014.52977         4.59190         4.75641
     2014.53251         0.43770         4.68609
     2014.53525         4.29450         4.65951
     2014.53798         6.42230         4.68181
     2014.54072         5.68309         4.82072
     2014.54346         5.83589         4.66809
     2014.54620        -1.08231         4.71096
     2014.54893         8.36149         4.68524
     2014.55167         3.68429         4.69124
     2014.55441         0.72509         4.76241
     2014.55715        -2.21111         4.84215
     2014.55989         2.69969         4.65694
     2014.56262         4.89349         4.68181
     2014.56536        -2.61271         4.64836
     2014.56810         3.55409         4.70667
     2014.57084         1.66489         4.67838
     2014.57357         2.38769         4.68181
     2014.57631         0.62049         4.69553
     2014.57905        -4.02671         4.85416
     2014.58179         0.26409         4.81386
     2014.58453        -3.68411         4.83358
     2014.58726         2.43469         5.01279
     2014.59000         2.06349         4.83529
     2014.59274         1.43329         4.91504
     2014.59548         1.16809         4.87131
     2014.59822        -1.14311         4.86187
     2014.60095        -1.13331         4.81900
     2014.60369         4.37849         4.75383
     2014.60643        -3.30971         4.76412
     2014.60917        -3.02091         4.80442
     2014.61190         1.58989         4.93562
     2014.61464         4.53169         4.80185
     2014.61738         7.12549         4.89446
     2014.62012         6.61029         4.85244
     2014.62286         2.38009         4.82415
     2014.62559         4.37789         4.78299
     2014.62833         4.07169         4.74869
     2014.63107         7.23649         4.88245
     2014.63381         8.41629         4.93819
     2014.63655         3.30109         4.85759
     2014.63928         2.80489         4.84730
     2014.64202         0.46269         4.70067
     2014.64476        -2.71151         4.75555
     2014.64750         4.12329         4.80271
     2014.65023        -0.81491         4.72125
     2014.65297         4.35989         4.71525
     2014.65571         2.45469         4.71353
     2014.65845         6.90949         4.73240
     2014.66119         4.92629         4.82243
     2014.66392         7.96309         4.73668
     2014.66666         9.40789         4.70839
     2014.66940         8.12169         4.71610
     2014.67214         3.51449         4.73497
     2014.67488         3.97429         4.70924
     2014.67761         0.41009         4.74955
     2014.68035         1.93789         4.73068
     2014.68309        -1.26831         4.71439
     2014.68583         1.81049         4.73840
     2014.68856         5.48929         4.69124
     2014.69130         2.68909         4.70324
     2014.69404         4.36788         4.74526
     2014.69678        -1.20532         4.69553
     2014.69952         2.34648         4.69038
     2014.70225         2.20728         4.67752
     2014.70499         0.36708         4.81471
     2014.70773         5.12188         4.73926
     2014.71047         6.50068         4.80357
     2014.71321         0.90748         4.71525
     2014.71594         3.65228         4.77013
     2014.71868         7.24508         4.66637
     2014.72142         4.77388         4.67237
     2014.72416         9.89668         4.75383
     2014.72689         7.76248         4.89960
     2014.72963         5.35128         4.84387
     2014.73237         4.20408         4.74097
     2014.73511         2.47788         4.71696
     2014.73785         2.83168         4.69038
     2014.74058         5.23148         4.69895
     2014.74332         3.31128         4.80014
     2014.74606         9.23408         4.69038
     2014.74880         1.66888         4.69810
     2014.75154         2.79968         4.84215
     2014.75427         1.02448         4.74097
     2014.75701        -2.77072         4.66723
     2014.75975         1.90908         4.66980
     2014.76249         3.91288         4.69124
     2014.76522         3.69568         4.70324
     2014.76796         7.20748         4.68867
     2014.77070         3.10928         4.69295
     2014.77344         2.56208         4.68438
     2014.77618         6.72688         4.76670
     2014.77891         6.81368         4.71267
     2014.78165         1.60948         4.71182
     2014.78439         8.84728         4.77356
     2014.78713         8.86308         4.76841
     2014.78987         4.67288         4.72811
     2014.79260         1.19868         4.75984
     2014.79534         4.36748         4.72125
     2014.79808         4.08128         4.89960
     2014.80082        10.24508         4.89189
     2014.80355        10.17288         4.79499
     2014.80629         1.32268         4.72811
     2014.80903         5.42448         4.80099
     2014.81177         8.90828         4.71267
     2014.81451         7.09308         4.91247
     2014.81724        11.00088         4.78384
     2014.81998         9.59768         4.67409
     2014.82272         6.11848         4.98707
     2014.82546         5.71428         4.81128
     2014.82820        10.24208         4.86702
     2014.83093         5.55388         4.81043
     2014.83367        -1.28832         4.74097
     2014.83641         3.73348         4.76069
     2014.83915         3.13328         4.74869
     2014.84188         3.35008         4.76755
     2014.84462         0.83588         4.80785
     2014.84736         0.18068         4.88931
     2014.85010         2.01447         4.76498
     2014.85284         4.71227         4.73754
     2014.85557        -2.41493         4.92619
     2014.85831         2.64087         4.73668
     2014.86105         0.22167         4.74526
     2014.86379        -1.17753         4.73325
     2014.86653         4.18627         4.85416
     2014.86926        -5.56393         4.77699
     2014.87200        -1.88113         4.81214
     2014.87474        -1.02533         4.75383
     2014.87748        -1.00153         4.78041
     2014.88021         6.74327         4.81557
     2014.88295         1.41207         4.83101
     2014.88569        -4.61213         4.93133
     2014.88843        11.89567         5.03337
     2014.89117        12.50347         5.15256
     2014.89390        -0.24973         4.85330
     2014.89664         5.90607         4.88588
     2014.89938         2.31487         4.87817
     2014.90212        -1.42833         4.92190
     2014.90485        10.41947         4.96563
     2014.90759         9.49727         5.03594
     2014.91033         1.62807         4.72639
     2014.91307         6.81887         4.73068
     2014.91581        11.48467         4.84301
     2014.91854        -0.89753         4.78384
     2014.92128        -0.59773         4.73068
     2014.92402         4.46307         4.78213
     2014.92676        -4.73013         4.87216
     2014.92950        -1.85133         4.87045
     2014.93223        -4.28753         4.83615
     2014.93497        -2.09473         5.03594
     2014.93771       -10.70793         4.91933
     2014.94045        -9.21413         4.96906
     2014.94318         3.29067         5.50069
     2014.94592        -0.68253         4.75812
     2014.94866        -3.61373         4.70924
     2014.95140        -1.44393         4.66894
     2014.95414         0.18987         4.73668
     2014.95687         0.77767         4.70496
     2014.95961         0.60147         4.77441
     2014.96235         9.89027         4.73840
     2014.96509         0.42407         4.82415
     2014.96783        -3.33813         4.66723
     2014.97056        -5.14833         4.64922
     2014.97330        -6.33053         4.66980
     2014.97604        -7.43273         4.66380
     2014.97878        -1.50393         4.66809
     2014.98151         3.87187         4.78556
     2014.98425        -3.28233         4.62435
     2014.98699         1.84247         4.67152
     2014.98973        -3.01773         4.67838
     2014.99247        -3.09893         4.65694
     2014.99520        -9.29413         4.63207
     2014.99794        -0.26533         4.62950
     2015.00068         0.36247         4.62007
     2015.00342        -6.76974         4.68695
     2015.00616       -11.23294         4.68438
     2015.00889        -1.77814         4.79328
     2015.01163        -4.43734         4.76412
     2015.01437        -3.45254         4.71353
     2015.01711         0.15126         4.76155
     2015.01984         2.00206         4.71096
     2015.02258         2.50486         4.86788
     2015.02532         2.14066         4.82843
     2015.02806         0.25846         4.73583
     2015.03080         2.06426         4.71525
     2015.03353         1.75706         4.76841
     2015.03627        -1.43214         4.75555
     2015.03901         0.32966         4.87045
     2015.04175         8.76646         4.81814
     2015.04449        10.23626         4.90475
     2015.04722         0.91206         4.88588
     2015.04996         0.42986         4.76327
     2015.05270        -4.93834         4.76412
     2015.05544        -4.51754         4.72982
     2015.05817         1.77126         4.76069
     2015.06091        -5.52594         4.79242
     2015.06365         2.01986         4.86616
     2015.06639         1.92166         4.75298
     2015.06913        -5.43854         4.71953
     2015.07186        -8.60374         4.68181
     2015.07460        -1.02594         4.73325
     2015.07734        -8.74214         4.68952
     2015.08008        -8.91434         4.64579
     2015.08282        -6.12254         4.65351
     2015.08555        -5.06774         4.68181
     2015.08829         4.96406         4.78299
     2015.09103         1.43086         4.71782
     2015.09377        -5.07434         4.85673
     2015.09650        -1.75054         4.84130
     2015.09924        -2.50974         4.80099
     2015.10198        -6.26094         4.81043
     2015.10472         3.30186         4.80185
     2015.10746         0.19466         4.78127
     2015.11019       -10.27854         4.81986
     2015.11293        -2.55674         4.80528
     2015.11567        -5.78894         4.70410
     2015.11841        -8.44914         4.71010
     2015.12115        -0.79434         4.79070
     2015.12388         0.48146         4.71353
     2015.12662        -7.60574         4.69638
     2015.12936        -6.84794         4.69895
     2015.13210        -6.22614         4.75040
     2015.13483        -8.51534         4.73926
     2015.13757        -4.35654         4.74354
     2015.14031        -4.69274         4.74354
     2015.14305        -5.24594         4.69295
     2015.14579        -2.78614         4.68009
     2015.14852        -6.46034         4.72811
     2015.15126        -4.29054         4.76241
     2015.15400        -2.66274         4.70153
     2015.15674        -3.74695         4.69810
     2015.15948         2.29185         4.72039
     2015.16221        -0.21335         4.72039
     2015.16495        -0.07255         4.68524
     2015.16769        -0.25675         4.70839
     2015.17043        -1.99595         4.65351
     2015.17316        -2.19415         4.81214
     2015.17590        -5.07835         4.85330
     2015.17864        -1.89955         4.70496
     2015.18138         3.73425         4.69810
     2015.18412         0.11905         4.72639
     2015.18685         8.50985         4.69638
     2015.18959        -4.43135         4.84215
     2015.19233        -1.22455         4.85587
     2015.19507         3.65525         4.75469
     2015.19780         6.90805         4.85416
     2015.20054        -6.87515         4.74011
     2015.20328        -6.16735         4.65094
     2015.20602        -1.60155         4.71353
     2015.20876        -3.90675         4.68609
     2015.21149        -4.51195         4.68524
     2015.21423        -2.58515         5.06510
     2015.21697         0.66765         4.72639
     2015.21971         0.87245         4.74697
     2015.22245        -1.67175         4.72039
     2015.22518         0.29605         4.76670
     2015.22792        -4.57115         4.68609
     2015.23066        -5.79735         4.65265
     2015.23340         1.37745         4.83701
     2015.23613         1.40525         4.84730
     2015.23887        -8.74995         4.88245
     2015.24161         1.30185         4.94505
     2015.24435        -0.51335         4.99736
     2015.24709        -2.39355         4.80528
     2015.24982        -3.24875         4.69210
     2015.25256        -0.91195         4.67409
     2015.25530        -1.83015         4.70924
     2015.25804        -2.57635         4.67409
     2015.26078        -1.98655         4.69295
     2015.26351        -1.94975         4.64836
     2015.26625        -2.33495         4.67237
     2015.26899        -4.97515         4.68095
     2015.27173        -0.97935         4.80185
     2015.27446         2.58645         4.76498
     2015.27720        -3.20775         4.69381
     2015.27994        -2.03195         4.69981
     2015.28268        -5.76215         4.66980
     2015.28542        -4.05135         4.78470
     2015.28815        -4.36255         4.77956
     2015.29089        -0.14875         4.65265
     2015.29363        -2.56895         4.62864
     2015.29637        -6.10815         4.65265
     2015.29911        -1.76635         4.67237
     2015.30184        -0.04455         4.64065
     2015.30458        -0.56375         4.64922
     2015.30732        -3.71795         4.55576
     2015.31006        -3.71515         4.54461
     2015.31279        -8.39936         4.53861
     2015.31553        -6.03056         4.58663
     2015.31827        -6.73776         4.56690
     2015.32101         0.47604         4.64150
     2015.32375        -5.25416         4.56433
     2015.32648       -10.86236         4.66551
     2015.32922        -3.83656         4.69467
     2015.33196         5.19124         4.57891
     2015.33470        -0.19996         4.56004
     2015.33744        -5.10116         4.54118
     2015.34017        -7.02336         4.56090
     2015.34291        -4.25756         4.57291
     2015.34565        -3.92076         4.61492
     2015.34839        -7.94996         4.58663
     2015.35112        -5.17816         4.55747
     2015.35386         1.64364         4.57548
     2015.35660        -2.34456         4.59949
     2015.35934        -6.19376         4.66208
     2015.36208        -4.21596         4.61578
     2015.36481         4.59384         4.55318
     2015.36755        -0.46036         4.53603
     2015.37029        -0.59056         4.56176
     2015.37303        -3.04176         4.57977
     2015.37577        -2.31796         4.53603
     2015.37850        -5.69716         4.66551
     2015.38124        -2.10036         4.51288
     2015.38398        -8.06056         4.55318
     2015.38672        -5.62076         4.57376
     2015.38945        -4.75296         4.59434
     2015.39219        -1.42516         4.56347
     2015.39493        -4.40836         4.56776
     2015.39767        -5.16956         4.57462
     2015.40041        -2.28076         4.59177
     2015.40314        -0.59096         4.70753
     2015.40588        -6.85316         4.60549
     2015.40862        -0.64736         4.61407
     2015.41136         2.69144         4.63807
     2015.41410        -0.44676         4.68781
     2015.41683        -5.13296         4.58834
     2015.41957        -1.28216         4.58234
     2015.42231        -1.70736         4.56519
     2015.42505        -6.91856         4.71267
     2015.42778        -2.38676         4.58148
     2015.43052        -3.28796         4.65694
     2015.43326        -3.56416         4.58748
     2015.43600         2.54764         4.62350
     2015.43874         1.67744         4.60120
     2015.44147        -2.55676         4.79156
     2015.44421        -6.74096         4.56948
     2015.44695        -2.03816         4.57805
     2015.44969        -5.34636         4.57119
     2015.45243        -2.53456         4.66380
     2015.45516         1.94524         4.59692
     2015.45790        -1.62296         4.70324
     2015.46064        -1.55616         4.74354
     2015.46338         0.89664         4.69038
     2015.46611         5.65943         4.60892
     2015.46885        -1.90677         4.66894
     2015.47159         2.42503         4.59949
     2015.47433        -4.08417         4.72811
     2015.47707        -1.26337         4.72125
     2015.47980        -2.28057         4.68867
     2015.48254         5.02723         4.68781
     2015.48528         5.73503         4.68438
     2015.48802        -2.28117         4.73754
     2015.49076        -4.69937         4.64493
     2015.49349         2.49243         4.71096
     2015.49623         8.51723         4.72296
     2015.49897         0.51603         4.75984
     2015.50171         0.40383         4.71610
     2015.50444         5.72463         4.63464
     2015.50718        -6.03457         4.64150
     2015.50992         5.05223         4.64236
     2015.51266         6.57803         4.60378
     2015.51540        -0.74117         4.62007
     2015.51813         3.06863         4.66980
     2015.52087         4.40043         4.58148
     2015.52361         6.77123         4.72211
     2015.52635         3.47103         4.63464
     2015.52908         2.71283         4.61835
     2015.53182         2.43363         4.61578
     2015.53456         6.47943         4.60806
     2015.53730         2.45523         4.67838
     2015.54004         3.82903         4.75984
     2015.54277         1.42183         4.71782
     2015.54551         7.07063         4.76670
     2015.54825         6.39643         4.76584
     2015.55099         3.69823         4.72039
     2015.55373        10.38703         4.74097
     2015.55646         5.02383         4.74955
     2015.55920         7.84463         4.79756
     2015.56194        10.16643         4.72554
     2015.56468         8.49823         4.69467
     2015.56741         2.61403         4.66294
     2015.57015         9.27383         4.87131
     2015.57289         2.17063         4.92447
     2015.57563         5.56143         4.65951
     2015.57837         4.64523         4.71010
     2015.58110         6.78803         4.71439
     2015.58384        12.91083         4.78642
     2015.58658        18.53263         4.79070
     2015.58932         9.95243         4.76584
     2015.59206         3.86023         4.72982
     2015.59479         4.75903         4.69638
     2015.59753        10.00683         4.74097
     2015.60027         8.14563         4.86445
     2015.60301         6.21843         5.05652
     2015.60574        10.92823         4.85845
     2015.60848        10.70003         4.73754
     2015.61122         6.67883         4.71525
     2015.61396        11.80963         4.69895
     2015.61670        11.68043         4.68524
     2015.61943         6.85322         4.60549
     2015.62217        12.83802         4.57891
     2015.62491         8.40182         4.59520
     2015.62765        10.12162         4.60549
     2015.63039         9.50042         4.57891
     2015.63312         6.59822         4.69895
     2015.63586        13.48502         4.64836
     2015.63860        11.01582         4.61149
     2015.64134         4.23262         4.59606
     2015.64407         3.29542         4.60721
     2015.64681         3.45622         4.69724
     2015.64955         3.09002         4.70581
     2015.65229         2.41382         4.63893
     2015.65503        17.01662         4.62950
     2015.65776        14.86242         4.97163
     2015.66050        13.27622         4.71868
     2015.66324         6.84702         4.51803
     2015.66598         6.15182         4.70924
     2015.66872         4.01162         4.73154
     2015.67145         7.59542         4.62864
     2015.67419         6.09822         4.58663
     2015.67693         5.09502         4.55661
     2015.67967         7.84882         4.59520
     2015.68240         8.52662         4.60635
     2015.68514         9.66842         4.58062
     2015.68788         8.67122         4.57033
     2015.69062        13.35302         4.58491
     2015.69336         7.64482         4.73583
     2015.69609         9.00862         4.59434
     2015.69883        10.72042         4.63722
     2015.70157        10.87822         4.65694
     2015.70431         8.15602         4.61664
     2015.70705         4.86482         4.60463
     2015.70978        10.06462         4.64665
     2015.71252         5.07642         4.58062
     2015.71526         5.64722         4.56605
     2015.71800         8.15402         4.58148
     2015.72073         9.85882         4.63722
     2015.72347         9.18762         4.61492
     2015.72621        -3.81658         4.61149
     2015.72895         0.62722         4.60463
     2015.73169         3.98602         4.67580
     2015.73442         2.96882         4.58234
     2015.73716         5.82262         4.56090
     2015.73990        11.08042         4.71439
     2015.74264        10.33722         4.72468
     2015.74538         8.28502         4.78299
     2015.74811         2.44382         4.77699
     2015.75085        -0.95738         4.56948
     2015.75359         5.19242         4.59777
     2015.75633         8.07622         4.59863
     2015.75906         8.31002         4.55919
     2015.76180        -0.97518         4.63379
     2015.76454         7.22662         4.59177
     2015.76728         4.85642         4.63207
     2015.77002         7.33222         4.78213
     2015.77275         2.67202         4.75298
     2015.77549         9.07381         4.71782
     2015.77823        13.59361         4.59263
     2015.78097         6.69641         4.60120
     2015.78371         8.77621         4.61578
     2015.78644         7.74701         4.66294
     2015.78918         1.97881         4.63464
     2015.79192        10.37661         4.80871
     2015.79466         6.81341         4.63636
     2015.79739         7.45621         4.96048
     2015.80013         7.47201         4.77699
     2015.80287         3.94981         4.68266
     2015.80561        13.07161         4.63550
     2015.80835         5.98541         4.61064
     2015.81108        11.27221         4.84816
     2015.81382         1.73601         4.86788
     2015.81656         2.42781         4.61578
     2015.81930         8.55761         4.68352
     2015.82203         2.86541         4.72554
     2015.82477         6.74221         4.66208
     2015.82751         9.67201         4.64751
     2015.83025         3.50881         4.78556
     2015.83299         8.00061         4.88245
     2015.83572         9.68441         4.70496
     2015.83846         4.13021         4.72554
     2015.84120         2.70601         4.68952
     2015.84394         0.86581         4.69638
     2015.84668         0.32961         4.71267
     2015.84941        -0.03159         4.71782
     2015.85215        10.33221         4.82157
     2015.85489         6.06601         4.70153
     2015.85763         2.97781         4.66037
     2015.86036         1.04061         4.70581
     2015.86310         4.83041         4.70410
     2015.86584         8.31221         4.66980
     2015.86858         4.43201         4.71010
     2015.87132         8.23681         4.81300
     2015.87405        -1.28039         4.72554
     2015.87679         0.15841         4.80614
     2015.87953         9.89921         4.84558
     2015.88227         1.76201         4.77441
     2015.88501         0.71281         4.68609
     2015.88774         2.27961         4.67752
     2015.89048         7.48141         4.71525
     2015.89322         8.45621         4.68438
     2015.89596         7.53301         4.62778
     2015.89869         7.61081         4.66551
     2015.90143        -1.75739         4.66037
     2015.90417        -2.76159         4.65608
     2015.90691         3.54521         4.65694
     2015.90965         2.84601         4.67752
     2015.91238         5.67981         4.72982
     2015.91512         3.80361         4.67495
     2015.91786        10.41641         4.72382
     2015.92060         2.38521         4.83872
     2015.92334         1.19901         4.75984
     2015.92607        -0.49319         4.76241
     2015.92881         6.10560         4.85673
     2015.93155         4.22340         4.90732
     2015.93429        -0.22780         4.93905
     2015.93702         6.46000         4.95105
     2015.93976         5.24980         4.99135
     2015.94250         1.01460         4.86788
     2015.94524         0.36340         4.81471
     2015.94798         0.34320         4.78727
     2015.95071         5.32300         4.70924
     2015.95345         0.41780         4.64065
     2015.95619         5.29060         4.73583
     2015.95893         0.89640         4.84558
     2015.96167         4.02820         4.84473
     2015.96440         1.66800         4.64493
     2015.96714         4.93380         4.70581
     2015.96988         5.94460         4.74612
     2015.97262        10.79440         4.67237
     2015.97535         3.27520         4.69210
     2015.97809         6.64800         4.76241
     2015.98083         1.91480         4.67409
     2015.98357        -5.03040         4.66723
     2015.98631         2.96940         4.87388
     2015.98904        -4.31980         4.68009
     2015.99178        -4.65600         4.66894
     2015.99452        -2.49820         4.68438
     2015.99726         4.32760         4.63207
     2016.00000         2.92740         4.66551
     2016.00273        -1.28280         4.62950
     2016.00547         0.91600         4.68867
     2016.00821        -0.78220         4.71868
     2016.01095        -0.31140         4.73411
     2016.01368         0.36340         4.73754
     2016.01642         0.96720         4.76241
     2016.01916        -2.25800         4.85759
     2016.02190        -1.23920         4.80014
     2016.02464         0.52660         4.71182
     2016.02737         0.20740         4.82672
     2016.03011         9.19720         4.74097
     2016.03285         0.37200         4.78127
     2016.03559        -1.17920         4.70667
     2016.03833        -3.77940         4.76670
     2016.04106         6.82840         4.79499
     2016.04380         1.05320         4.64579
     2016.04654        -1.79400         4.67923
     2016.04928         2.91580         4.66551
     2016.05201         1.57860         4.70581
     2016.05475        -0.88660         4.63207
     2016.05749         2.96720         4.65094
     2016.06023        -6.87200         4.74183
     2016.06297         0.34880         4.63979
     2016.06570       -10.53840         6.60169
     2016.06844         0.85140         4.70496
     2016.07118        -0.75180         4.75469
     2016.07392        -3.34200         4.82243
     2016.07666        -5.42020         4.89532
     2016.07939         0.51460         9.70489
     2016.08213        -0.81061         4.80099
     2016.08487         0.88019         4.66809
     2016.08761        -5.89501         4.70839
     2016.09034        -8.75721         4.75812
     2016.09308        -7.43341         4.68524
     2016.09582        -8.18461         4.70410
     2016.09856        -2.93281         4.71610
     2016.10130       -11.44901         4.69210
     2016.10403        -7.97321         4.70753
     2016.10677       -15.23341         4.65094
     2016.10951        -9.53161         4.74612
     2016.11225        -7.02381         4.70839
     2016.11498        -3.52701         4.76412
     2016.11772        -8.55621         4.66551
     2016.12046        -4.81041         4.63636
     2016.12320        -6.70761         4.65522
     2016.12594        -6.36281         4.65008
     2016.12867         2.47799         4.66551
     2016.13141         7.19479         4.74612
     2016.13415         6.34559         4.97849
     2016.13792        -9.71706         9.84465
     2016.13963        -3.64381         4.73240
     2016.14236       -11.03701         4.62950
     2016.14510        -6.27921         4.65865
     2016.14784        -7.94341         4.66809
     2016.15058        -8.50261         4.59692
     2016.15331        -9.18881         4.78899
     2016.15605        -6.93501         4.66980
     2016.15879        -1.76921         4.91761
     2016.16153        -7.53741         4.74869
     2016.16427        -1.84461         5.00250
     2016.16700        -6.96381         4.72639
     2016.16974        -0.08601         4.66123
     2016.17248       -15.63321         4.77870
     2016.17522         0.56959         4.84215
     2016.17796         0.41039         4.67409
     2016.18069        -3.29481         4.72639
     2016.18343        -5.40001         4.86873
     2016.18617         1.26079         4.72982
     2016.18891        13.28659         4.67409
     2016.19164         1.94839         4.60206
     2016.19438         2.77419         4.68781
     2016.19712        -4.54601         4.58577
     2016.19986        -2.91321         4.69981
     2016.20260        -7.40841         4.68009
     2016.20533        -8.84961         4.75726
     2016.20807        -7.38081         4.74612
     2016.21081        -9.52701         4.73411
     2016.21355        -2.22621         4.59606
     2016.21629        -4.26941         4.67580
     2016.21902        -5.09461         4.59863
     2016.22176        -3.20581         4.57462
     2016.22450        -5.67401         4.60635
     2016.22724        -5.64321         4.54890
     2016.22997        -9.32941         4.51117
     2016.23271        -1.65061         4.54289
     2016.23545        -9.88481         4.56090
     2016.23819        -9.06702         4.52403
     2016.24093        -4.24822         4.57462
     2016.24366        -6.46142         4.53775
     2016.24640        -3.37962         4.49831
     2016.24914        -8.36282         4.50774
     2016.25188        -8.23402         4.59349
     2016.25462        -3.82322         4.59006
     2016.25735        -5.90142         4.63722
     2016.26009        -7.71062         4.55490
     2016.26283       -16.26482         4.53346
     2016.26557        -5.00102         4.54632
     2016.26830        -5.17022         4.54289
     2016.27104        -4.66242         4.52832
     2016.27378        -2.06562         4.54718
     2016.27652        -3.69682         4.50431
     2016.27926        -2.12702         4.62007
     2016.28199        -8.87522         4.60806
     2016.28473        -7.20342         4.69038
     2016.28747       -10.79062         4.54547
     2016.29021        -6.46882         4.55147
     2016.29295        -2.99502         4.55233
     2016.29568        -4.98422         4.56433
     2016.29842        -3.87942         4.68009
     2016.30116        -3.04662         4.83272
     2016.30390        -9.53982         4.60206
     2016.30663        -3.59702         4.61749
     2016.30937        -7.04722         4.57805
     2016.31211        -8.83042         4.62778
     2016.31485        -6.99662         4.56176
     2016.31759        -3.60082         4.57291
     2016.32032        -8.10202         4.66208
     2016.32306       -13.16522         4.54718
     2016.32580       -10.16842         4.54289
     2016.32854        -5.59762         4.53861
     2016.33128        -2.74182         4.54890
     2016.33401        -7.08402         4.63636
     2016.33675        -3.00222         4.62950
     2016.33949        -0.70542         4.62521
     2016.34223        -5.79562         4.59520
     2016.34496        -1.71182         4.68438
     2016.34770        -6.30502         4.63121
     2016.35044        -0.22422         4.76241
     2016.35318        -5.82942         4.53261
     2016.35592        -7.42662         4.53603
     2016.35865       -11.81882         4.54289
     2016.36139       -10.38002         4.52317
     2016.36413        -3.22022         4.55404
     2016.36687         2.61558         4.62521
     2016.36961         5.92038         4.52660
     2016.37234         4.11918         4.51031
     2016.37508        -2.99902         4.51631
     2016.37782       -11.96322         4.56090
     2016.38056        -4.62642         4.58234
     2016.38329        -0.91962         4.51889
     2016.38603        -3.18482         4.53946
     2016.38877         1.35798         4.52660
     2016.39151        -2.37723         4.51631
     2016.39425        -6.56943         4.53261
     2016.39698         1.01637         4.57548
     2016.39972         0.17617         4.54804
     2016.40246        -3.98903         4.57891
     2016.40520        -4.27523         4.49059
     2016.40794        -7.42843         4.57548
     2016.41067        -5.21263         4.53518
     2016.41341        -3.14983         4.53603
     2016.41615       -11.82703         4.56262
     2016.41889       -10.93123         4.54461
     2016.42162        -2.42043         4.56004
     2016.42436        -5.14263         4.57462
     2016.42710        -3.08683         4.57977
     2016.42984        -6.73603         4.58405
     2016.43258        -5.82323         4.54289
     2016.43531         1.00757         4.60892
     2016.43805        -1.12263         4.53518
     2016.44079        -8.80483         4.56004
     2016.44353        -2.84103         4.52146
     2016.44626        -5.50523         4.53689
     2016.44900        -6.05543         4.54718
     2016.45174        -7.25463         4.54032
     2016.45448         0.67917         4.52146
     2016.45722         0.44497         4.55919
     2016.45995         6.26977         4.53689
     2016.46269        -3.75143         4.56262
     2016.46543        -0.92663         4.50945
     2016.46817        -3.36083         4.52575
     2016.47091         3.12097         4.53603
     2016.47364        -1.80823         4.57291
     2016.47638         4.84757         4.63379
     2016.47912        -2.86663         4.57977
     2016.48186         0.57417         4.51374
     2016.48459         2.65897         4.55147
     2016.48733        -0.16023         4.51889
     2016.49007        -2.17143         4.53861
     2016.49281         3.73537         4.52060
     2016.49555         0.30417         4.51974
     2016.49828        -2.10403         4.56090
     2016.50102        -3.68323         4.57376
     2016.50376         1.12457         4.71696
     2016.50650         3.00037         4.68781
     2016.50924         1.47817         4.57805
     2016.51197        -6.17703         4.56862
     2016.51471        -3.55523         4.60292
     2016.51745        -3.56143         4.73325
     2016.52019        -5.50163         4.60721
     2016.52292        -6.14083         4.56433
     2016.52566        -3.76803         4.53775
     2016.52840         1.18377         4.54204
     2016.53114        -1.79343         4.51546
     2016.53388        -1.02963         4.50860
     2016.53661        -0.79883         4.51974
     2016.53935        -2.28603         4.50259
     2016.54209         1.60777         4.47944
     2016.54483         1.72456         4.49659
     2016.54757        -2.62464         4.51889
     2016.55030         2.88516         4.61749
     2016.55304         5.10496         4.56176
     2016.55578         0.79076         4.58920
     2016.55852         0.19756         4.50688
     2016.56125         1.82536         4.51203
     2016.56399         4.52316         4.51717
     2016.56673         4.39996         4.63550
     2016.56947         0.47776         4.64493
     2016.57221         3.24556         4.49659
     2016.57494         2.45136         4.57719
     2016.57768         7.70916         4.51460
     2016.58042         2.13196         4.51374
     2016.58316        -3.46424         4.47430
     2016.58590         2.15056         4.51631
     2016.58863        -2.02164         4.48630
     2016.59137         2.68316         4.48887
     2016.59411         7.19696         4.53089
     2016.59685         6.63576         4.53861
     2016.59958        -0.96944         4.56776
     2016.60232         2.86236         4.52317
     2016.60506        -2.29384         4.57205
     2016.60780         8.20696         4.59777
     2016.61054         1.93376         4.49659
     2016.61327         1.71156         4.57719
     2016.61601        -1.88564         4.51117
     2016.61875        -0.47984         4.50945
     2016.62149         2.24296         4.46143
     2016.62423         2.78676         4.53861
     2016.62696         7.75656         4.52146
     2016.62970         1.14336         4.52146
     2016.63244        -4.89284         4.63722
     2016.63518         7.33996         4.47687
     2016.63791         6.04076         4.53946
     2016.64065         5.97156         4.53003
     2016.64339         4.89836         4.51803
     2016.64613         5.54616         4.51288
     2016.64887         2.92496         4.52232
     2016.65160         3.81076         4.56690
     2016.65434         0.03356         4.47001
     2016.65708         0.72836         4.53003
     2016.65982         0.06716         4.50860
     2016.66256         2.97096         4.59520
     2016.66529        -0.64124         4.57291
     2016.66803         1.57256         4.51460
     2016.67077         5.95936         4.58663
     2016.67351         5.44916         4.49488
     2016.67624         8.00196         4.52317
     2016.67898         5.12276         4.49916
     2016.68172         6.79656         4.51374
     2016.68446         7.67336         4.68095
     2016.68720         5.36416         4.74269
     2016.68993         4.25896         4.60206
     2016.69267         3.79876         4.49059
     2016.69541         9.14356         4.56347
     2016.69815         6.31236         4.47858
     2016.70089         4.57415         4.48973
     2016.70362         6.60995         4.60549
     2016.70636         1.74075         4.72039
     2016.70910         2.22955         4.82243
     2016.71184         9.99335         4.52832
     2016.71457         9.54015         4.56004
     2016.71731         8.89995         4.50860
     2016.72005         9.01175         4.49659
     2016.72279         4.98355         4.47515
     2016.72553         4.98335         4.61064
     2016.72826         1.08415         4.68609
     2016.73100         6.95095         4.47087
     2016.73374         4.14775         4.50345
     2016.73648        11.23255         4.49831
     2016.73921         6.23935         4.56948
     2016.74195         7.87815         4.58148
     2016.74469         1.62495         4.53861
     2016.74743        16.80475         4.56004
     2016.75017         5.88955         4.58577
     2016.75290        13.18335         4.59520
     2016.75564         8.42715         4.55404
     2016.75838         6.54595         4.52660
     2016.76112        10.24275         4.64150
     2016.76386         4.04655         4.52317
     2016.76659         3.81735         4.62264
     2016.76933         3.92015         4.54890
     2016.77207         6.33695         4.50517
     2016.77481         9.87675         4.54547
     2016.77754         9.29455         4.51031
     2016.78028        -1.92465         4.52489
     2016.78302         3.26915         4.58062
     2016.78576         9.52695         4.69381
     2016.78850         9.41275         4.74783
     2016.79123         6.01055         4.59863
     2016.79397        15.69335         4.56605
     2016.79671         6.53915         4.56948
     2016.79945        -1.78805         4.52832
     2016.80219         2.71175         4.58062
     2016.80492         0.26555         4.63293
     2016.80766         6.36935         4.52575
     2016.81040         2.72915         4.64579
     2016.81314         1.23395         4.59520
     2016.81587        -2.70825         4.61749
     2016.81861         0.72955         4.58234
     2016.82135         4.18735         4.53003
     2016.82409         3.52115         4.55147
     2016.82683         1.10995         4.57805
     2016.82956         6.74075         4.53175
     2016.83230         0.36855         4.58405
     2016.83504         1.90535         4.52832
     2016.83778        -2.37085         4.64493
     2016.84052        -2.17305         4.56262
     2016.84325         2.15775         4.56090
     2016.84599        -0.00445         4.58234
     2016.84873         8.87335         4.59091
     2016.85147        -6.58385         4.55833
     2016.85420        -4.19806         4.61664
     2016.85694         6.04174         4.74955
     2016.85968         1.12054         4.66551
     2016.86242        -5.84166         4.63379
     2016.86516        16.54014         4.83272
     2016.86789         5.82894         4.62693
     2016.87063         2.59274         4.73154
     2016.87337        13.60654         4.75212
     2016.87611         5.27234         4.60721
     2016.87885        -1.21586         4.50174
     2016.88158        -3.85306         4.61407
     2016.88432         5.78074         4.63207
     2016.88706         3.78954         4.65008
     2016.88980         0.40934         4.57805
     2016.89253         2.68914         4.54718
     2016.89527         2.48794         4.59949
     2016.89801        -3.48626         4.54718
     2016.90075        -0.62946         4.53775
     2016.90349         2.54534         4.65951
     2016.90622         2.66314         4.63121
     2016.90896         1.63994         4.60463
     2016.91170        -3.14126         4.54975
     2016.91444        -4.35346         4.57891
     2016.91718        -3.10766         4.63036
     2016.91991        -6.32286         4.63036
     2016.92265        -3.32806         4.63207
     2016.92539        -8.21126         4.64065
     2016.92813        -5.33546         4.58062
     2016.93086        -0.32666         4.59177
     2016.93360        -7.60586         4.54204
     2016.93634        -1.31606         4.58234
     2016.93908        -4.83326         4.67237
     2016.94182         3.50654         4.58234
     2016.94455       -10.39066         4.62521
     2016.94729         0.48614         4.63207
     2016.95003        -3.45306         4.60635
     2016.95277        -0.84826         4.62864
     2016.95551        -2.87946         4.56090
     2016.95824         0.66934         4.53261
     2016.96098         0.37714         4.54032
     2016.96372        -6.01806         4.53518
     2016.96646         1.65774         4.55404
     2016.96919         0.85154         4.62350
     2016.97193        -5.74466         4.56605
     2016.97467         0.19014         4.60206
     2016.97741         1.17894         4.61492
     2016.98015         4.10074         4.58577
     2016.98288         1.06054         4.55061
     2016.98562        -5.25166         4.59006
     2016.98836        -2.82686         4.63464
     2016.99110         2.44894         4.59692
     2016.99384        -1.16426         4.57891
     2016.99657         3.60854         4.60806
     2016.99931        -1.53866         4.53346
     2017.00205         1.12914         4.59006
     2017.00479        -8.13506         4.57119
     2017.00752        -5.03827         4.54718
     2017.01026        -7.23247         4.51374
     2017.01300         1.32533         4.49316
     2017.01574        -3.71487         4.48973
     2017.01848        -2.42107         4.55833
     2017.02121         1.68773         4.59434
     2017.02395        -1.25647         4.66380
     2017.02669        -3.64867         4.64665
     2017.02943        -0.69387         4.59434
     2017.03216        -3.40807         4.51803
     2017.03490        -3.71427         4.53432
     2017.03764        -7.37247         4.54032
     2017.04038        -1.97067         4.53346
     2017.04312        -2.37487         4.51546
     2017.04585         3.14993         4.78213
     2017.04859        -5.89127         4.90989
     2017.05133         5.73853         4.64493
     2017.05407         5.10733         4.59006
     2017.05681         6.01613         4.57376
     2017.05954        -5.43807         4.57376
     2017.06228        -6.54127         4.56347
     2017.06502        -4.12047         4.52317
     2017.06776        -4.90267         4.59520
     2017.07049        -6.13187         4.51889
     2017.07323        -9.14507         4.51460
     2017.07597       -11.86827         4.52918
     2017.07871        -8.04547         4.58062
     2017.08145        -7.83867         4.58920
     2017.08418        -8.92887         4.57205
     2017.08692        -5.36407         4.51889
     2017.08966        -8.86027         4.63379
     2017.09240         3.47753         4.66294
     2017.09514         5.14833         4.64150
     2017.09787         2.47113         4.57719
     2017.10061         2.46193         4.55661
     2017.10335        -8.33927         4.65780
     2017.10559       -11.03925         5.97573
     2017.11263       -11.78534         9.73232
     2017.11430        -8.47807         4.53946
     2017.11704       -12.98227         4.50431
     2017.11978       -12.36547         4.52575
     2017.12251        -7.19667         4.60378
     2017.12525        -1.61987         4.67923
     2017.12799        -7.02207         4.59177
     2017.13073         1.00673         4.53603
     2017.13347        -5.26647         4.50174
     2017.13620       -12.52967         6.39932
     2017.13894       -12.66587         4.71267
     2017.14100        -2.59478         6.61198
     2017.14551        -3.92076        11.19089
     2017.14715       -11.92847         6.22869
     2017.14989       -10.10467         4.53003
     2017.15263        -3.99387         4.56948
     2017.15537        -0.98707         4.58320
     2017.15811        -0.55027         4.69467
     2017.16084        -4.73147         4.54289
     2017.16358       -10.67368         4.56433
     2017.16632        -5.86688         4.57205
     2017.16906        -7.89008         4.64836
     2017.17180        -0.71628         4.59349
     2017.17453        -8.36048         4.57634
     2017.17727       -18.91168         4.63121
     2017.18001       -14.08788         6.02718
     2017.18275        -5.93508         6.98584
     2017.18548        -5.17328         4.54032
     2017.18822       -14.82548         4.72125
     2017.19096        -6.01068         4.62435
     2017.19370       -10.10088         4.55318
     2017.19644       -19.73708         4.60378
     2017.19917        -1.32528         4.64836
     2017.20191         3.71152         4.71096
     2017.20465        -8.53668         4.62178
     2017.20739        -6.97988         4.64751
     2017.21013         5.76792         4.62864
     2017.21286        -9.17628         4.58748
     2017.21560        -5.99748         4.61064
     2017.21834         9.79132         4.60378
     2017.22108         7.09712         4.58320
     2017.22381        -6.07608         4.66123
     2017.22655        -2.27328         4.67580
     2017.22929        -9.78548         4.54375
     2017.23203       -10.96968         4.59263
     2017.23477        -8.48388         4.57891
     2017.23750        -8.99408         4.60635
     2017.24024        -8.15228         4.62950
     2017.24298        -9.46448         4.56347
     2017.24572       -10.88768         4.53432
     2017.24846       -12.54588         4.60549
     2017.25119        -6.42308         4.57376
     2017.25393        -7.67528         4.56176
     2017.25667        -7.80548         4.59520
     2017.25941        -4.66668         4.64236
     2017.26214         6.31012         4.64751
     2017.26488        -4.73008         4.73668
     2017.26762        -3.41628         4.64150
     2017.27036        -1.20548         4.59177
     2017.27310        -7.53968         4.58748
     2017.27583        -7.94088         4.54032
     2017.27857        -3.38508         4.59434
     2017.28131       -13.29328         4.61321
     2017.28405       -17.61648         4.58663
     2017.28679       -12.79168         4.53775
     2017.28952        -9.39188         4.73668
     2017.29226        -8.40208         4.68781
     2017.29500        -2.39028         4.70238
     2017.29774       -14.39448         4.57205
     2017.30047       -14.20168         4.60806
     2017.30321        -7.12888         4.54547
     2017.30595        -2.46208         4.66466
     2017.30869        -8.73528         4.56862
     2017.31143        -5.83248         4.56690
     2017.31416       -13.26868         4.54204
     2017.31690        -8.00089         4.63293
     2017.31964       -12.37209         4.63807
     2017.32238       -14.26029         4.62092
     2017.32512       -16.78449         4.54890
     2017.32785       -14.25369         4.53175
     2017.33059       -16.27589         4.54718
     2017.33333       -12.48909         4.51374
     2017.33607        -7.77829         4.52146
     2017.33880       -10.86049         4.55833
     2017.34154        -6.04869         4.70153
     2017.34428       -10.68689         4.53518
     2017.34702       -10.23209         4.50345
     2017.34976        -8.17229         4.53603
     2017.35249       -11.85849         4.49916
     2017.35523        -7.30769         4.58062
     2017.35797        -6.48589         4.63379
     2017.36071        -5.75609         4.63722
     2017.36344        -7.61729         4.52575
     2017.36618       -11.52749         4.49659
     2017.36892        -4.08369         4.54547
     2017.37166        -9.58989         4.54118
     2017.37440        -7.97409         4.52489
     2017.37713       -11.83529         4.60463
     2017.37987       -13.61749         4.58234
     2017.38261        -9.44469         4.53603
     2017.38535        -5.66489         4.57462
     2017.38809        -3.11209         4.54461
     2017.39082       -11.55829         4.49745
     2017.39356        -3.95949         4.56519
     2017.39630        -3.19169         4.49916
     2017.39904        -9.77989         4.53603
     2017.40177        -6.51009         4.49831
     2017.40451        -6.34829         4.52575
     2017.40725        -4.11349         4.53861
     2017.40999        -2.58369         4.57977
     2017.41273        -4.74789         4.58062
     2017.41546        -0.71309         4.56262
     2017.41820        -2.99229         4.62950
     2017.42094        -7.04049         4.51631
     2017.42368        -5.38269         4.51889
     2017.42642        -8.36389         4.52832
     2017.42915        -4.76709         4.54375
     2017.43189       -10.22129         4.62778
     2017.43463        -2.36549         4.60549
     2017.43737        -5.62569         4.51974
     2017.44010        -3.73289         4.58748
     2017.44284        -1.62009         4.57719
     2017.44558        -1.35129         4.55061
     2017.44832         1.08951         4.50860
     2017.45106         0.62331         4.51117
     2017.45379         4.45811         4.65008
     2017.45653         3.35591         4.73754
     2017.45927        -4.77929         4.58663
     2017.46201         0.58051         4.56176
     2017.46475         0.01831         4.53261
     2017.46748        -2.17989         4.66980
     2017.47022         0.17690         4.60635
     2017.47296        -4.59530         4.61664
     2017.47570        -5.83150         4.54375
     2017.47843        -3.26370         4.57462
     2017.48117        -3.83690         4.54890
     2017.48391         7.25190         4.72382
     2017.48665        -0.41330         4.57977
     2017.48939        -2.76350         4.54375
     2017.49212        -1.24470         4.53261
     2017.49486        -1.70990         4.53603
     2017.49760        -5.09110         4.54032
     2017.50034         1.80470         4.56262
     2017.50308         2.06250         4.53261
     2017.50581        -0.30270         4.57119
     2017.50855        -6.86590         4.54289
     2017.51129        -4.62610         4.59263
     2017.51403        -1.88030         4.58748
     2017.51676        -8.16850         4.57891
     2017.51950        -4.47770         4.65179
     2017.52224        -0.24490         4.54289
