# ================= DQRFIT RESULTS ================
# INPUT FILE: series/P379.rad
# OUTPUT: LDETRENDED
# FILTER FUNCTION: f(t)
# f(t)=+line(t)+annual(t)
# line(t)=+P 1+P 2*t
# annual(t)=+P 3*sin(2*pi*t+P 4)
# heav(t)=(t<0?0:1)
# TOTAL OBSERVATIONS MTOT= 2752
# INITIAL TIME INTERVAL= 2014.8282 - 2006.4011 =  8.4271
# TOTAL OBSERVATIONS AFTER PREFILTER M= 2729
# TIME-SPAN= 2014.8282 - 2006.4011 =  8.4271
# OBSERVATIONS: USED M=  2729 REJECTED MTOT-M=    23 %USED=   99.1642
# N=  4 PARAMETERS
# MAXSIG= 175.00000
# MAXRES=  25.71976
# SCALE FACTOR FOR LENGTHS: SCL=  10.00000
# SCALE FACTOR FOR SIGMAS: SCLSIG=   1.00000
# CHI^2=   2258.210 DOF=  2725 CHI^2/DOF=   0.82870
# RMS=      5.286 SDEV=      5.287 MEAN=    0.07662
#  P #       PARAMETER +-    SIGMA %error PARAMETER NAME
# P 1 =      1605.98437 +-   77.005   4.79 YZERO                              
# P 2 =        -0.79653 +-    0.038   4.81 SLOPE                              
# P 3 =         5.24283 +-    0.137   2.61 ANNUAL AMPLITUDE                   
# P 4 =         3.02807 +-    0.037   1.21 ANNUAL PHASE                       
#       T            LDETRENDED       SIG_OBS
     2006.40109        -0.94533         5.18160
     2006.40383         0.22285         5.19343
     2006.40657        -1.81897         5.19525
     2006.40930        -2.88179         5.21073
     2006.41204        -1.33060         5.23895
     2006.41478        -2.55242         5.28265
     2006.41752         1.24676         5.46471
     2006.42026        -0.34706         5.30540
     2006.42299        -2.19288         5.32270
     2006.42573        -0.97570         5.28447
     2006.42847         1.40348         5.33180
     2006.43121        -0.74834         5.31906
     2006.43394        -2.01616         5.15975
     2006.43668        -6.03098         5.14610
     2006.43942         1.35320         5.15247
     2006.44216         2.93438         5.28083
     2006.44490         4.93056         5.19161
     2006.44763        -1.22925         5.16703
     2006.45037        -1.33207         5.17432
     2006.45311         0.34811         5.14155
     2006.45585        -0.88271         5.22712
     2006.45859         4.32147         5.15884
     2006.46132        -1.03335         5.28083
     2006.46406        -1.06017         5.28629
     2006.46680         3.68401         5.27536
     2006.46954        -1.25681         5.23349
     2006.47227         2.51037         5.30723
     2006.47501         6.08955         5.28356
     2006.47775         0.49373         5.29630
     2006.48049        -5.34809         5.29812
     2006.48323         0.35910         5.26626
     2006.48596         5.75628         5.31633
     2006.48870         2.78946         5.32816
     2006.49144         8.48464         5.23895
     2006.49418         4.87382         5.32088
     2006.49692         4.16200         5.21619
     2006.49965         3.06418         5.22074
     2006.50239         2.98036         5.28811
     2006.50513        -0.72846         5.33180
     2006.50787        -1.44328         5.25078
     2006.51060         1.33190         5.23167
     2006.51334        -5.20492         5.24441
     2006.51608         3.71926         5.22985
     2006.51882         2.92645         5.24532
     2006.52156         1.51963         5.27627
     2006.52429         3.33581         5.24532
     2006.52703         0.56399         5.33818
     2006.52977         4.63917         5.26899
     2006.53251         0.83535         5.26717
     2006.53525         4.47853         5.24259
     2006.53798         1.69771         5.22165
     2006.54072         6.71489         5.35456
     2006.54346         8.48707         5.07873
     2006.54620         1.53225         5.11424
     2006.54893         3.50843         5.12516
     2006.55167         0.01862         5.12880
     2006.55441         2.71080         5.10331
     2006.55715         6.36998         5.12698
     2006.55989         7.26616         5.20982
     2006.56262         8.00334         5.11150
     2006.56536         9.22252         5.05688
     2006.56810         4.31470         5.10604
     2006.57084         4.21588         5.12607
     2006.57357         3.20206         5.11059
     2006.57631         3.94524         5.11241
     2006.57905         3.69142         5.07600
     2006.58179         2.82260         5.09148
     2006.58453         7.41678         5.22347
     2006.58726         7.56797         5.24714
     2006.59000         6.23515         5.37914
     2006.59274         3.96033         5.29175
     2006.59548         3.56151         5.24987
     2006.59822         6.59269         5.28629
     2006.60095        -0.47613         5.16612
     2006.60369         4.66805         5.22165
     2006.60643         1.02423         5.15793
     2006.60917         4.59741         5.15247
     2006.61190         2.47159         5.09876
     2006.61464         6.70277         5.07145
     2006.61738         9.84295         5.11424
     2006.62012         5.72113         5.19434
     2006.62286         3.52232         5.12880
     2006.62559         3.68750         5.08510
     2006.62833         7.80268         5.25625
     2006.63107         4.12986         5.09512
     2006.63381         9.69104         5.12880
     2006.63655         7.50722         5.17796
     2006.63928         5.64940         5.14792
     2006.64202         8.56558         5.16157
     2006.64476        11.31876         5.18160
     2006.64750        14.28194         5.28902
     2006.65023         9.93912         5.41920
     2006.65297         6.06930         5.44013
     2006.65571         7.01348         5.41191
     2006.65845         6.03367         5.40645
     2006.66119         9.15185         5.43740
     2006.66392         4.74603         5.43558
     2006.66666         4.94621         5.40827
     2006.66940         5.00539         5.39007
     2006.67214         7.27457         5.40281
     2006.67488         6.75475         5.52479
     2006.67761         4.61393         5.53663
     2006.68035         6.22411         5.45106
     2006.68309        12.63429         5.58761
     2006.68583        11.38047         5.64041
     2006.68856        16.14065         5.32907
     2006.69130         9.09184         5.31360
     2006.69404        11.33802         5.30085
     2006.69678         9.02020         5.27263
     2006.69952        12.63038         5.30814
     2006.70225        15.62256         5.45470
     2006.70499         7.48274         5.23986
     2006.70773        10.86592         5.16703
     2006.71047        11.58710         5.17614
     2006.71321         8.92528         5.24441
     2006.71594        11.78846         5.17250
     2006.71868         5.97264         5.19161
     2006.72142        11.06882         5.36184
     2006.72416         9.41700         5.40554
     2006.72689         9.70919         5.26444
     2006.72963        15.46737         5.27900
     2006.73237        10.97555         5.15975
     2006.73511        10.72873         5.19434
     2006.73785         4.24491         5.22165
     2006.74058         9.29009         5.19343
     2006.74332        16.09627         5.22803
     2006.74606        16.18245         5.24259
     2006.74880         7.96963         5.21619
     2006.75154         9.97781         5.35365
     2006.75427         8.65099         5.35456
     2006.75701         9.64117         5.23713
     2006.75975        12.39535         5.19890
     2006.76249         4.54054         5.26535
     2006.76522        10.91072         5.30085
     2006.76796         3.97790         5.29084
     2006.77070         7.13008         5.22256
     2006.77344        11.44126         5.17887
     2006.77618        14.01844         5.20163
     2006.77891        14.47062         5.16248
     2006.78165        11.25180         5.09330
     2006.78439        11.44998         5.16157
     2006.78713        17.41816         5.32088
     2006.78987         9.06034         5.19070
     2006.79260        10.31252         5.12880
     2006.79534         6.13770         5.18251
     2006.79808         2.09289         5.18524
     2006.80082         9.07607         5.30540
     2006.80355         8.21625         5.17250
     2006.80629         9.95643         5.15702
     2006.80903         7.53261         5.13335
     2006.81177        12.53679         5.19708
     2006.81451         3.38197         5.29994
     2006.81724         4.20315         5.26808
     2006.81998         5.60933         5.12971
     2006.82272         6.17951         5.10968
     2006.82546         9.29769         5.14246
     2006.82820         7.26787         5.10240
     2006.83093         9.48506         5.13062
     2006.83367         9.19224         5.13790
     2006.83641         6.18342         5.14883
     2006.83915         7.32160         5.18706
     2006.84188         6.50378         5.35183
     2006.84462         1.01996         5.22894
     2006.84736         2.19614         5.24987
     2006.85010         4.43332         5.28447
     2006.85284         3.46850         5.44924
     2006.85557         8.58268         5.36640
     2006.85831         3.38786         5.25534
     2006.86105         3.74904         5.37550
     2006.86379         0.19622         5.38642
     2006.86653         6.56741         5.37641
     2006.86926        10.56659         5.12243
     2006.87200         5.70877         5.15338
     2006.87474         4.81595         5.13426
     2006.87748         2.93713         5.13062
     2006.88021         1.86431         5.15065
     2006.88295         0.66749         5.16885
     2006.88569        -1.17633         5.10422
     2006.88843         4.34485         5.11879
     2006.89117         2.08503         5.09694
     2006.89390        -2.10379         5.24714
     2006.89664        10.06739         5.25807
     2006.89938        25.09057         5.08784
     2006.90485         9.55394         5.14155
     2006.90759        17.18012         5.13517
     2006.91033        15.22530         5.15065
     2006.91307         4.28848         5.15429
     2006.91581        -4.40834         5.09603
     2006.91854        -5.32216         5.11515
     2006.92128        -2.77298         5.08966
     2006.92402        -3.08680         5.10877
     2006.92676        -3.56962         5.18615
     2006.92950        -0.24044         5.19981
     2006.93223         2.00574         5.08693
     2006.93497         5.77392         5.25443
     2006.93771        -1.23489         5.15520
     2006.94045         8.10029         5.16066
     2006.94318         0.55347         5.21983
     2006.94592        -1.70935         5.14610
     2006.94866        -0.63517         5.17705
     2006.95140         3.22801         5.10513
     2006.95414        14.21819         5.24077
     2006.95687         5.08237         5.12880
     2006.95961        -2.61145         5.13153
     2006.96235         0.21973         5.13608
     2006.96509         0.92791         5.21619
     2006.96783         1.48209         5.17705
     2006.97056         0.50728         5.11059
     2006.97330        -2.83454         5.14337
     2006.97604         0.26764         5.20436
     2006.97878         0.40082         5.15156
     2006.98151        -2.16300         5.16794
     2006.98425        -0.67082         5.19070
     2006.98699         8.07836         5.30358
     2006.98973        -1.47146         5.23986
     2006.99247        -8.97128         5.37095
     2006.99520        -2.16310         5.32543
     2006.99794        -1.54592         5.28993
     2007.00342         7.10644         5.27627
     2007.00616        -1.40037         5.19434
     2007.00889        -1.84419         5.18524
     2007.01163        -1.69501         5.17068
     2007.01437        12.65717         5.26262
     2007.01711        -4.11565         5.24532
     2007.01984       -15.59647         5.22347
     2007.02258        -5.66529         5.06417
     2007.02532        -2.17711         5.07600
     2007.02806        -0.39393         5.14883
     2007.03080        -1.63075         4.96585
     2007.03353       -10.31157         4.99407
     2007.03627        -9.53239         4.93217
     2007.03901       -10.55021         4.92853
     2007.04175        -9.27502         4.99862
     2007.04449        -8.15084         4.89576
     2007.04722       -14.21766         5.01228
     2007.04996        -6.32048         5.08328
     2007.05270        -4.86430         5.07873
     2007.05544        -3.50912         4.90850
     2007.05817        -8.88394         4.89029
     2007.06091        -6.95176         4.91669
     2007.06365        -4.58358         4.88665
     2007.06639        -5.23540         5.02775
     2007.06913        -3.19522         4.88847
     2007.07186        -0.56804         4.86298
     2007.07460        -4.06186         4.86936
     2007.07734        -6.80167         4.85661
     2007.08008        -4.37349         4.90395
     2007.08282        -1.23631         4.86845
     2007.08555        -2.20913         4.97040
     2007.08829        -3.41695         4.96494
     2007.09103         4.79723         4.98679
     2007.09377        -3.42759         4.87482
     2007.09650        -3.53141         4.87209
     2007.09924        -1.76223         4.89485
     2007.10198        -1.41805         4.88665
     2007.10472        -1.87787         4.99953
     2007.10746        -5.05769         4.97769
     2007.11019        -4.38551         4.88119
     2007.11293         1.04968         4.86845
     2007.11567        -4.76614         4.89120
     2007.11841        -1.46196         4.91578
     2007.12115        -5.79178         4.88392
     2007.12388        -7.94160         4.90122
     2007.12662        -8.15042         4.90486
     2007.12936        -1.93424         5.03048
     2007.13210        -1.08306         4.92489
     2007.13483         5.80812         4.92944
     2007.13757        -4.72270         4.95584
     2007.14031        -2.67452         4.92671
     2007.14305        -4.69234         4.95038
     2007.14579        -6.78915         4.97586
     2007.14852        -0.42397         5.04778
     2007.15126         5.31121         4.95402
     2007.15400        11.10039         4.94127
     2007.15674        17.42357         4.95675
     2007.15948        11.92175         4.95311
     2007.16769        -2.36071         5.07782
     2007.17043        -6.63653         5.05688
     2007.17316        -2.16635         5.06781
     2007.17590        -2.90717         5.06235
     2007.17864         0.15001         5.07964
     2007.18138        -2.84280         5.04778
     2007.18412         0.27638         5.02502
     2007.18685        -1.39344         5.15520
     2007.18959        -4.73326         5.05688
     2007.19233        -7.23408         5.05962
     2007.19507        -2.58990         4.93945
     2007.19780        -3.83972         4.93854
     2007.20054        -7.01354         5.00409
     2007.20328        -4.13136         5.02684
     2007.20602        -4.42318         4.98588
     2007.20876        -2.37100         4.99771
     2007.21149        -8.27182         4.94582
     2007.21423        -1.45664         4.98042
     2007.21697        -3.09845         5.00044
     2007.21971         1.14073         4.98315
     2007.22245        -2.58109         4.96676
     2007.22518         1.31009         4.95220
     2007.22792         0.08827         4.92398
     2007.23066         2.02145         4.97313
     2007.23340        -1.75737         5.06417
     2007.23613       -12.18419         5.02320
     2007.23887        -5.92301         4.92489
     2007.24161        -5.86183         4.92853
     2007.24435        -3.72665         4.95311
     2007.24709        -1.12847         4.96858
     2007.24982        -3.70029         4.93490
     2007.25256        -4.51410         4.97222
     2007.25530        -7.06592         4.95129
     2007.25804        -3.03274         4.99225
     2007.26078        -1.49756         5.01683
     2007.26351         1.70562         4.96676
     2007.26625         3.12580         4.97040
     2007.26899         0.65798         4.92125
     2007.27173         2.01516         4.99316
     2007.27446         5.12934         4.95493
     2007.27720         6.40452         4.92580
     2007.27994         0.77070         4.92762
     2007.28268         4.62388         4.94856
     2007.28542         0.13007         4.92307
     2007.28815         3.97125         4.96039
     2007.29089        -2.96957         4.94218
     2007.29363         1.06861         4.94400
     2007.29637        -3.55421         4.93945
     2007.29911        -0.15603         4.92398
     2007.30184         3.25215         4.90031
     2007.30458         1.10233         4.88938
     2007.30732         0.69651         4.99953
     2007.31006        -0.30031         5.10513
     2007.31279         0.98087         5.02320
     2007.31553        -0.40995         4.92216
     2007.31827        -1.71077         4.93217
     2007.32101        -4.40358         4.93399
     2007.32375        -1.89840         4.96676
     2007.32648         3.05678         4.97222
     2007.32922        -0.77404         4.96767
     2007.33196        -3.97686         5.09876
     2007.33470        -4.33668         5.07600
     2007.33744        -2.07250         4.95857
     2007.34017        -2.65232         4.96403
     2007.34291        -5.29714         4.97040
     2007.34565        -4.99696         4.95948
     2007.34839        -1.20578         4.98133
     2007.35112        -3.32460         4.96676
     2007.35386        -4.49442         5.28174
     2007.35660        -5.08323         5.31269
     2007.35934        -0.76605         5.05415
     2007.36208        -5.37387         5.02320
     2007.36481        -4.55669         5.09967
     2007.36755         0.69049         5.03504
     2007.37029        -2.26233         5.03777
     2007.37303         1.12985         5.18160
     2007.37577        -5.20497         5.18615
     2007.37850        -5.35579         5.03959
     2007.38124        -5.73861         5.03231
     2007.38398        -2.65143         5.04141
     2007.38672        -7.17825         5.02502
     2007.38945        -3.62707         5.07236
     2007.39219        -4.07688         5.14883
     2007.39493        -3.00770         5.04596
     2007.39767        -6.23252         4.98679
     2007.40041         1.13766         5.01774
     2007.40314        -7.15516         4.95129
     2007.40588        -1.06898         4.97131
     2007.40862         1.72420         5.01137
     2007.41136        -4.12762         4.93490
     2007.41410        -1.91044         4.97860
     2007.41683        -4.31826         4.96585
     2007.41957         0.01492         5.00135
     2007.42231         4.09810         5.04050
     2007.42505         1.85029         5.07691
     2007.42778         2.31347         4.95675
     2007.43052        -0.83635         4.99134
     2007.43326        -1.24517         4.94947
     2007.43600        -1.16699         4.97495
     2007.43874         2.82419         5.01956
     2007.44147        -3.16563         5.04141
     2007.44421        -5.26945         5.03868
     2007.44695        -8.04827         5.00135
     2007.44969        -7.29609         4.93308
     2007.45243        -4.70491         4.91760
     2007.45516        -5.12073         4.92944
     2007.45790        -3.21955         4.95675
     2007.46064        -1.00436         4.97586
     2007.46338         1.87082         4.93126
     2007.46611        -0.10500         4.93399
     2007.46885        -1.43782         5.01410
     2007.47159        -0.39464         4.96403
     2007.47433        -5.15846         4.94127
     2007.47707        -6.70728         5.14792
     2007.47980       -10.64910         4.93126
     2007.48254        -7.47292         4.93308
     2007.48528        -6.00974         4.95675
     2007.48802        -4.71956         5.05779
     2007.49076        -5.38638         5.01410
     2007.49349        -8.27320         4.93217
     2007.49623        -4.62401         4.94582
     2007.49897        -2.38083         5.03959
     2007.50171       -12.83365         4.93763
     2007.50444        -6.82947         4.95402
     2007.50718        -6.01529         4.96585
     2007.50992        -5.26811         4.96130
     2007.51266        -4.22793         5.01319
     2007.51540        -3.10575         5.05324
     2007.51813        -2.37457         4.94218
     2007.52087        -2.94139         4.99771
     2007.52361        -5.34921         5.06599
     2007.52635         0.81197         5.13244
     2007.52908        -5.05785         5.12334
     2007.53182         1.01734         5.15338
     2007.53456        -1.33948         5.01319
     2007.53730         2.39570         5.02593
     2007.54004         3.99488         5.15429
     2007.54277         1.46806         5.13062
     2007.54551        -2.66276         5.09421
     2007.54825         3.43142         5.07145
     2007.55099        -1.84340         5.06781
     2007.55373         0.89778         5.08875
     2007.55646         0.71896         5.06508
     2007.55920         8.28314         5.04960
     2007.56193         5.64832         5.07782
     2007.56471         4.30653         5.14063
     2007.56741        -0.68031         5.04778
     2007.57015         1.48087         5.07236
     2007.57289         1.85305         5.07509
     2007.57563        -1.00177         5.02866
     2007.57837         3.18741         5.03959
     2007.58110         3.12259         5.07964
     2007.58384         4.95277         5.11150
     2007.58658         1.74495         5.01228
     2007.58932        -0.92587         5.01865
     2007.59206         7.70431         5.01137
     2007.59479         8.59749         5.15702
     2007.59753         5.28267         5.16521
     2007.60027         4.53386         5.01592
     2007.60301         5.84804         4.98679
     2007.60574         4.04222         4.98952
     2007.60848         0.11140         5.11788
     2007.61122         2.83658         5.12789
     2007.61396        -0.61824         5.05597
     2007.61670         2.08594         5.28993
     2007.61943         7.80512         5.32270
     2007.62217         9.88430         5.24714
     2007.62491         3.39148         5.24168
     2007.62765         5.33966         5.37368
     2007.63039         7.06984         5.31360
     2007.63312         4.72402         5.18979
     2007.63586         3.77421         5.17432
     2007.63860         2.66339         5.20436
     2007.64134         8.60957         5.13153
     2007.64407        12.16175         5.35547
     2007.64681         4.48193         5.25261
     2007.64955        10.05911         5.37277
     2007.65229         5.85929         5.35729
     2007.65503         4.05147         5.29084
     2007.65776         8.47665         5.26262
     2007.66050         8.60683         5.29812
     2007.66324        12.93601         5.30631
     2007.66598         7.27019         5.22074
     2007.66872         7.64737         5.30358
     2007.67145         5.25856         5.24987
     2007.67419         4.06074         5.45834
     2007.67693         8.25992         5.26444
     2007.67967         6.63110         5.25807
     2007.68240        11.81328         5.26899
     2007.68514         9.31446         5.24714
     2007.68788         9.93564         5.27900
     2007.69062         9.60482         5.23713
     2007.69336         8.88300         5.24896
     2007.69609         8.20018         5.24350
     2007.69883        12.01336         5.21619
     2007.70157        12.71654         5.18433
     2007.70431        11.67173         5.35001
     2007.70705         7.57391         5.19252
     2007.70978         8.83909         5.31542
     2007.71252         9.01727         5.18342
     2007.71526        13.14345         5.03868
     2007.71800        13.07863         5.04141
     2007.72073        13.45381         5.03322
     2007.72347        12.00199         5.00773
     2007.72621        11.65217         5.01410
     2007.72895         6.77335         5.08237
     2007.73169        10.91553         5.10786
     2007.73442         9.42871         5.01501
     2007.73716         8.97989         5.13790
     2007.73990        15.07208         5.08875
     2007.74264        14.56826         5.07327
     2007.74538        11.30044         5.03868
     2007.74811         6.63862         5.17432
     2007.75085         9.86180         5.27081
     2007.75359        12.18598         5.26899
     2007.75633         8.81416         5.06235
     2007.75906        10.53834         5.07236
     2007.76180         7.68552         5.06235
     2007.76454         4.55670         4.98588
     2007.76728         9.08688         5.37095
     2007.77002        11.06606         5.38915
     2007.77275         4.41524         5.30540
     2007.77549         8.55743         5.05324
     2007.77823        10.51161         5.01956
     2007.78097         9.41979         4.96676
     2007.78371        10.63697         4.97495
     2007.78644         8.81615         5.00682
     2007.78918         6.25033         5.08055
     2007.79192         4.02551         5.18160
     2007.79466        18.41469         5.15884
     2007.79739        12.40887         5.13244
     2007.80013        12.08905         5.05506
     2007.80287         4.29723         5.01865
     2007.80561         6.04941         5.05779
     2007.80835         6.15459         5.13608
     2007.81108         8.04078         5.12516
     2007.81382         6.55296         5.11424
     2007.81656         6.45614         5.21528
     2007.81930         6.00332         5.12243
     2007.82203        -0.72850         5.12243
     2007.82477         2.53368         5.11788
     2007.82751         7.64786         5.18251
     2007.83025         5.19504         5.10604
     2007.83299         5.48322         4.99771
     2007.83572        -1.80860         5.03140
     2007.83846         3.85158         5.01319
     2007.84120         5.18576         5.05142
     2007.84394        -1.34106         5.07145
     2007.84668        -0.00987         5.04414
     2007.84941         4.03031         5.02320
     2007.85215         6.50649         5.23349
     2007.85489         6.89367         5.18433
     2007.85763        -0.65115         5.17159
     2007.86036        -2.53697         5.10877
     2007.86310         5.66721         5.09330
     2007.86584         5.01139         5.07691
     2007.86858         3.50257         5.08237
     2007.87132         1.54775         5.10604
     2007.87405         4.11193         5.10604
     2007.87679         4.76711         5.03959
     2007.87953         0.24130         5.03595
     2007.88227         2.70948         5.01592
     2007.88501         3.85266         5.02138
     2007.88774        -3.62316         5.03504
     2007.89048        -3.58398         5.02229
     2007.89322        -0.68480         5.14519
     2007.89596         2.04538         5.14246
     2007.89869         1.77156         5.05688
     2007.90143        -0.95926         5.05688
     2007.90417        -1.70608         5.11879
     2007.90691        -0.37990         5.04414
     2007.90965        -6.88972         5.07054
     2007.91238        -0.00754         5.06872
     2007.91512        -3.32035         5.09239
     2007.91786         6.04083         5.11241
     2007.92060        -7.67999         5.11879
     2007.92334        -8.50281         5.25352
     2007.92607        -2.37363         5.10877
     2007.92881         0.60655         5.21073
     2007.93155         0.17173         5.13608
     2007.93429        -1.78209         5.07873
     2007.93702        -4.13791         5.11788
     2007.93976        -4.48373         5.11059
     2007.94250        -0.52355         5.15975
     2007.94524         1.29863         5.25534
     2007.94798        -5.90019         5.16430
     2007.95071         0.84700         5.14610
     2007.95345         4.52118         5.17068
     2007.95619         0.72436         5.21710
     2007.95893         7.16754         5.22256
     2007.96167         4.57972         5.20618
     2007.96440         5.74990         5.19890
     2007.96714         5.03208         5.18251
     2007.96988         4.18726         5.16066
     2007.97262         0.41044         5.20618
     2007.97535       -10.29738         5.16339
     2007.97809        -0.45120         5.15975
     2007.98083         1.09798         5.17159
     2007.98357         6.66916         5.09876
     2007.98631        13.50735         5.23986
     2007.98904        14.91753         5.24441
     2007.99452        -2.98611         5.25078
     2007.99726         4.23107         5.09785
     2008.00000        -7.04175         5.08328
     2008.00273        -8.76157         5.08784
     2008.00547         5.01961         5.00773
     2008.00821        10.46479         5.03686
     2008.01095         6.89297         5.00591
     2008.01368         7.89615         5.00226
     2008.01642         5.59933         4.98770
     2008.01916         3.07352         5.06690
     2008.02190        18.09270         5.14792
     2008.02464         4.23888         5.11515
     2008.02737        -2.27294         5.01137
     2008.03011        -5.10776         5.06872
     2008.03285        -9.26858         5.00226
     2008.03559        -1.15040         5.02047
     2008.03833       -11.60422         5.03504
     2008.04106       -10.86304         5.10149
     2008.04380        -8.09386         5.12607
     2008.04654        -7.91768         5.09057
     2008.04928       -11.73650         5.03959
     2008.05201        -7.38232         5.01046
     2008.05475        -5.13813         4.99862
     2008.05749       -10.54895         5.01228
     2008.06023        -1.98777         5.01865
     2008.06297         1.60941         5.01501
     2008.06570        -1.66641         4.97404
     2008.06844         0.81877         4.97222
     2008.07118         5.32595         4.98770
     2008.07392        11.41413         5.02593
     2008.07666        12.84931         5.28629
     2008.07939        12.17149         5.29812
     2008.10951       -10.22452         5.01410
     2008.11225        -7.41434         5.00682
     2008.11498        -3.05816         5.00135
     2008.11772        -0.29698         4.98679
     2008.12046        -6.14780         4.99407
     2008.12320        -4.22462         5.12516
     2008.12594        -5.07243         5.06599
     2008.12867        -3.81725         4.99316
     2008.13141        -1.32207         4.98588
     2008.13415         0.51711         4.98861
     2008.13689        -1.32171         4.99953
     2008.13963        -4.37853         5.00044
     2008.14236         0.37765         4.99953
     2008.14510         2.14983         5.02502
     2008.14784         0.65601         4.98406
     2008.15058        -5.63781         4.96676
     2008.15331        -8.91963         5.00135
     2008.15605        -5.36345         5.00500
     2008.15879        -5.03826         4.99225
     2008.16153        -3.91108         5.04414
     2008.16427        -6.37690         5.01865
     2008.16700       -10.63372         4.99043
     2008.16974       -10.95754         5.03048
     2008.17248        -9.32536         5.00682
     2008.17522       -10.19418         5.12607
     2008.17796        -5.25600         5.01774
     2008.18069        -8.32182         4.97678
     2008.18343        -8.05464         4.99953
     2008.18617        -8.75546         4.98679
     2008.18891        -7.79728         5.01501
     2008.19164        -7.68610         5.03322
     2008.19438        -9.74591         5.05870
     2008.19712        -3.83973         5.02320
     2008.19986        -0.49655         4.99498
     2008.20260        -6.07737         4.99316
     2008.20533        -7.50919         5.00409
     2008.20807        -7.10101         5.24532
     2008.21081        -4.79683         5.23804
     2008.21355        -7.03565         5.13972
     2008.21629        -6.59047         5.10604
     2008.21902       -12.32529         5.15429
     2008.22176       -13.83111         5.14519
     2008.22450       -12.84093         5.15793
     2008.22724        -8.56175         5.14155
     2008.22997        -7.81956         5.18888
     2008.23271        -6.69438         5.20527
     2008.23545       -17.20220         5.23531
     2008.23819        -7.78802         5.12243
     2008.24093       -10.84184         5.06235
     2008.24366        -6.39866         5.09239
     2008.24640       -12.02548         5.08875
     2008.24914        -7.86130         5.11424
     2008.25188        -7.17512         5.15884
     2008.25462        -3.45394         5.06235
     2008.25735        -3.33976         5.12152
     2008.26009        -6.65158         5.09421
     2008.26283        -8.71740         5.09785
     2008.26557       -10.00921         5.08237
     2008.26830        -9.51003         5.05962
     2008.27104        -8.28485         5.05506
     2008.27378        -5.67067         5.10695
     2008.27652       -11.91449         5.10786
     2008.27926        -8.32031         5.11970
     2008.28199        -4.57713         5.08784
     2008.28473        -3.36495         5.09330
     2008.28747        -4.31577         5.14883
     2008.29021        -8.19959         5.14337
     2008.29295        -6.72641         5.15884
     2008.29568       -10.54023         5.11424
     2008.29842        -6.85804         5.07236
     2008.30116        -7.80886         5.09603
     2008.30390       -10.53568         5.10149
     2008.30663       -10.62350         5.10058
     2008.30937        -6.46932         5.23349
     2008.31211        -9.28414         5.19708
     2008.31485       -11.47296         5.11970
     2008.31759       -11.08278         5.22165
     2008.32032       -10.55860         5.19799
     2008.32306        -9.41642         5.27809
     2008.32580        -4.20824         5.34000
     2008.32854        -8.97806         5.17614
     2008.33128        -8.32588         5.16885
     2008.33401        -6.11369         5.16430
     2008.33675        -4.15251         5.13153
     2008.33949        -7.29033         5.14063
     2008.34223        -7.97815         5.19434
     2008.34496       -12.40497         5.20254
     2008.34770        -6.55879         5.10877
     2008.35044        -8.18761         5.10513
     2008.35318        -5.22443         5.09239
     2008.35592        -3.68425         5.06417
     2008.35865        -9.18307         5.13153
     2008.36139        -0.94289         5.07964
     2008.36413        -0.88371         5.04687
     2008.36687       -11.12953         5.02866
     2008.36961       -12.16334         5.02866
     2008.37234        -9.61416         5.02957
     2008.37508        -1.71698         5.06326
     2008.37782        -2.85480         5.05962
     2008.38056        -4.55062         5.09512
     2008.38329        -1.63644         5.08875
     2008.38603        -2.33326         5.02775
     2008.38877        -5.89308         5.15793
     2008.39151        -0.67890         5.19890
     2008.39425        -3.27872         5.03777
     2008.39698        -2.94054         5.03595
     2008.39972         0.98764         5.04323
     2008.40246        -1.28118         5.02866
     2008.40520        -2.76699         5.06690
     2008.40794        -4.94981         5.09057
     2008.41067        -3.80763         5.04232
     2008.41341        -4.74645         5.06599
     2008.41615        -4.53027         5.01228
     2008.41889        -2.95109         5.04232
     2008.42162        -8.12491         5.13699
     2008.42436        -5.36673         5.08146
     2008.42710        -3.78555         5.08146
     2008.42984       -13.15237         5.09603
     2008.43258        -4.08619         5.18615
     2008.43531        -8.95201         5.18433
     2008.43805        -4.97383         5.17796
     2008.44079        -9.08464         5.03048
     2008.44353       -14.35746         5.00955
     2008.44626        -9.44728         5.08875
     2008.44900        -7.95310         5.04141
     2008.45174        -8.12592         5.20618
     2008.45448        -3.65774         5.20436
     2008.45722        -6.87056         5.03140
     2008.45995        -6.87438         5.03777
     2008.46269        -9.49820         5.03595
     2008.46543        -6.86402         5.07509
     2008.46817        -6.83284         5.05142
     2008.47091        -2.76466         5.17978
     2008.47364        -7.71547         5.05688
     2008.47638        -4.29029         5.04232
     2008.47912        -6.12711         5.04050
     2008.48186        -1.81593         5.05051
     2008.48459        -5.69375         5.14883
     2008.48733        -5.31757         5.04232
     2008.49007        -7.34139         5.01046
     2008.49281         2.81579         5.21164
     2008.49555        -2.82303         5.14063
     2008.49828        -0.85485         5.06872
     2008.50102        -5.32167         5.06235
     2008.50376        -4.92849         5.09239
     2008.50650        -4.09231         5.11515
     2008.50924        -2.83412         5.07691
     2008.51197        -1.19694         5.05870
     2008.51471        -2.83576         5.02229
     2008.51745         3.10442         5.01683
     2008.52019         3.58360         5.04869
     2008.52292         0.49278         5.18069
     2008.52566         2.07596         5.22712
     2008.52840         0.11314         5.04323
     2008.53114         4.77032         5.04596
     2008.53388         6.38450         5.03868
     2008.53661         1.45468         5.06417
     2008.53935         0.06986         5.01865
     2008.54209         0.51404         5.02684
     2008.54483         2.78923         5.19434
     2008.54757         1.92841         5.11970
     2008.55030         5.75259         5.04505
     2008.55304         7.59077         5.07236
     2008.55578         1.78495         5.04687
     2008.55852         3.47613         5.08328
     2008.56125        -0.07069         4.99680
     2008.56399        -1.43551         5.12152
     2008.56673         5.68967         5.01410
     2008.56947         5.44485         5.01683
     2008.57221         0.82603         5.20072
     2008.57494         1.78621         5.18069
     2008.57768         9.28239         5.26626
     2008.58042         4.86158         5.10058
     2008.58316         9.61576         5.05051
     2008.58590         4.11594         5.05051
     2008.58863         2.37512         5.25078
     2008.59137         1.51530         5.04778
     2008.59411         7.67948         5.04232
     2008.59685         6.90966         5.34091
     2008.59958         9.24484         5.41100
     2008.60232         0.49502         5.41829
     2008.60506         7.26020         5.14974
     2008.60780         1.52338         5.13153
     2008.61054         2.57256         5.13972
     2008.61327         2.71575         5.23076
     2008.61601         9.30993         5.21437
     2008.61875         4.09511         5.17978
     2008.62149         8.32029         5.14610
     2008.62423        10.48947         5.14792
     2008.62696         7.61565         5.32179
     2008.62970        15.40783         5.31178
     2008.63244         9.98301         5.24532
     2008.63518         3.13119         5.23895
     2008.63791         1.14037         5.22165
     2008.64065         3.42255         5.17705
     2008.64339         7.91173         5.24714
     2008.64613         8.93491         5.29539
     2008.64887         7.60210         5.30176
     2008.65160         5.36628         5.13608
     2008.65434         5.80946         5.24987
     2008.65708         3.01264         5.35183
     2008.65982         7.10182         5.24441
     2008.66256         6.66500         5.21528
     2008.66529         3.94118         5.23258
     2008.66803         3.24236         5.20345
     2008.67077         1.05654         5.26990
     2008.67351         5.15272         5.23986
     2008.67624         5.73290         5.53481
     2008.67898         5.56808         5.23349
     2008.68172         7.20726         5.20527
     2008.68446         8.69745         5.25352
     2008.68720         7.36463         5.24532
     2008.68993         9.37581         5.25169
     2008.69267         4.55999         5.18251
     2008.69541        10.12017         5.21437
     2008.69815        12.02535         5.22712
     2008.70089        13.93253         5.29903
     2008.70362         8.47071         5.14063
     2008.70636        11.26489         5.17887
     2008.70910         8.09407         5.27536
     2008.71184         6.95025         5.35820
     2008.71457         5.24643         5.12698
     2008.71731         1.48961         5.05506
     2008.72005         9.67480         5.08146
     2008.72279         5.05398         5.06690
     2008.72553         3.51516         5.25261
     2008.72826         3.70034         5.17159
     2008.73100         8.11352         5.17341
     2008.73374         4.02770         5.16430
     2008.73648         5.01388         5.06508
     2008.73921         7.54406         5.09421
     2008.74469         4.97042         5.18797
     2008.74743         9.48060         5.08510
     2008.75017         9.66378         5.06963
     2008.75290        11.42897         5.11332
     2008.75564         7.12515         5.14246
     2008.75838         7.60633         5.13881
     2008.76112         7.22651         5.07236
     2008.76386         1.83269         5.07782
     2008.76659        -1.99413         5.20527
     2008.76933         3.88605         5.13426
     2008.77207         0.87323         5.02047
     2008.77481        -1.93859         5.00409
     2008.77754        -1.58441         4.98770
     2008.78028        -0.02223         5.01410
     2008.78302        -2.90605         5.05142
     2008.78576        -1.63187         5.05324
     2008.78850        -2.60868         5.18251
     2008.79123         1.16950         5.13153
     2008.79397        -3.54832         5.02320
     2008.79671         0.50586         5.12516
     2008.79945         0.54504         5.08055
     2008.80219         8.29722         5.30085
     2008.80492        -0.20160         5.07145
     2008.80766         2.63158         5.06963
     2008.81040         6.44776         5.09512
     2008.81314         5.23194         5.05597
     2008.81587         6.62912         5.07691
     2008.81861         0.89230         5.08146
     2008.82135         0.05348         5.07782
     2008.82409         0.75167         5.16157
     2008.82683         2.67985         5.13608
     2008.82956         3.09103         5.05597
     2008.83230         2.68921         5.14155
     2008.83504         5.87139         5.16066
     2008.83778         9.33357         5.13608
     2008.84052         4.28775         5.10513
     2008.84325         9.73993         5.04323
     2008.84599         3.32711         5.07418
     2008.84873        -0.52571         5.11332
     2008.85147        -1.04353         5.06326
     2008.85420         4.18465         5.12243
     2008.85694         5.30183         5.09330
     2008.85968         4.60602         5.04050
     2008.86242         2.03520         5.09876
     2008.86516        -3.02762         5.13699
     2008.86789         2.28356         5.12607
     2008.87063        -2.72326         5.15793
     2008.87337        -2.59708         5.05870
     2008.87611         2.24010         5.10149
     2008.87885        -1.21272         5.07327
     2008.88158        -2.73054         5.07054
     2008.88432        -1.54036         5.08875
     2008.88706        -3.87918         5.18069
     2008.88980        -5.10500         5.19161
     2008.89253         1.78419         5.13699
     2008.89527        -2.58063         5.20800
     2008.89801         0.20955         5.18888
     2008.90075        -2.32727         5.10786
     2008.90349        -3.78709         5.12698
     2008.90622        -4.00591         5.13790
     2008.90896         2.56827         5.14428
     2008.91170        -4.26655         5.17978
     2008.91444        -0.39837         5.09512
     2008.91718         3.79481         5.09967
     2008.91991         3.82999         5.20345
     2008.92265        -0.25983         5.13790
     2008.92539        -1.10265         5.20800
     2008.92813         1.65954         5.13790
     2008.93086        -2.10128         5.12334
     2008.93360        -3.05110         5.17159
     2008.93634        -0.70292         5.12061
     2008.93908        -4.70474         5.13153
     2008.94182        -3.64556         5.17159
     2008.94455        -9.24638         5.17978
     2008.94729         0.06780         5.13517
     2008.95003         2.51398         5.02047
     2008.95277         4.42316         5.04596
     2008.95551         9.23034         5.06326
     2008.95824         9.68652         5.06508
     2008.96098         9.33270         5.09148
     2008.96372         2.73089         5.02502
     2008.96646         5.40807         5.22894
     2008.96919        11.40825         5.08875
     2008.97193        10.89343         5.11970
     2008.97467         1.64061         5.05324
     2008.97741         3.98279         5.04323
     2008.98015         7.30397         5.06872
     2008.98288        14.08915         5.07145
     2008.98562         8.86933         5.10422
     2008.98836         8.34951         5.06781
     2008.99110        -2.51031         5.09057
     2008.99384       -12.63413         5.08328
     2008.99657        -9.32595         5.05324
     2008.99931        -9.75176         5.06599
     2009.00479        -3.43140         5.06781
     2009.00752        -1.17922         4.99589
     2009.01026        -3.24404         5.05233
     2009.01300         0.03914         5.08237
     2009.01574        -2.29168         5.10149
     2009.01848        -5.99650         5.13426
     2009.02121        -4.98132         5.13881
     2009.02395        -3.93414         5.15702
     2009.02669       -11.87096         5.07964
     2009.02943       -16.01978         5.08328
     2009.03216       -15.69759         5.05870
     2009.03490       -13.03841         5.08146
     2009.03764        -9.20823         5.01319
     2009.04038       -12.19305         5.04778
     2009.04312       -13.08287         5.05779
     2009.04585       -11.89269         5.06508
     2009.04859       -14.11051         5.06508
     2009.05133        -8.64133         5.05142
     2009.05407        -9.45415         5.03686
     2009.05681        -6.88497         5.05779
     2009.05954        -5.41679         5.08055
     2009.06228        -8.97461         5.07691
     2009.06502        -8.03543         5.10331
     2009.06776        -3.87224         5.06235
     2009.07049        -5.21006         5.04232
     2009.07323        -5.50288         5.04960
     2009.07597        -3.17770         5.04960
     2009.07871        -9.04452         5.04687
     2009.08145        -7.37634         5.05324
     2009.08418        -6.15316         5.03686
     2009.08692        -8.07498         5.03868
     2009.08966        -6.18780         5.03777
     2009.09240        -4.80362         5.06690
     2009.09514        -2.62244         5.07600
     2009.09787        -0.64326         5.07964
     2009.10061        -0.78908         5.04505
     2009.10335        -5.99989         5.03686
     2009.10609         0.21929         5.05324
     2009.10882        -2.18753         5.03504
     2009.11156        -6.08735         5.07145
     2009.11430        -3.22717         5.14883
     2009.11704        -1.60899         5.15065
     2009.11978        -1.81181         5.01683
     2009.12251        -1.84963         4.99498
     2009.12525        -0.95945         5.02229
     2009.12799         0.72773         5.06781
     2009.13073         1.56691         5.09785
     2009.13347        -8.20891         5.01956
     2009.13620        -7.76273         5.03413
     2009.13894        -6.37954         5.05233
     2009.14168        -7.53036         5.06690
     2009.14442        -5.96518         5.10331
     2009.14715        -8.22800         5.16339
     2009.14989        -5.18482         5.12061
     2009.15263        -8.89364         5.04050
     2009.15537        -3.59746         5.16612
     2009.15811        -9.99828         5.18979
     2009.16084        -8.08410         5.08419
     2009.16358        -3.17692         5.08146
     2009.16632        -4.50474         5.08237
     2009.16906        -0.94356         5.18797
     2009.17180        -2.00438         5.07509
     2009.17453        -5.49119         5.05597
     2009.17727         3.90899         5.20982
     2009.18001        -3.99183         5.03231
     2009.18275         4.53935         5.03048
     2009.18548         7.18253         5.06326
     2009.18822         8.02771         5.04596
     2009.19096         4.62689         5.04869
     2009.19370        -6.70993         5.02684
     2009.19644        -4.51175         5.04050
     2009.19917        -2.47757         5.04323
     2009.20191        -3.63339         5.06508
     2009.20465        -7.49421         5.05324
     2009.20739        -9.91702         5.03140
     2009.21013       -10.10184         4.99407
     2009.21286        -9.20466         5.03322
     2009.21560        -3.77648         5.06690
     2009.21834        -9.09630         5.04596
     2009.22108         0.72888         5.04323
     2009.22381        -7.71394         5.00500
     2009.22655       -13.02976         5.01501
     2009.22929        -8.62958         5.05233
     2009.23203        -4.50740         5.06508
     2009.23477        -7.99422         5.09876
     2009.23750        -4.24904         5.09148
     2009.24024        -6.46086         5.08237
     2009.24298        -8.34467         5.09967
     2009.24572        -5.13449         5.13244
     2009.24846        -0.55931         5.12880
     2009.25119        -5.02413         5.29084
     2009.25393        -4.64895         5.23622
     2009.25667        -6.08577         5.07236
     2009.25941        -9.05559         5.11970
     2009.26214        -5.94641         5.10058
     2009.26488        -3.45523         5.15065
     2009.26762        -8.60305         5.10240
     2009.27036        -0.65287         5.06963
     2009.27310        -6.93869         5.09876
     2009.27583        -6.71851         5.12698
     2009.27857       -10.68432         5.15338
     2009.28131       -14.53314         5.21346
     2009.28405       -13.17996         5.13881
     2009.28679       -11.79278         5.13790
     2009.28952        -8.62260         5.12698
     2009.29226       -16.02842         5.18069
     2009.29500       -11.03524         5.19799
     2009.29774        -6.79006         5.13335
     2009.30047        -9.81888         5.15520
     2009.30321        -8.26070         5.10058
     2009.30595        -3.85852         5.10604
     2009.30869        -3.55334         5.16339
     2009.31143        -5.70216         5.14792
     2009.31416        -8.54897         5.09876
     2009.31690       -10.98779         5.09785
     2009.31964        -7.77261         5.09057
     2009.32238        -5.41743         5.09876
     2009.32512        -7.19025         5.24805
     2009.32785        -9.88507         5.25443
     2009.33059        -8.44289         5.21710
     2009.33333        -6.43971         5.24350
     2009.33607        -9.53153         5.10058
     2009.33880        -3.67235         5.13517
     2009.34154       -10.59817         5.17887
     2009.34428       -11.02899         5.11332
     2009.34702       -12.58980         5.07873
     2009.34976        -7.92262         5.08784
     2009.35249       -11.05144         5.11606
     2009.35523       -11.87126         5.12243
     2009.35797       -10.82208         5.15247
     2009.36071        -6.66790         5.23895
     2009.36344       -10.51872         5.12152
     2009.36618        -8.59654         5.16248
     2009.36892        -5.55636         5.09876
     2009.37166        -8.26818         5.11515
     2009.37440       -11.36600         5.10331
     2009.37713       -10.86282         5.12971
     2009.37987       -10.17564         5.26080
     2009.38261        -7.45945         5.11606
     2009.38535        -6.43627         5.11879
     2009.38809       -11.38009         5.12425
     2009.39082       -10.46391         5.03595
     2009.39356        -8.30273         5.08419
     2009.39630       -10.45155         5.10604
     2009.39904        -6.36837         5.12061
     2009.40177        -4.51419         5.06599
     2009.40451         1.77399         5.07418
     2009.40725        -3.37483         5.10058
     2009.40999        -2.66065         5.16430
     2009.41273        -4.66347         5.18524
     2009.41546        -1.15229         5.11241
     2009.41820        -5.89810         5.09148
     2009.42094        -7.74092         5.08419
     2009.42368        -2.58674         5.24350
     2009.42642       -13.20256         5.07327
     2009.42915       -11.65038         5.15975
     2009.43189       -13.07820         5.07782
     2009.43463        -7.69602         5.08510
     2009.43737        -1.51184         5.04687
     2009.44010        -6.68666         5.03140
     2009.44284        -8.93948         5.04232
     2009.44558       -12.86630         5.07873
     2009.44832        -7.34112         5.11150
     2009.45106       -10.35094         5.12152
     2009.45379       -11.55175         5.07054
     2009.45653        -8.00257         5.05415
     2009.45927       -10.14939         5.07327
     2009.46201        -9.22521         5.11332
     2009.46475        -3.34203         5.19616
     2009.46748        -7.20085         5.07964
     2009.47022        -8.77967         5.04141
     2009.47296        -7.87949         5.06235
     2009.47570        -5.76431         5.08328
     2009.47843        -4.82013         5.10149
     2009.48117        -3.18095         5.13517
     2009.48391        -7.89377         5.11879
     2009.48665        -9.24058         5.13608
     2009.48939        -4.51240         5.13062
     2009.49212        -1.46622         5.12789
     2009.49486        -1.53104         5.15429
     2009.49760        -5.37786         5.14519
     2009.50034        -3.48868         5.06690
     2009.50308        -0.75550         5.08966
     2009.50581        -5.80632         5.09330
     2009.50855        -3.61414         5.07964
     2009.51129         0.51204         5.12789
     2009.51403         1.22822         5.06872
     2009.51676        -0.68960         5.04869
     2009.51950        -5.58742         5.05870
     2009.52224        -0.54523         5.12971
     2009.52498        -2.64805         5.12243
     2009.52772        -0.98587         5.07964
     2009.53045        -6.73069         5.07418
     2009.53319        -2.49351         5.06053
     2009.53593        -0.98733         5.06326
     2009.53867        -0.91815         5.06326
     2009.54141         0.45703         5.06872
     2009.54414         1.52021         5.06235
     2009.54688         0.42339         5.07145
     2009.54962         0.68657         5.06144
     2009.55236        -0.00625         5.06781
     2009.55509         0.36393         5.08419
     2009.55783         1.83812         5.06053
     2009.56057         6.20530         5.28902
     2009.56331         1.68548         5.18706
     2009.56605        10.94866         5.27627
     2009.56878        -1.84616         5.09148
     2009.57152         0.94302         5.11424
     2009.57426         5.97120         5.13972
     2009.57700         5.70138         5.25169
     2009.57974        -4.34744         5.07145
     2009.58247         5.27374         5.10604
     2009.58521         6.75992         5.20618
     2009.58795         1.16510         5.20891
     2009.59069         3.80728         5.23986
     2009.59342        -3.54353         5.18160
     2009.59616         8.02165         5.08875
     2009.59890         2.49783         5.10968
     2009.60164         4.14701         5.18979
     2009.60438         0.15419         5.06872
     2009.60711        -1.30563         5.08784
     2009.60985        -2.88045         5.07600
     2009.61259         3.93273         5.14883
     2009.61533        -4.08109         5.15247
     2009.61807         0.04909         5.08419
     2009.62080         1.64427         5.08875
     2009.62354         0.74345         5.10786
     2009.62628         3.79864         5.12516
     2009.62902         7.85282         5.11059
     2009.63175         4.13200         5.24350
     2009.63449         2.88618         5.14792
     2009.63723         0.65836         5.16885
     2009.63997        -1.79046         5.15793
     2009.64271        -1.35628         5.14246
     2009.64544         2.94890         5.14155
     2009.64818        -1.51292         5.25534
     2009.65092         2.98326         5.15702
     2009.65366         1.23644         5.15611
     2009.65639        -1.50738         5.08055
     2009.65913        -0.61120         5.03504
     2009.66187         2.17499         5.04960
     2009.66461        -0.91283         5.07418
     2009.66735        10.07335         5.16794
     2009.67008         6.12553         5.08693
     2009.67282        -1.50629         5.13608
     2009.67556         4.32589         5.07600
     2009.67830         4.86707         5.40099
     2009.68104         2.16725         5.22803
     2009.68377        -4.05057         5.13517
     2009.68651         5.57161         5.07691
     2009.68925         1.86479         5.09967
     2009.69199         1.83397         5.09239
     2009.69472         4.19015         5.13426
     2009.69746         5.01334         5.06690
     2009.70020        12.20152         5.14337
     2009.70294         7.97670         5.15793
     2009.70568         1.57388         5.11150
     2009.70841         3.15206         5.16703
     2009.71115         1.82024         5.17614
     2009.71389         8.26942         5.29175
     2009.71663        -1.36440         5.22165
     2009.71937         1.58378         5.11241
     2009.72210        -2.73604         5.08237
     2009.72484        -0.32286         5.16977
     2009.72758         0.05432         5.16885
     2009.73032         2.21950         5.12152
     2009.73305         5.07669         5.20709
     2009.73579         2.27687         5.17341
     2009.73853         4.52205         5.09330
     2009.74127         4.13523         5.15520
     2009.74401         7.12741         5.27536
     2009.74674        -3.55041         5.13608
     2009.74948        -6.02823         5.11424
     2009.75222        -9.37905         5.11332
     2009.75496        -4.26487         5.09876
     2009.75770        -7.91669         5.09876
     2009.76043        -0.66451         5.12698
     2009.76317        -1.95133         5.12698
     2009.76591        -3.29714         5.18342
     2009.76865        -4.76196         5.24987
     2009.77138        -7.35178         5.12425
     2009.77412        -0.65060         5.13062
     2009.77686        -3.71342         5.14792
     2009.77960         3.76276         5.19070
     2009.78234         7.53694         5.18888
     2009.78507         1.70812         5.35820
     2009.78781         1.71630         5.26171
     2009.79055        -4.32652         5.27536
     2009.79329       -14.31834         5.48110
     2009.79603        -9.80216         5.38642
     2009.79876        -4.77298         5.29812
     2009.80150        -6.13379         5.30449
     2009.80424        -6.33461         5.38096
     2009.80698         2.13657         5.19161
     2009.80971        -2.04425         5.28356
     2009.81245         1.72393         5.26717
     2009.81519         4.32711         5.27354
     2009.81793        -2.34971         5.40827
     2009.82067        -2.33853         5.20982
     2009.82340        -3.26135         5.18979
     2009.82614        -9.31317         5.23804
     2009.82888        -6.09199         5.22165
     2009.83162         0.36519         5.24896
     2009.83436        -7.38563         5.18797
     2009.83709        -6.50744         5.20618
     2009.83983        -2.85026         5.21983
     2009.84257        -2.81008         5.21073
     2009.84531        -3.00090         5.39098
     2009.84804        -1.63572         5.37732
     2009.85078        -5.87254         5.28629
     2009.85352        -7.67336         5.32088
     2009.85626       -13.13918         5.36276
     2009.85900       -16.26300         5.40190
     2009.86173       -15.57582         5.35911
     2009.86447        -5.00064         5.60399
     2009.86721        -9.92846         5.43194
     2009.86995        -7.20528         5.33089
     2009.87269        -3.89209         5.33180
     2009.87542        -4.43591         5.33089
     2009.87816        -0.22373         5.48019
     2009.88090        -3.20355         5.38369
     2009.88364        -1.66937         5.25898
     2009.88637        -1.59619         5.29812
     2009.88911         4.55699         5.25443
     2009.89185        -3.17283         5.28538
     2009.89459        -3.46565         5.23076
     2009.89733       -12.81047         5.21528
     2009.90006       -11.09829         5.19708
     2009.90280       -10.25311         5.20072
     2009.90554        -7.79793         5.19161
     2009.90828        -7.79274         5.14337
     2009.91102       -10.35056         5.15156
     2009.91375        -8.61038         5.06872
     2009.91649        -9.39620         5.14701
     2009.91923       -15.05702         5.14428
     2009.92197       -13.98284         5.14428
     2009.92470        -7.58766         5.15793
     2009.92744        -0.17748         5.12698
     2009.93018         3.59970         5.11788
     2009.93292         6.93088         5.14701
     2009.93566         5.54506         5.14974
     2009.93839         5.51724         5.28174
     2009.94113         9.39043         5.14246
     2009.94387         6.32761         5.22165
     2009.94661         5.85879         5.24987
     2009.94935        13.60197         5.14246
     2009.95208        15.10115         5.14337
     2009.95482         3.94033         5.11424
     2009.95756        -2.62949         5.15156
     2009.96030        -1.05431         5.13426
     2009.96303        -0.96413         5.14155
     2009.96577        -2.52595         5.21983
     2009.96851         7.40323         5.32998
     2009.97125         7.01341         5.21164
     2009.97399         2.90659         5.27445
     2009.97672        -1.40622         5.12061
     2009.97946         0.74396         5.06326
     2009.98220         1.04614         5.06326
     2009.98494         2.91132         5.06781
     2009.98767         4.50950         5.06963
     2009.99041        -0.58132         5.06690
     2009.99315         1.05686         5.07236
     2009.99589        -6.84296         5.10968
     2009.99863        -5.34978         5.37823
     2010.00410        -2.52042         5.10877
     2010.00684        -2.13424         5.12516
     2010.00958        -6.06506         5.11424
     2010.01232        -1.83887         5.17250
     2010.01505        -3.03769         5.12152
     2010.01779        -1.36651         5.14701
     2010.02053        -4.08033         5.17978
     2010.02327        -5.36815         5.19161
     2010.02600        -1.36397         5.10422
     2010.02874         2.43121         5.12061
     2010.03148         6.65439         5.11150
     2010.03422         0.04757         5.22165
     2010.03696         0.12075         5.39644
     2010.03969         5.70793         5.21346
     2010.04243         4.24411         5.12061
     2010.04517        12.98629         5.06963
     2010.04791        18.37348         5.11150
     2010.05065        15.76266         5.22074
     2010.05338        11.01984         5.32452
     2010.05612        10.92802         5.18888
     2010.05886        10.38620         5.07782
     2010.06160         4.68638         5.07327
     2010.06433         2.37256         5.09239
     2010.06659         3.37536         6.89848
     2010.07089         1.83678         9.74235
     2010.07255         4.89410         6.25124
     2010.07529         3.00928         5.17978
     2010.07802         6.18546         5.05962
     2010.08008         4.65910         7.75237
     2010.08463         7.06173        10.47608
     2010.08553        16.83544         8.04004
     2010.08996        16.70497         8.42238
     2010.09166        10.66132         5.19890
     2010.10381        16.71701        11.69501
     2010.10540         6.82427         5.12698
     2010.10814         9.70445         5.13881
     2010.11088         6.34163         5.27263
     2010.11362         8.23481         5.12789
     2010.11635         8.13500         5.15429
     2010.11807        15.18636        11.50111
     2010.13379         5.96888         9.01227
     2010.13552         5.39126         5.25261
     2010.13826         3.71044         5.05051
     2010.14099         4.36062         5.04141
     2010.14373         1.46680         5.21983
     2010.14647         1.53898         5.21983
     2010.14921        -3.67584         5.14610
     2010.15195        -4.31265         5.03595
     2010.15468        -0.14747         5.04232
     2010.15742         1.58471         5.10877
     2010.16016         8.91789         5.06781
     2010.16290         1.59707         5.04505
     2010.16564         5.06325         5.06326
     2010.16837        -1.06357         5.05688
     2010.17111        -9.70539         5.05597
     2010.17385        -0.39721         5.01865
     2010.17659         1.70097         5.01319
     2010.17932         5.19415         5.03959
     2010.18206       -15.17467         5.10331
     2010.18480         1.55151         5.03048
     2010.18754       -10.26130         5.02775
     2010.19028       -12.95412         5.06053
     2010.19301        -0.45894         5.02775
     2010.19575        -8.50576         5.07327
     2010.19849         1.09042         5.06872
     2010.20123        -3.87140         5.04778
     2010.20397         0.90978         5.05870
     2010.20670        -5.15004         5.06690
     2010.20944        -3.51586         5.05688
     2010.21218         1.26432         5.08055
     2010.21492         1.71850         5.05688
     2010.21765        -5.18632         5.05597
     2010.22039        -6.70513         5.07509
     2010.22313        -5.32295         5.04414
     2010.22587         2.77023         5.14519
     2010.22861        -8.57459         5.20527
     2010.23134         0.53459         5.16339
     2010.23408        -6.77323         5.18342
     2010.23956         0.80613         5.25169
     2010.24230        -6.31169         5.35729
     2010.24503       -10.60751         5.18888
     2010.24777        -3.35133         5.19161
     2010.25051         2.24985         5.46198
     2010.25325        -3.89897         5.20436
     2010.25598        -1.74978         5.20254
     2010.25872         1.31440         5.17978
     2010.26146        -1.30942         5.23258
     2010.26420        -3.18724         5.31997
     2010.26694        -7.85806         5.20345
     2010.26967        -5.15288         5.24532
     2010.27241         2.23630         5.21892
     2010.27515        -2.38952         5.13244
     2010.27789         1.93366         5.26353
     2010.28062        -2.17816         5.14519
     2010.28336        -2.54998         5.22712
     2010.28610        -8.06480         5.23713
     2010.28884         3.07238         5.06417
     2010.29158         2.60057         5.05779
     2010.29431         4.11675         5.06417
     2010.29705         3.36093         5.10604
     2010.29979         2.90811         5.15975
     2010.30253        -4.31671         5.16157
     2010.30527         1.87947         5.19708
     2010.30800         9.79665         5.08693
     2010.31074         3.69483         5.10695
     2010.31348         2.09201         5.08693
     2010.31622         8.44619         5.09239
     2010.31895        -0.01463         5.29084
     2010.32169         0.81355         5.17978
     2010.32443        -7.87627         5.14792
     2010.32717        -7.09508         5.06326
     2010.32991         0.44710         5.05506
     2010.33264         0.11428         5.01683
     2010.33538         1.91446         5.25625
     2010.33812        -2.84236         5.07509
     2010.34086        -7.83618         5.06235
     2010.34360        -3.83800         5.01592
     2010.34633         0.36418         5.08055
     2010.34907         2.31936         5.02957
     2010.35181         2.00754         5.03868
     2010.35455        -5.35328         5.02684
     2010.35728        -3.39810         5.07964
     2010.36002         1.17809         5.14063
     2010.36276         8.23027         5.02138
     2010.36550         2.50845         5.27900
     2010.36824        -0.13837         5.23258
     2010.37097         7.59581         5.04960
     2010.37371        13.16699         5.04960
     2010.37645         3.80317         5.01774
     2010.37919         8.07935         5.26262
     2010.38193        -2.72547         5.23804
     2010.38466        -0.62429         5.03413
     2010.38740        -1.58611         5.01319
     2010.39014       -13.28093         5.09148
     2010.39288        -0.36175         4.99407
     2010.39561        -2.11456         4.99134
     2010.39835        -0.25538         4.97131
     2010.40109        -2.87820         4.98133
     2010.40383        -1.11702         4.98770
     2010.40657         4.01816         5.02047
     2010.40930         4.91734         5.02229
     2010.41204        -1.44448         4.98315
     2010.41478         5.55970         5.02229
     2010.41752         6.41488         4.98861
     2010.42026         4.55306         5.01228
     2010.42299         2.40824         5.01228
     2010.42573         2.12242         4.99225
     2010.42847        -0.22140         5.17341
     2010.43121         1.56279         4.97951
     2010.43394         3.63997         5.02866
     2010.43595       -14.74844         8.14017
     2010.48879         8.55265        21.73595
     2010.49423        -0.94301        35.17516
     2010.49692        -7.87688        12.24121
     2010.49965        -1.21170         5.51660
     2010.50239        -3.26551         4.95311
     2010.50513        -0.05233         4.97222
     2010.50787        -8.80615         4.98133
     2010.51060        -0.80497         4.98406
     2010.51334         2.96821         4.95675
     2010.51608        -0.59761         4.96312
     2010.51882         4.02657         4.96767
     2010.52156         7.81175         5.04596
     2010.52429        -1.27907         5.00317
     2010.52703        -0.39089         4.89758
     2010.52977        -4.33071         4.86298
     2010.53251        -4.40653         4.88392
     2010.53525         0.80366         4.90031
     2010.53798        -4.67716         4.92853
     2010.54072        -4.53098         4.89849
     2010.54346        -3.35580         4.88483
     2010.54620        -2.77962         4.87846
     2010.54893        -0.57344         4.90395
     2010.55167        -2.22126         4.91851
     2010.55441         3.27992         4.89758
     2010.55715        -0.52290         4.88028
     2010.55989         1.56528         4.89849
     2010.56262         0.69846         4.89576
     2010.56536        -2.23736         4.89029
     2010.56810        -5.40018         4.88756
     2010.57084         1.23601         4.93126
     2010.57357         2.32619         5.06508
     2010.57631        -0.38263         5.02593
     2010.57905        -6.70545         4.88301
     2010.58179        -1.17627         4.90122
     2010.58453        -0.40609         4.87209
     2010.58726        -0.01491         5.00500
     2010.59000        -0.55873         4.96494
     2010.59274        -2.09655         4.87846
     2010.59548         5.00863         4.89302
     2010.59822         3.77481         4.95584
     2010.60095         3.61199         4.91305
     2010.60369        -0.72483         4.93308
     2010.60643         1.96536         4.88847
     2010.60917         1.59054         4.85388
     2010.61190        -1.27828         4.87027
     2010.72689         2.27331         4.97222
     2010.72963         3.20449         4.89394
     2010.73237         6.52867         4.88483
     2010.73511         1.15585         4.89029
     2010.73785         0.20403         5.03777
     2010.74058         2.20021         4.96676
     2010.74332         1.41939         4.87755
     2010.74606        10.57358         4.96676
     2010.74880         7.97676         4.97495
     2010.75154         8.11894         4.89667
     2010.75427         9.82912         5.06599
     2010.75701         0.76830         5.04050
     2010.75975         2.30248         4.91487
     2010.76249         4.74366         4.90213
     2010.76522         4.59884         4.86116
     2010.76796         6.01102         4.88483
     2010.77070         0.13620         4.85024
     2010.77344        -8.37062         4.98406
     2010.77618         1.08656         4.88847
     2010.77891        -1.68626         4.88028
     2010.78165         4.02093         4.82657
     2010.78439         2.22811         4.89394
     2010.78713         9.36229         5.01865
     2010.78987         5.89447         4.84478
     2010.79260         2.93365         4.84023
     2010.79534         0.19483         4.81292
     2010.79808         7.74801         4.81474
     2010.80082         5.78819         4.80745
     2010.80355         6.67937         4.82839
     2010.80629         2.51855         4.89394
     2010.80903         8.80973         4.90122
     2010.81177         5.25991         4.92944
     2010.81451         7.33310         4.83567
     2010.81724         6.79028         4.91123
     2010.81998         8.16446         4.89667
     2010.82272         4.58664         4.97586
     2010.82546         1.46082         4.89394
     2010.82820         2.69400         4.87573
     2010.83093         0.84818         5.11059
     2010.83367         3.23836         5.11332
     2010.83641        -5.34546         4.89120
     2010.83915         1.13872         4.89576
     2010.84188         2.31290         4.89029
     2010.84462         6.34708         4.89576
     2010.84736         4.27126         4.95948
     2010.85010         5.37045         4.91214
     2010.85284         5.76963         4.90668
     2010.85557         4.64481         4.88301
     2010.85831         0.48699         4.83841
     2010.86105        -6.65883         5.61310
     2010.86379        -6.25365         4.82839
     2010.86653        -9.89247         4.84933
     2010.86808         7.85077        11.93989
     2010.91987        19.14602        78.12181
     2010.92220        -4.65912         8.46152
     2010.92286         8.31441        11.79333
     2011.00436         2.32032        21.23436
     2011.00708        -4.09251         8.11832
     2011.00760        15.25790        22.95033
     2011.06190        16.78815        25.52111
     2011.07845         9.35733        10.96857
     2011.08107         3.05942         8.85387
     2011.08262         4.20966        14.09282
     2011.08653        -5.92923         8.81200
     2011.08829        -7.56583         6.82748
     2011.09103        -6.94565         5.56849
     2011.09377         0.31254         5.67045
     2011.09528         4.32874        16.77739
     2011.10031        -6.20825        10.23302
     2011.10198        -3.70892         4.94218
     2011.10472        -0.54074         6.87208
     2011.10746        -8.80056         4.99225
     2011.11019        -3.65338         4.77832
     2011.11293        -1.23820         4.81565
     2011.11567        -3.35102         4.83294
     2011.11759        -1.93749         7.52843
     2011.14131        -7.23059         9.42647
     2011.14302        -5.60323         9.68682
     2011.15223        16.20810         8.99588
     2011.15400        11.72751         8.81564
     2011.16348       -33.16394        51.72496
     2011.16371        -4.17175        25.45192
     2011.17427       -22.02834        12.67362
     2011.17590        -8.35104         7.12789
     2011.17864        -2.75486         6.27218
     2011.18138        -8.60668         6.22029
     2011.18412        -8.87450         6.09466
     2011.18685        -2.88032         8.98314
     2011.18959        -9.17814         6.46061
     2011.19233        -4.10696         7.00044
     2011.19403         1.03040         9.49839
     2011.19885        -5.16276        10.82565
     2011.19931        -0.18440        15.54116
     2011.20725        -1.18907        21.35726
     2011.20747       -14.75890        24.65083
     2011.21267        -2.48275        14.54799
     2011.21299         7.74850        16.30037
     2011.21825         4.13969        20.44602
     2011.21971         0.61685        10.48791
     2011.22245        -5.31897         8.54982
     2011.22392        14.17421        17.50019
     2011.22905         1.68729        13.02865
     2011.23066         2.01357        10.22392
     2011.23211        20.60973        20.28853
     2011.23737        10.47392        14.78831
     2011.24534       -10.29373         9.55209
     2011.24709        -5.26934         7.80972
     2011.24982        -2.50416         7.81336
     2011.25256        -6.05898         5.91259
     2011.25437       -14.63554         8.58259
     2011.25891         5.42507         8.31496
     2011.26078        -7.17244         6.73189
     2011.26351        -4.86926         7.07053
     2011.26625       -11.90108         5.77969
     2011.26899        -3.74989         6.18387
     2011.27173        -4.26671         6.21027
     2011.27446        -3.95953         6.41874
     2011.27720        -9.06735         6.64632
     2011.27994        -9.14117         5.79880
     2011.28268        -9.16999         5.85980
     2011.28446       -16.26457         9.09329
     2011.29180         0.92527         8.29948
     2011.29363        -6.31727         5.61219
     2011.29637        -8.35309         5.43285
     2011.29911        -5.07991         5.73326
     2011.30184        -6.61773         5.86617
     2011.30458        -5.02254         5.72143
     2011.30732        -0.35736         6.10285
     2011.31006        -2.70018         5.63859
     2011.31202       -11.01862         7.76876
     2011.63155         0.58490        15.66041
     2011.63312         5.53215         5.08966
     2011.63586         1.70233         5.11150
     2011.63860         5.69851         5.11241
     2011.64134        -1.31231         5.24168
     2011.64407         0.51687         5.26171
     2011.64681         8.29905         5.14246
     2011.64955         3.33323         5.34364
     2011.65229         1.01641         5.13426
     2011.65503         0.74160         5.23895
     2011.65776         1.04378         5.14246
     2011.66050         9.61896         5.37004
     2011.66324         2.05814         5.15793
     2011.66598        -0.46068         5.19434
     2011.66872         5.68750         5.23622
     2011.67145         5.77168         5.06963
     2011.67419         7.13486         5.06144
     2011.67693        10.52904         5.09148
     2011.67967         3.52822         5.09148
     2011.68240         6.77640         5.16703
     2011.68514         5.23858         5.21710
     2011.68788         6.66077         5.12243
     2011.69062        12.82095         5.22621
     2011.69336         4.69413         5.19616
     2011.69609         6.07431         5.18433
     2011.69883         3.63549         5.16885
     2011.70157         2.77467         5.10513
     2011.70431         7.11485         5.14519
     2011.70705         0.10703         5.25534
     2011.70978         3.35321         5.12607
     2011.71252         3.05039         5.15884
     2011.71526         1.90357         5.27627
     2011.71800         6.49875         5.19981
     2011.72073         9.93893         5.11241
     2011.72347         5.01012         5.09603
     2011.72621        10.62430         5.08875
     2011.72895        12.28248         5.06781
     2011.73169         8.17166         5.22803
     2011.73442         4.78484         5.10058
     2011.73716         5.71702         5.09876
     2011.73990         5.13720         5.06781
     2011.74264         8.55238         5.09330
     2011.74538        11.67856         5.24532
     2011.74811        13.08474         5.25078
     2011.75085         8.77292         5.26717
     2011.75359         3.83010         5.21983
     2011.75633         8.86028         5.13244
     2011.75906        10.59247         5.14701
     2011.76180         9.47565         5.12607
     2011.76454         4.78883         5.17159
     2011.76728         2.97601         5.13335
     2011.77002         1.93519         5.17523
     2011.77275         4.51137         5.30631
     2011.77549         3.44955         5.28902
     2011.77823         1.87773         5.17068
     2011.78097         2.93491         5.15247
     2011.78371         9.46709         5.18069
     2011.78644         8.13627         5.09239
     2011.78918         4.62245         5.12061
     2011.79192         0.73163         5.11515
     2011.79466         1.79782         5.08784
     2011.79739         8.74300         5.12061
     2011.80013         4.77718         5.12243
     2011.80287         2.94636         5.09694
     2011.80561         1.92454         5.07964
     2011.80835         2.44672         5.03048
     2011.81108        -1.33310         5.07145
     2011.81382        -5.68392         5.09785
     2011.81656        -0.40674         5.05779
     2011.81930         4.18144         5.05415
     2011.82203         5.90962         5.09603
     2011.82477         2.25080         5.05779
     2011.82751         4.99399         5.06417
     2011.83025         2.35917         5.12607
     2011.83299        -2.15465         5.05324
     2011.83572        -0.72247         5.03868
     2011.83846        -0.70429         5.05324
     2011.84120         2.92789         5.04596
     2011.84394         4.62707         5.02957
     2011.84668        -0.53375         5.04414
     2011.84941        -2.78857         5.01501
     2011.85215        -4.83939         5.06326
     2011.85489        -1.66621         5.11332
     2011.85763         1.60497         5.14246
     2011.86036        11.60515         5.05415
     2011.86310         4.30134         5.10149
     2011.86584         4.32952         5.01137
     2011.86858         6.52070         5.01501
     2011.87132         3.68488         5.01592
     2011.87405        -4.35394         5.00135
     2011.87679         4.70024         5.04141
     2011.87953         8.18942         4.99771
     2011.88227        14.43960         5.02775
     2011.88501        16.28178         5.03504
     2011.88774         3.09396         5.05688
     2011.89048         1.85014         5.01865
     2011.89322         0.32032         5.12334
     2011.89596        -3.34050         5.02502
     2011.89869        -1.69831         5.08693
     2011.90143        -5.39113         5.06508
     2011.90417         3.77305         5.10058
     2011.90691        -5.04677         5.05962
     2011.90965        -0.42959         5.00682
     2011.91238        -0.96941         5.17796
     2011.91512         2.03277         5.06144
     2011.91786         0.98695         5.17523
     2011.92060        -5.32887         5.08601
     2011.92334        -4.88669         5.08510
     2011.92607        -4.79551         5.11697
     2011.92881        -3.01233         5.15702
     2011.93155         3.70585         5.13972
     2011.93429         1.83904         5.15611
     2011.93702         0.79622         5.11241
     2011.93976        -0.51160         5.09148
     2011.94250         0.72958         5.12698
     2011.94524         0.51376         5.15338
     2011.94798         6.57994         5.16703
     2011.95071         3.29912         5.04050
     2011.95345         1.58930         5.10695
     2011.95619        -0.71052         5.17523
     2011.95893         0.24866         5.04505
     2011.96167         2.92984         5.02775
     2011.96440         3.99202         5.04778
     2011.96714         4.78220         4.95038
     2011.96988         6.61839         4.89576
     2011.97262         1.50757         4.94764
     2011.97535        -2.18225         5.01228
     2011.97809        -2.20307         5.00591
     2011.98083         4.99211         5.03140
     2011.98357         4.78329         4.92671
     2011.98631         6.63547         4.93217
     2011.98904        -0.25735         4.98952
     2011.99178         4.79483         5.00682
     2011.99452         0.96701         4.99407
     2011.99726         2.84619         4.93399
     2012.00273         3.55756         5.02775
     2012.00547        -0.02126         4.97678
     2012.00821         1.22492         4.99134
     2012.01095         1.71210         4.97586
     2012.01368         2.03528         4.94491
     2012.01642         6.65146         4.94127
     2012.01916         2.86564         4.96585
     2012.02190         5.23282         4.98952
     2012.02464         1.21300         4.95766
     2012.02737         1.28718         4.95766
     2012.03011         1.07236         4.93945
     2012.03285         1.38854         4.95311
     2012.03559        -3.59728         5.00591
     2012.03833         7.08691         4.95766
     2012.04106        17.21709         4.95220
     2012.04380        17.79027         4.93217
     2012.04654        13.77845         4.94309
     2012.04928         7.94963         4.90395
     2012.05201         5.11681         4.86480
     2012.05475         9.49599         4.89758
     2012.05749         8.36717         4.90304
     2012.06023         3.84535         4.91760
     2012.06297        -0.35347         4.88210
     2012.06570         3.03571         4.92033
     2012.06844        -1.44211         4.91305
     2012.07118        -5.04093         4.85661
     2012.07392        -1.60174         4.86207
     2012.07666        -0.67656         4.86298
     2012.07939         2.75662         4.87573
     2012.08213         1.65580         4.85297
     2012.08487         3.96298         4.87482
     2012.08761        -1.25584         4.90213
     2012.09034         0.18534         4.90395
     2012.09308         1.30752         4.87755
     2012.09582        -0.05130         4.86845
     2012.09856         2.59088         4.89576
     2012.10130         3.21406         4.99589
     2012.10403        -3.52676         4.89120
     2012.10677        -2.23758         4.96130
     2012.10951         3.20461         4.93763
     2012.11225        -2.34021         4.93399
     2012.11498         0.46997         4.95675
     2012.11772         1.95915         4.92853
     2012.12046         4.73833         4.93581
     2012.12320         1.09851         4.90850
     2012.12594         0.62369         4.92216
     2012.12867        -7.29513         4.93581
     2012.13141        -1.88695         4.98861
     2012.13415        -0.18877         4.93581
     2012.13689        -4.90559         4.95493
     2012.13963        -0.89141         5.03140
     2012.14236       -11.54922         5.12971
     2012.14510        -4.29104         4.98042
     2012.14784        -6.32086         4.88665
     2012.15058         7.05032         4.91487
     2012.15331         8.26750         4.89211
     2012.15605        -5.77832         4.97040
     2012.15879        -0.40114         4.97951
     2012.16153         1.36404         4.93490
     2012.16427        -0.34178         4.98133
     2012.16700        -4.84360         4.98952
     2012.16974        -7.26842         4.90941
     2012.17248        -7.48024         4.90850
     2012.17522        -7.23906         4.94856
     2012.17796        -4.10587         4.94673
     2012.18069        -4.39769         4.92944
     2012.18343        -6.08851         4.93763
     2012.18617        -5.40533         4.97495
     2012.18891        -7.12915         4.95766
     2012.19164        -0.93397         4.96403
     2012.19438        -1.02079         4.96130
     2012.19712         7.44239         4.93581
     2012.19986         2.94057         4.91669
     2012.20260        -5.62025         4.92853
     2012.20533         0.38993         4.91214
     2012.20807        -0.90489         4.89758
     2012.21081         0.44129         4.87755
     2012.21355        -2.45752         4.89211
     2012.21629         0.77066         4.88301
     2012.21902        -5.21116         4.86389
     2012.22176        -3.64898         4.87937
     2012.22450       -11.08480         4.87118
     2012.22724        -7.18662         4.88483
     2012.22997        -2.33144         4.87118
     2012.23271        -2.08226         4.89940
     2012.23545        -0.31108         4.91669
     2012.23819        -1.54090         4.90850
     2012.24093        -2.50372         4.88847
     2012.24366        -1.88354         4.90395
     2012.24640        -3.01536         4.87118
     2012.24914        -2.52317         4.91032
     2012.25188        -6.25199         4.90850
     2012.25462        -7.84781         4.91760
     2012.25735        -3.09263         4.84842
     2012.26009        -9.16045         4.82930
     2012.26283        -7.76027         4.87755
     2012.26557        -7.10509         4.87846
     2012.26830        -7.69091         4.90577
     2012.27104        -3.59473         4.96221
     2012.27378        -2.62855         4.85752
     2012.27652        -3.15937         4.86663
     2012.27926        -2.65319         5.02684
     2012.28199        -3.78900         4.88210
     2012.28473        -5.51082         4.87755
     2012.28747        -7.37364         4.88392
     2012.29021       -10.45846         4.87573
     2012.29295       -10.27228         4.87482
     2012.29568        -6.42110         4.88119
     2012.29842        -8.36592         4.87482
     2012.30116        -8.47474         4.88665
     2012.30390       -12.55856         4.86845
     2012.30663        -5.56138         4.87755
     2012.30937         0.47280         4.88938
     2012.31211        -1.78402         5.03777
     2012.31485        -1.05984         4.98588
     2012.31759        -6.25065         4.84751
     2012.32032        -6.90347         4.99680
     2012.32306        -8.64029         4.91487
     2012.32580        -9.72311         4.86754
     2012.32854        -8.13493         4.91578
     2012.33128        -3.88175         4.92762
     2012.33401        -7.27157         4.98770
     2012.33675        -8.51939         4.95129
     2012.33949       -10.59021         4.87573
     2012.34223       -13.70003         4.84751
     2012.34496       -13.69885         4.82202
     2012.34770       -10.38167         4.89758
     2012.35044        -6.68749         4.89302
     2012.35318        -8.06830         4.91578
     2012.35592        -6.08712         4.83021
     2012.35865        -5.70094         4.82384
     2012.36139        -6.35376         4.80017
     2012.36413        -5.36758         4.88938
     2012.36687        -8.79640         4.87573
     2012.36961        -8.09222         4.85479
     2012.37234        -3.11804         4.83658
     2012.37508        -3.14086         4.82202
     2012.37782        -6.26168         4.95220
     2012.38056        -9.31250         4.99134
     2012.38329        -4.62032         4.97495
     2012.38603        -9.10214         5.06872
     2012.38877       -12.09995         4.95402
     2012.39151        -4.74077         4.91487
     2012.39425       -10.02459         4.97951
     2012.39698        -4.46241         4.94764
     2012.39972        -6.34923         4.86116
     2012.40246       -12.07005         4.83841
     2012.40520        -8.09687         4.79562
     2012.40794        -7.17969         4.84660
     2012.41067        -4.24451         4.85479
     2012.41341        -7.12033         4.87664
     2012.41615        -7.32315         4.90577
     2012.41889        -1.85297         4.96130
     2012.42162        -1.99378         4.84751
     2012.42436        -5.48760         4.88665
     2012.42710        -4.36742         4.85388
     2012.42984        -5.52124         4.83021
     2012.43258       -11.56606         4.87755
     2012.43531       -11.26788         4.82475
     2012.43805        -6.40770         4.78925
     2012.44079       -13.27852         4.83932
     2012.44353        -8.69034         4.86480
     2012.44626        -7.79116         4.87300
     2012.44900        -7.19398         4.84387
     2012.45174        -7.46080         4.84023
     2012.45448        -4.92962         4.84933
     2012.45722        -6.86443         4.91669
     2012.45995        -6.52225         5.02229
     2012.46269        -4.08507         4.84387
     2012.46543        -7.65789         4.88574
     2012.46817        -3.55471         4.82111
     2012.47091        -6.35453         4.86845
     2012.47364        -5.11035         4.89667
     2012.47638        -6.19017         4.88119
     2012.47912        -1.42599         4.83294
     2012.48186        -6.82781         4.82020
     2012.48459        -4.05763         4.82657
     2012.48733        -8.02745         4.83932
     2012.49007        -4.40827         4.85934
     2012.49281        -6.01508         4.84114
     2012.49555        -4.50990         4.87755
     2012.49828         0.42228         4.84751
     2012.50102        -1.29454         4.84296
     2012.50376        -7.51736         4.83841
     2012.50650        -8.52918         4.84751
     2012.50924        -4.69300         4.94127
     2012.51197        -4.12482         4.92853
     2012.51471        -3.60564         4.86207
     2012.51745        -2.40746         4.88210
     2012.52019        -3.92828         4.87391
     2012.52292        -3.01510         4.81838
     2012.52566         2.97108         4.82475
     2012.52840        -1.04273         4.82293
     2012.53114        -0.34355         4.83841
     2012.53388         0.78363         4.86298
     2012.53661        -4.79719         4.86207
     2012.53935        -1.27801         4.88756
     2012.54209        -0.32583         4.86663
     2012.54483         1.46035         4.87300
     2012.54757         1.05553         4.89667
     2012.55030        -2.42129         4.89940
     2012.55304        -2.38111         4.82930
     2012.55578        -4.19693         4.81656
     2012.55852        -6.58975         4.82293
     2012.56125         2.05643         4.85388
     2012.56399        -0.12738         4.83112
     2012.56673         2.37480         4.87482
     2012.56947        -3.05102         4.84387
     2012.57221        -1.36484         4.83476
     2012.57494        -1.54666         4.85661
     2012.57768        -5.60448         4.84205
     2012.58042         1.92070         4.82839
     2012.58316        -1.46512         4.85206
     2012.58590        -0.02894         4.86936
     2012.58863         5.06924         4.84478
     2012.59137         8.09042         4.84387
     2012.59411         3.81560         4.82384
     2012.59685         7.32779         4.86298
     2012.59958        -1.65303         4.84205
     2012.60232         7.12015         5.02684
     2012.60506         1.65133         4.84569
     2012.60780         0.72751         4.82475
     2012.61054         8.09469         4.81838
     2012.61327         5.68987         4.83112
     2012.61601         7.20105         4.84478
     2012.61875         8.60723         4.84296
     2012.62149        10.00041         4.83932
     2012.62423        11.84959         4.91942
     2012.62696         8.34077         4.90668
     2012.62970        10.03895         4.93217
     2012.63244         6.88514         4.91032
     2012.63518         8.49032         4.85297
     2012.63791         4.19850         4.83749
     2012.64065         5.62768         4.85297
     2012.64339         9.44286         4.82748
     2012.64613         6.68604         4.85843
     2012.64887         9.25922         4.85479
     2012.65160        10.33140         4.88119
     2012.65434         6.17858         4.85843
     2012.65708         6.04776         4.96858
     2012.65982         6.03294         4.95857
     2012.66256         6.31812         4.88938
     2012.66529         6.43130         4.89029
     2012.66803         8.08749         4.87664
     2012.67077         8.58167         4.88756
     2012.67351         9.00685         4.85115
     2012.67624         7.58903         4.83112
     2012.67898        10.57121         4.85297
     2012.68172        11.77039         4.86480
     2012.68446        11.59857         4.86571
     2012.68720         6.47775         4.89485
     2012.68993         7.24893         4.85752
     2012.69267         6.85611         4.94400
     2012.69541         6.51629         4.95766
     2012.69815         8.78647         4.95766
     2012.70089         6.29165         4.95675
     2012.70362         2.35384         4.89029
     2012.70636         3.42902         4.84478
     2012.70910         6.56020         4.85115
     2012.71184        12.95538         4.87209
     2012.71457        10.75456         4.84387
     2012.71731        12.27274         4.83203
     2012.72005         9.51892         4.80563
     2012.72279         7.65510         4.83476
     2012.72553         6.72328         4.84114
     2012.72826        12.91846         5.00317
     2012.73100        11.80264         4.94127
     2012.73374         5.52582         4.95402
     2012.73648         7.18401         4.85206
     2012.73921         8.62519         4.92307
     2012.74195         9.90837         4.93581
     2012.74469         8.67755         4.86298
     2012.74743         7.71273         4.85115
     2012.75017         6.89991         4.86936
     2012.75290         9.49609         4.89029
     2012.75564         5.79527         4.85115
     2012.75838         6.19145         4.87391
     2012.76112         9.08763         4.82839
     2012.76386         8.13281         4.82748
     2012.76659        11.79699         4.92398
     2012.76933         9.96817         4.93672
     2012.77207        12.69336         4.92216
     2012.77481        10.11954         4.90577
     2012.77754         8.90772         4.89394
     2012.78028        10.64290         4.92125
     2012.78302         6.29008         4.91942
     2012.78576         1.93426         4.91760
     2012.78850         9.17244         4.95493
     2012.79123         4.56462         5.09785
     2012.79397         7.37980         4.90122
     2012.79671         7.73398         4.92489
     2012.79945         7.82016         4.94400
     2012.80219         6.54034         4.97131
     2012.80492        10.04552         4.95584
     2012.80766         0.34371         4.98224
     2012.81040         3.02789         4.94582
     2012.81314        -0.80893         4.99225
     2012.81587        -2.69675         4.94856
     2012.81861        -1.57557         5.03595
     2012.82135        -0.81139         4.98861
     2012.82409         1.89679         5.02138
     2012.82683         0.73597         5.01410
     2012.82956         0.01515         4.93763
     2012.83230         2.67733         4.92033
     2012.83504        -0.03949         4.97769
     2012.83778         6.16069         5.00226
     2012.84052         3.47387         5.04232
     2012.84325         0.05906         4.96949
     2012.84599         0.54024         4.98406
     2012.84873         5.07542         4.98224
     2012.85147         5.09960         5.07236
     2012.85420         0.77978         4.95857
     2012.85694         4.66296         4.97131
     2012.85968         3.10314         4.96858
     2012.86242        -0.79468         4.95766
     2012.86516         5.65150         4.97586
     2012.86789        -0.00532         5.09421
     2012.87063        -1.24114         4.89302
     2012.87337        -4.44896         4.95129
     2012.87611         6.79723         4.94856
     2012.87885         3.94641         4.91396
     2012.88158         6.18359         4.86025
     2012.88432         5.13677         4.93763
     2012.88706        -1.33805         5.07327
     2012.88980         5.79813         5.05415
     2012.89253        -2.04569         4.94582
     2012.89527         3.51349         4.91032
     2012.89801        -1.02933         4.88210
     2012.90075         1.78485         4.98497
     2012.90349        -0.60197         4.96312
     2012.90622         4.13021         4.93945
     2012.90896         7.31739         5.00864
     2012.91170         4.71058         4.97313
     2012.91444         6.41376         4.91669
     2012.91718         7.68094         4.87209
     2012.91991         7.72112         4.90395
     2012.92265        -0.69370         4.88665
     2012.92539         0.65448         4.87573
     2012.92813         0.94466         4.87482
     2012.93086        -5.83716         4.98770
     2012.93360        -8.44598         4.97222
     2012.93634         2.37220         4.86845
     2012.93908         2.30838         4.90759
     2012.94182        -2.38744         4.87846
     2012.94455         7.17874         4.88574
     2012.94729         6.48093         4.95402
     2012.95003         3.02011         4.93672
     2012.95277         7.39929         4.83021
     2012.95551         9.76947         4.84933
     2012.95824         9.49565         4.83021
     2012.96098        11.93983         5.03322
     2012.96372         9.70701         4.97131
     2012.96646        13.11719         4.85934
     2012.96919        10.70337         4.95584
     2012.97193         9.53655         4.96403
     2012.97467        19.90473         4.86480
     2012.97741        12.13291         4.85661
     2012.98015        14.68609         4.84478
     2012.98288        20.44728         4.85206
     2012.98562         5.36546         4.85479
     2012.98836         5.65164         4.85115
     2012.99110         1.36082         4.83658
     2012.99384        -0.36100         4.84933
     2012.99657         0.74118         4.87482
     2012.99931        -0.75864         4.87937
     2013.00205         1.23054         4.88665
     2013.00479         2.85172         4.89211
     2013.00752         3.48390         4.88756
     2013.01026        -0.65792         4.86480
     2013.01300         1.03626         4.88392
     2013.01574         3.08145         4.85934
     2013.01848        -1.38337         4.91578
     2013.02121        -2.21119         4.86298
     2013.02395        -0.15601         4.92216
     2013.02669         6.04617         4.98679
     2013.02943        11.71835         4.88665
     2013.03216         6.99553         4.88301
     2013.03490         7.25671         4.89029
     2013.03764         0.18989         4.86389
     2013.04038        -8.19093         4.89029
     2013.04312        -9.23575         4.99407
     2013.04585        -5.37357         4.99134
     2013.04859        -6.40339         5.00226
     2013.05133        -4.92520         4.87482
     2013.05407        -3.59102         4.87118
     2013.05681        -0.02184         4.88028
     2013.05954        -1.35766         4.93581
     2013.06228        -3.18848         5.03504
     2013.06502        -4.03830         5.03231
     2013.06776        -8.77012         4.91487
     2013.07049         0.22906         4.95493
     2013.07323         0.96324         4.88574
     2013.07597         9.10542         4.87118
     2013.08145        -1.78122         4.85752
     2013.08418        -7.86504         4.84205
     2013.08692        -4.68685         4.88483
     2013.08966        -8.02667         4.86480
     2013.09240        -2.54249         4.87755
     2013.09514         1.54869         4.89029
     2013.09787        -1.89813         5.06872
     2013.10061        -1.33095         5.18524
     2013.10335        -3.92077         4.95766
     2013.10609        -5.93059         4.86389
     2013.10882        -2.16841         4.87755
     2013.11156       -10.69923         4.95402
     2013.11430        -6.39405         4.86845
     2013.11704        -9.45887         4.92580
     2013.11978        -9.53069         5.04778
     2013.12251        -9.49250         4.92216
     2013.12525       -11.09532         4.89485
     2013.12799        -6.12414         4.88028
     2013.13073        -1.59196         4.93035
     2013.13347        -6.09478         4.90122
     2013.13620         0.35840         4.89667
     2013.13894        -2.42042         4.90395
     2013.14168         1.39776         4.96858
     2013.14442         5.73494         5.05597
     2013.14989        16.27730         4.90941
     2013.15263        -4.13952         4.88847
     2013.15537        -7.04133         4.88483
     2013.15811        -9.74515         4.92398
     2013.16084       -13.51997         4.89211
     2013.16358        -7.56079         4.92580
     2013.16632       -11.01861         4.87391
     2013.16906        -2.97143         4.86936
     2013.17180        -2.60725         4.89758
     2013.17453        -1.05607         4.86845
     2013.17727        -4.44089         4.97313
     2013.18001        -3.36471         4.96858
     2013.18275        -3.17853         4.84569
     2013.18548        -3.69335         4.83385
     2013.18822        -7.15717         4.90486
     2013.19096        -6.52398         4.88392
     2013.19370        -3.61780         4.87118
     2013.19644        -7.55962         4.91123
     2013.19917        -2.64144         4.88574
     2013.20191        -7.24126         4.89302
     2013.20465        -0.74508         4.85388
     2013.20739        -1.54590         4.87118
     2013.21013        -2.06672         4.85752
     2013.21286        -3.98154         4.83021
     2013.21560        -4.55336         4.87937
     2013.21834        -6.92318         4.84569
     2013.22108       -10.12200         4.81929
     2013.22381       -10.37882         4.84478
     2013.22655        -7.36263         4.86116
     2013.22929        -4.73245         4.83932
     2013.23203        -6.47727         4.80927
     2013.23477        -6.97309         4.82839
     2013.23750        -7.13391         4.96130
     2013.24024        -8.73473         4.95311
     2013.24298        -7.59755         4.95766
     2013.24572         0.64563         4.96312
     2013.24846        -1.55219         4.93490
     2013.25119        -6.19501         4.92944
     2013.25393        -3.87283         4.94856
     2013.25667        -4.07965         5.09512
     2013.25941        -0.86147         4.97951
     2013.26214        -1.99528         4.94036
     2013.26488         0.67990         4.92671
     2013.26762        -2.66892         4.92580
     2013.27036        -5.45374         4.92671
     2013.27310        -6.44456         5.16430
     2013.27583        -0.90138         4.99316
     2013.27857        -2.67020         5.00135
     2013.28131        -2.43302         4.91032
     2013.28405        -2.37684         4.91669
     2013.28679         0.95234         4.93854
     2013.28952        -4.52448         4.92762
     2013.29226        -9.48130         4.95038
     2013.29500        -8.30212         4.94491
     2013.29774       -12.11993         4.93672
     2013.30047        -9.15875         4.94309
     2013.30321       -14.37557         4.94036
     2013.30595       -12.64639         4.96130
     2013.30869        -6.42121         4.93308
     2013.31143       -11.76603         4.90486
     2013.31416        -3.14985         4.93035
     2013.31690        -4.02267         4.94309
     2013.31964        -4.77749         4.93581
     2013.32238        -5.75531         4.97040
     2013.32512        -3.91013         4.91396
     2013.32785        -6.17895         4.92671
     2013.33059        -8.61076         4.90031
     2013.33333        -9.83458         4.93035
     2013.33607        -9.42340         4.94856
     2013.33880        -1.28622         4.98679
     2013.34154         5.38596         4.93035
     2013.34428        -1.16386         4.90031
     2013.34702        -6.66868         4.93217
     2013.34976        -6.96850         4.91032
     2013.35249        -7.68532         4.93217
     2013.35523        -2.38814         5.00955
     2013.35797        -5.15296         4.93035
     2013.36071        -5.54178         4.90759
     2013.36344         0.04640         4.96585
     2013.36618        -1.66041         4.92944
     2013.36892        -1.88723         4.92216
     2013.37166        -6.81305         4.91669
     2013.37440        -6.46987         4.98497
     2013.37713        -9.91369         4.90122
     2013.38106        -3.53057        14.21754
     2013.38261        -9.15233         4.93581
     2013.38535        -8.11115         4.97586
     2013.38809        -8.25097         4.89029
     2013.39082        -7.32779         4.87755
     2013.39356       -10.78061         4.91760
     2013.39630        -5.63943         4.92944
     2013.39904        -5.54525         4.94218
     2013.40177        -4.72606         4.90122
     2013.40451        -7.19988         4.92489
     2013.40725       -12.52470         5.05142
     2013.40999        -6.44652         4.92944
     2013.41273        -6.12134         4.92398
     2013.41546        -7.60916         5.01774
     2013.41820        -7.18398         4.97222
     2013.42094        -2.32680         4.94673
     2013.42368        -6.23462         4.95220
     2013.42642        -4.73444         4.98952
     2013.42915        -1.76926         4.98861
     2013.43189        -3.39708         4.99771
     2013.43463         1.03510         4.99407
     2013.43737        -2.35271         4.93308
     2013.44010        -3.27453         4.93217
     2013.44284        -1.80335         4.98133
     2013.44558        -4.24317         5.02684
     2013.44832       -10.84499         4.96130
     2013.45106        -4.42981         4.92580
     2013.45379        -5.02363         4.93490
     2013.45653        -7.85945         4.92489
     2013.45927        -4.59427         4.99407
     2013.46201        -2.57609         4.99316
     2013.46475        -2.46891         4.98042
     2013.46748        -7.98473         4.91123
     2013.47022        -7.31154         4.93126
     2013.47188         1.57277        12.81472
     2013.48788        11.17152        16.42964
     2013.48939        -2.54828         4.89394
     2013.49212        -4.94910         4.92853
     2013.49486        -1.63692         4.89849
     2013.49760         0.79726         4.92580
     2013.50034        -2.50856         4.86845
     2013.50308        -2.62838         4.88392
     2013.50581         1.41281         4.88665
     2013.50855        -3.37601         4.87300
     2013.51129         0.45817         4.88028
     2013.51403        -1.02065         4.87027
     2013.51676        -4.73947         4.89485
     2013.51950        -0.34229         4.88392
     2013.52224         2.81289         4.87846
     2013.52498        -0.31793         5.00500
     2013.52772         0.69425         4.89576
     2013.53045        -4.33857         4.92033
     2013.53319        -2.67539         4.90668
     2013.53593         3.35479         4.87482
     2013.53867        -2.12203         4.92307
     2013.54141        -0.49584         4.92398
     2013.54414         0.84734         4.90395
     2013.54688        -2.43548         4.89849
     2013.54962         3.35070         4.88847
     2013.55236         3.37788         4.87937
     2013.55509         1.18306         4.87664
     2013.55783         4.26424         4.89302
     2013.56057        -0.05558         5.03595
     2013.56331         1.25160         5.01319
     2013.56605        -0.06822         4.95311
     2013.56878         2.16096         4.95038
     2013.57152         4.95714         4.87482
     2013.57426         5.36932         4.91214
     2013.57700         3.00351         4.89576
     2013.57974         4.37269         4.90395
     2013.58247         5.02787         4.99134
     2013.58521         3.10005         4.88301
     2013.58795         0.33023         4.88210
     2013.59069         2.14241         4.91487
     2013.59342         7.26659         4.91487
     2013.59616         4.43277         4.95675
     2013.59890         1.12895         4.93672
     2013.60164         4.83813         4.95129
     2013.60438         9.15031         4.93763
     2013.60711         5.41449         4.93854
     2013.60985         4.63368         4.92944
     2013.61259         7.70086         4.93490
     2013.61533         9.09804         5.05324
     2013.61807         6.43422         5.05233
     2013.62080         6.44240         4.96767
     2013.62354         2.21658         5.00591
     2013.62628         4.27076         4.94400
     2013.62902         2.38594         4.97040
     2013.63175         3.89512         4.89394
     2013.63449         5.05330         5.09967
     2013.63723         9.37548         4.88119
     2013.63997        14.05366         4.94673
     2013.64271         8.31184         4.95038
     2013.64544        11.16603         4.92580
     2013.64818         6.97121         4.91123
     2013.65092         5.63739         5.00591
     2013.65366         9.31057         4.89302
     2013.65639        10.22075         4.92033
     2013.65913        11.91993         5.11059
     2013.66187         6.53311         4.92671
     2013.66461         6.48629         4.91942
     2013.66735         7.43047         4.95220
     2013.67008         9.36865         4.90304
     2013.67282        13.31283         5.08510
     2013.67556         9.22901         5.03140
     2013.67830         9.23619         4.96949
     2013.68104         8.74038         4.92853
     2013.68377         8.14756         4.87391
     2013.68651        11.97574         4.88301
     2013.68925         8.50492         4.88938
     2013.69199         7.90610         4.87937
     2013.69472         7.63228         4.91396
     2013.69746         7.36146         4.92033
     2013.70020        11.81064         4.89940
     2013.70294         9.08582         4.90304
     2013.70568        11.60700         5.00226
     2013.70841         6.59918         4.91851
     2013.71115         7.44936         4.92125
     2013.71389         7.05654         4.89849
     2013.71663         9.42773         4.92216
     2013.71937         8.68091         4.89849
     2013.72210        12.87209         4.93126
     2013.72484        11.20227         4.95129
     2013.72758         3.86845         4.93945
     2013.73032         6.48663         4.87482
     2013.73305         7.05481         4.87846
     2013.73579         7.02599         4.86389
     2013.73853         2.87517         4.89849
     2013.74127         3.53535         4.91305
     2013.74401        13.24053         5.00955
     2013.74674         6.56971         4.96585
     2013.74948         0.02590         4.90941
     2013.75222        -2.39792         4.91851
     2013.90554        -0.12280         4.92125
     2013.90828         3.90538         4.91578
     2013.91102         0.66556         4.90577
     2013.91375        -2.99226         4.90213
     2013.91649        -2.62908         4.88847
     2013.91923        -0.40190         5.03322
     2013.92197         3.63328         5.00135
     2013.92470         1.13647         4.89302
     2013.92744         1.70465         5.02229
     2013.93018         2.70983         4.85661
     2013.93292         0.20301         4.86025
     2013.93566         0.76819         4.91305
     2013.93839         0.94037         4.88847
     2013.94113        -2.51645         4.88847
     2013.94387         0.23373         4.89120
     2013.94661         1.33291         4.96312
     2013.94935        -2.20391         4.89302
     2013.95208         0.29027         4.89120
     2013.95482        -0.15355         4.97769
     2013.95756        -0.52237         4.90577
     2013.96030        -0.13418         4.87482
     2013.96303         3.65700         4.89394
     2013.96577         4.12018         4.92307
     2013.96851         9.32036         4.93490
     2013.97125         3.45854         4.89029
     2013.97399        -3.46528         4.93490
     2013.97672        -8.14610         4.88938
     2013.97946        -2.46892         4.88301
     2013.98220        -0.30074         4.94036
     2013.98494        -0.27056         4.90850
     2013.98767        -4.24038         4.90850
     2013.99041        -5.76720         4.92033
     2013.99315        -8.23802         4.88938
     2013.99589        -2.98083         4.91760
     2013.99863        -3.30065         4.93854
     2014.00410        -2.83329         4.91032
     2014.00684        -6.75711         5.09876
     2014.00958        -1.91093         4.91305
     2014.01232        -4.57775         4.97769
     2014.01505        -1.73657         5.01319
     2014.01779        -6.03739         5.01865
     2014.02053        -3.04921         4.91578
     2014.02327         1.21797         5.06872
     2014.02600         3.47615         5.04505
     2014.02874         8.61333         4.94036
     2014.03148         7.32352         4.91214
     2014.03422        -8.91930         4.91851
     2014.03696        -4.24112         4.92671
     2014.03969        -2.30294         4.92398
     2014.04243         1.82424         5.08419
     2014.04517         5.36142         5.05870
     2014.04791         0.40660         4.91487
     2014.05065        -0.79422         4.88665
     2014.05338        -2.24004         4.88756
     2014.05612        -2.64886         4.92580
     2014.05886        -2.60768         4.92853
     2014.06160         1.80250         4.92125
     2014.06433         4.32769         5.06508
     2014.06707         1.30487         5.04869
     2014.06981         1.92505         4.98315
     2014.07255         1.67023         4.91032
     2014.07529         0.17441         4.90122
     2014.07802         1.35759         4.93217
     2014.08076         1.93777         4.92580
     2014.08350         2.18595         4.93126
     2014.08624        -3.37887         5.01410
     2014.08898        -1.26669         5.13153
     2014.09171         3.80149         5.11150
     2014.09445         5.60967         4.93854
     2014.09719         9.32385         5.03322
     2014.09993        13.38404         4.96767
     2014.10266        15.04322         5.04414
     2014.10814         0.14358         4.95038
     2014.11088        -0.72724         5.04596
     2014.11362        -3.04706         4.93672
     2014.11635         0.22412         4.92944
     2014.11909         0.09630         4.92671
     2014.12183         0.89248         4.95766
     2014.12457         3.08166         4.91032
     2014.12731         1.80584         4.89485
     2014.13004         1.29602         4.92944
     2014.13278         0.25420         5.07418
     2014.13552         8.11839         5.01319
     2014.13826        -4.39843         4.93945
     2014.14099        -3.75025         4.87664
     2014.14373         0.36293         4.93308
     2014.14647        -0.19589         4.98224
     2014.14921        -5.09871         4.95311
     2014.15195        -3.06953         4.94309
     2014.15468         1.12165         4.98588
     2014.15742         2.22083         4.95948
     2014.16016         5.93201         5.11970
     2014.16290         0.65519         5.00864
     2014.16564        -4.56863         4.95220
     2014.16837        -8.11045         5.11515
     2014.17111        -2.25126         5.08146
     2014.17385        -1.92608         5.11424
     2014.17659        -0.97690         5.02684
     2014.17932         0.33128         5.20345
     2014.18206        -2.48154         5.04505
     2014.18480        -5.77236         4.95493
     2014.18754       -10.34518         4.97586
     2014.19028        -3.23700         4.94673
     2014.19301        -1.16582         4.93308
     2014.19575         1.48336         4.94036
     2014.19849        -2.47746         4.98042
     2014.20123        -5.90928         4.94582
     2014.20397        -5.30309         4.96130
     2014.20670        -0.86391         4.96221
     2014.20944        -1.08373         5.00317
     2014.21218         0.47645         4.94582
     2014.21492        -3.11537         5.08328
     2014.21765         1.55381         4.98406
     2014.22039        -1.61801         4.97040
     2014.22313        -1.11983         4.94127
     2014.22587         0.84435         4.92216
     2014.22861         1.29953         4.99680
     2014.23134         3.08271         4.93763
     2014.23408         2.73789         4.97131
     2014.23682        -3.22293         4.94582
     2014.23956        -4.46474         5.10877
     2014.24230        -6.87656         4.91942
     2014.24503        -4.74438         4.92489
     2014.24777         2.56380         5.15156
     2014.25051        -5.80902         4.97040
     2014.25325        -6.55984         4.95311
     2014.25598        -2.06166         5.04687
     2014.25872        -8.30748         4.90395
     2014.26146        -6.59230         5.05506
     2014.26420        -6.40912         4.96130
     2014.26694        -2.95594         4.97678
     2014.26967        -4.95876         4.96494
     2014.27241        -5.89258         5.03413
     2014.27515        -4.05139         5.05415
     2014.27789         0.52079         4.94856
     2014.28062        -1.83603         4.96949
     2014.28336        -5.45685         4.96949
     2014.28610        -4.30967         5.04505
     2014.28884        -3.48549         5.16157
     2014.29158        -9.56731         4.93581
     2014.29431        -6.13213         4.99043
     2014.29705        -2.62395         5.02502
     2014.29979        -8.56577         4.98315
     2014.30253        -5.28959         4.94127
     2014.30527        -3.57241         4.94127
     2014.30800        -4.62123         4.94127
     2014.31074        -8.54704         5.02866
     2014.31348        -4.71286         4.95766
     2014.31622        -0.31468         4.91851
     2014.31895        -7.44050         4.93763
     2014.32169        -8.53132         5.02320
     2014.32443       -11.87014         5.02866
     2014.32717       -10.05596         5.08055
     2014.32991        -1.00578         4.93672
     2014.33264        -8.09960         4.95493
     2014.33538        -9.51042         4.93945
     2014.33812        -9.14824         5.10968
     2014.34086        -5.67906         4.95948
     2014.34360        -4.68287         4.92398
     2014.34633        -6.43469         4.93126
     2014.34907        -6.77851         5.05870
     2014.35181       -10.37033         5.09057
     2014.35455        -3.76215         4.95857
     2014.35728        -9.00097         4.94582
     2014.36002       -11.82479         4.92307
     2014.36276        -7.78761         4.93217
     2014.36550        -7.20343         4.94127
     2014.36824        -6.66825         5.00409
     2014.37097        -3.73607         4.97951
     2014.37371        -5.73489         4.98679
     2014.37645        -4.97071         4.95129
     2014.37919        -4.63552         4.95857
     2014.38193        -7.46434         4.99498
     2014.38466        -8.19116         5.00044
     2014.38740        -5.39398         5.01774
     2014.39014        -7.56080         5.06781
     2014.39288        -6.15562         4.98315
     2014.39561        -3.42044         5.01592
     2014.39835        -2.30526         5.11697
     2014.40109        -8.68108         4.99680
     2014.40383        -7.25390         5.02593
     2014.40657        -8.37972         5.02866
     2014.40930        -8.20754         4.97495
     2014.41204        -5.56736         4.92853
     2014.41478        -6.61117         4.92762
     2014.41752         0.17201         4.92398
     2014.42026        -3.28181         4.94400
     2014.42299        -5.30763         4.96585
     2014.42573        -0.90145         4.93217
     2014.42847         3.37673         4.93854
     2014.43121        -5.82909         4.93217
     2014.43394        -5.89891         4.96039
     2014.43668        -3.82973         4.97495
     2014.43942        -3.97755         4.94036
     2014.44216        -5.40737         4.93581
     2014.44490        -7.01419         5.09967
     2014.44763        -3.72901         5.05233
     2014.45037        -4.48782         4.94309
     2014.45311        -5.76364         4.93217
     2014.45585        -4.40046         4.94036
     2014.45859       -10.44728         4.92853
     2014.46132        -8.90410         4.92671
     2014.46406        -2.70092         4.95584
     2014.46680        -7.16374         4.93399
     2014.46954        -5.97256         4.95038
     2014.47227        -0.76938         4.93399
     2014.47501        -2.14320         4.95857
     2014.47775         0.55498         4.95584
     2014.48049        -4.45284         4.93399
     2014.48323        -0.53365         4.94856
     2014.48596        -0.75447         5.05962
     2014.48870        -1.00629         4.98679
     2014.49144        -2.02111         4.85206
     2014.49418        -2.75493         4.87300
     2014.49692        -3.23875         4.85297
     2014.49965        -7.43757         4.89758
     2014.50239        -5.82639         4.94036
     2014.50513        -2.81321         4.97131
     2014.50787        -2.01303         4.93854
     2014.51060        -2.54585         4.88483
     2014.51334         1.13533         4.85661
     2014.51608         0.38751         4.95038
     2014.51882         4.12570         4.91396
     2014.52156         4.00888         4.97586
     2014.52429         2.74606         4.89576
     2014.52703         4.80424         4.86389
     2014.52977         2.25542         5.06963
     2014.53251        -1.63740         4.91032
     2014.53525         2.00178         4.89394
     2014.53798         5.74596         4.92853
     2014.54072         5.14214         5.01683
     2014.54346         6.62132         4.88028
     2014.54620        -0.82150         4.91396
     2014.54893         4.83368         4.99407
     2014.55167         3.90086         5.01319
     2014.55441        -4.51295         4.94947
     2014.55715         1.03323         5.00409
     2014.55989        -2.23859         4.87027
     2014.56262         1.39859         4.90668
     2014.56536         0.43277         4.90031
     2014.56810        -1.77405         4.93126
     2014.57084         1.99113         4.90486
     2014.57357         0.69431         4.97040
     2014.57631         0.23649         4.92216
     2014.57905         6.62567         4.98042
     2014.58179         9.17485         5.07327
     2014.58453         5.66803         5.01774
     2014.58726         5.95921         5.22165
     2014.59000         4.31040         5.00317
     2014.59274         3.50358         5.09057
     2014.59548         6.91176         5.13517
     2014.59822         5.47194         5.04960
     2014.60095         1.28312         5.03322
     2014.60369         2.47130         4.97222
     2014.60643        -1.99252         4.97404
     2014.60917         7.46266         5.13062
     2014.61190         4.96984         5.20709
     2014.61464         4.75002         4.96494
     2014.61738         4.97920         5.11150
     2014.62012         5.23238         5.07054
     2014.62286         3.63456         4.95493
     2014.62559         5.11775         4.94947
     2014.62833         5.94793         5.03504
     2014.63107        10.47511         5.02411
     2014.63381         1.06529         5.15520
     2014.63655         8.51247         5.01046
     2014.63928         4.80765         4.94127
     2014.64202         4.60483         4.94309
     2014.64476         1.54101         4.91851
     2014.64750         5.98719         4.94127
     2014.65023         0.69937         4.93490
     2014.65297         6.35655         4.95493
     2014.65571         8.78873         4.96767
     2014.65845        10.20692         4.92216
     2014.66119         9.61010         4.99589
     2014.66392        10.79528         4.93854
     2014.66666         7.44746         4.93035
     2014.66940         3.44464         4.94309
     2014.67214         7.02582         4.97860
     2014.67488         5.40300         4.92216
     2014.67761         4.72118         4.95675
     2014.68035         6.69936         4.92033
     2014.68309         1.87354         4.93581
     2014.68583         0.24072         4.93854
     2014.68856         5.00290         4.94400
     2014.69130         5.17208         4.94764
     2014.69404         2.31027         4.92580
     2014.69678         0.61645         4.93581
     2014.69952         7.81763         4.92398
     2014.70225         6.86481         4.89576
     2014.70499         7.40199         4.92853
     2014.70773        10.67517         4.89302
     2014.71047         8.81335         4.99680
     2014.71321         7.94153         4.88028
     2014.71594         3.86871         4.99134
     2014.71868         9.60089         4.87118
     2014.72142        10.82807         4.88483
     2014.72416        10.41725         4.94036
     2014.72689        13.47643         5.03595
     2014.72963         1.82162         4.93581
     2014.73237         7.87080         4.97860
     2014.73511         2.48998         4.85843
     2014.73785         3.78816         4.92307
     2014.74058         0.75934         4.96858
     2014.74332        -1.75948         4.99589
     2014.74606         7.40770         4.95766
     2014.74880         3.54888         4.88938
     2014.75154         3.31106         5.01774
     2014.75427         5.75924         4.90486
     2014.75701         3.48842         4.92398
     2014.75975         8.18260         4.96676
     2014.76249         6.53078         4.90577
     2014.76522         6.20397         4.89394
     2014.76796         7.38315         4.91123
     2014.77070         4.79933         4.93581
     2014.77344         4.35051         4.90486
     2014.77618        10.83269         5.10877
     2014.77891         8.75387         4.90304
     2014.78165         4.75905         4.88483
     2014.78439         6.38023         4.99316
     2014.78713         7.73341         4.89940
     2014.78987         4.56059         4.90668
     2014.79260         4.94177         4.92580
     2014.79534         6.88995         4.87118
     2014.79808         5.47314         4.98952
     2014.80082         9.02332         4.96130
     2014.80355         4.07150         5.01046
     2014.80629         5.13168         4.99498
     2014.80903         4.90486         4.90850
     2014.81177         3.90304         4.90304
     2014.81451        17.41222         4.91669
     2014.81724         7.13240         4.97131
     2014.81998         7.60558         4.91760
     2014.82272         7.60376         5.15156
     2014.82546         5.51194         4.89576
     2014.82820         3.55112         4.85661
