# ================= DQRFIT RESULTS ================
# INPUT FILE: series/P664.rad
# OUTPUT: LDETRENDED
# FILTER FUNCTION: f(t)
# f(t)=+line(t)+annual(t)
# line(t)=+P 1+P 2*t
# annual(t)=+P 3*sin(2*pi*t+P 4)
# heav(t)=(t<0?0:1)
# TOTAL OBSERVATIONS MTOT= 3155
# INITIAL TIME INTERVAL= 2022.7488 - 2007.7618 = 14.9870
# TOTAL OBSERVATIONS AFTER PREFILTER M= 3054
# TIME-SPAN= 2022.7488 - 2007.7618 = 14.9870
# OBSERVATIONS: USED M=  3054 REJECTED MTOT-M=   101 %USED=   96.7987
# N=  4 PARAMETERS
# MAXSIG= 175.00000
# MAXRES= 105.34320
# SCALE FACTOR FOR LENGTHS: SCL=  10.00000
# SCALE FACTOR FOR SIGMAS: SCLSIG=   1.00000
# CHI^2=   8000.728 DOF=  3050 CHI^2/DOF=   2.62319
# RMS=     11.634 SDEV=     11.635 MEAN=   -0.15729
#  P #       PARAMETER +-    SIGMA %error PARAMETER NAME
# P 1 =     17750.01187 +-  106.047   0.60 YZERO                              
# P 2 =        -8.81552 +-    0.053   0.60 SLOPE                              
# P 3 =         2.92191 +-    0.329  11.26 ANNUAL AMPLITUDE                   
# P 4 =         2.83405 +-    0.154   5.45 ANNUAL PHASE                       
#       T            LDETRENDED       SIG_OBS
     2007.76180         6.85336        10.10971
     2007.76454         0.13449        10.14534
     2007.76728         1.69563        10.72031
     2007.77002         4.30377        10.99888
     2007.77275         0.50690        10.71059
     2007.77549         2.13104        10.30730
     2007.77823         1.24117        10.37695
     2007.78097         6.23231        10.26519
     2007.78371         4.37844        10.19555
     2007.78644         7.04958        10.15344
     2007.78918        12.17671        10.13238
     2007.79192         4.33985        10.50814
     2007.79466         6.33699        10.55834
     2007.79739         6.57712        10.26357
     2007.80013         9.35226        10.20527
     2007.80287        -0.11061        10.18097
     2007.80561         3.68953        10.12266
     2007.80835         2.04166        10.30892
     2007.81108         0.69180        10.39800
     2007.81382         0.16593        10.26357
     2007.81656         3.35607        10.47736
     2007.81930         7.42821        10.24900
     2007.82203         0.02434        10.24414
     2007.82477       -13.95052        10.42715
     2007.82751        -3.39039        10.38019
     2007.83025         3.52975        10.25547
     2007.83299         2.61588        10.29920
     2007.83572        -0.18098        10.04006
     2007.83846         0.30716        10.28139
     2007.84120         0.62529        10.20689
     2007.84394        -3.55857        10.13886
     2007.84668        -1.95744        10.15668
     2007.84941        -5.22930         9.99309
     2007.85215        -0.83017        10.20365
     2007.85489        -6.59403        10.32026
     2007.85763        -7.27190        10.10809
     2007.86036        -1.71276         9.98176
     2007.86310         1.54238        10.14048
     2007.86584        -9.96749        10.49518
     2007.86858        -4.24035        10.09027
     2007.87132        -2.67122        10.03844
     2007.87405        -2.48908        10.08865
     2007.87679        -5.87295        10.08217
     2007.87953       -12.81281        10.16963
     2007.88227        -5.92168        10.37695
     2007.88501        -6.57354         9.91373
     2007.88774        -2.21740        10.12104
     2007.89048        -5.84827         9.95422
     2007.89322        -3.50413        10.23118
     2007.89596        -1.18200        10.27167
     2007.89869        -6.27186        10.03197
     2007.90143        -4.85673        10.09675
     2007.90417        -4.23959        10.07570
     2007.90691        -6.92946        10.08055
     2007.90965        -9.80432        10.19393
     2007.91238        -2.73718        10.04816
     2007.91512        -4.99605        10.02549
     2007.91786        -3.55391        10.08379
     2007.92060        12.26022        10.93248
     2007.92334       -13.77264        10.55187
     2007.92607        -3.35651        10.21498
     2007.92881        -3.50137        10.28139
     2007.93155        -1.70523        10.15992
     2007.93429        -2.77910        10.24252
     2007.93702        -7.20896        10.31216
     2007.93976        -5.08183        10.24576
     2007.94250        -4.61069        10.21822
     2007.94524        -2.98756        10.62313
     2007.94798       -10.72642        10.40610
     2007.95071        -5.00329        10.41420
     2007.95345        -0.18215        10.47736
     2007.95619        -3.45801        10.29111
     2007.95893         3.02512        10.42391
     2007.96167         4.58226        10.36399
     2007.96440         0.53639        10.37047
     2007.96714        -4.76847        10.91466
     2007.96988        -9.88034        10.47250
     2007.97262       -19.38020        10.39962
     2007.97535        -9.81607        10.36885
     2007.97809        -3.85593        10.16154
     2007.98083        -2.14579        10.19393
     2007.98357        -3.22666         9.98176
     2007.98631        -0.93652        10.42553
     2007.98904        -2.82639        10.48546
     2007.99178        -4.44925        10.34941
     2007.99452        -3.76012        10.56644
     2007.99726        -7.69398        10.12914
     2008.00000       -13.47785        10.10161
     2008.00273       -11.21371        10.25223
     2008.00547        -3.84057        10.15830
     2008.00821         0.80656         9.88620
     2008.01095        -3.50830        10.07246
     2008.01368        -7.60317        10.20689
     2008.01642        -2.57703        10.37695
     2008.01916        -8.73790        10.50004
     2008.02190        -8.10076        10.79319
     2008.02464        -5.73962        10.32674
     2008.02737        -9.46749        10.26033
     2008.03011       -15.18235        10.23604
     2008.03285       -16.46222        10.05302
     2008.03559       -11.62008        10.02387
     2008.03833       -10.45695        10.19393
     2008.04106       -17.23681        10.21012
     2008.04380       -13.53668        10.24576
     2008.04654       -11.24154        10.25385
     2008.04928       -16.19540        10.38828
     2008.05201       -13.84327         9.97690
     2008.05475       -23.67813         9.98176
     2008.05749       -34.95400        10.16154
     2008.06023       -11.65486        10.01739
     2008.06297        -9.89773         9.98338
     2008.06570        -9.57159         9.93317
     2008.06844        -7.55146        10.09351
     2008.07118        -8.07332        10.16316
     2008.07392       -11.65618        10.14210
     2008.07666       -10.40405        10.54701
     2008.07939        12.78909        10.80777
     2008.08213         6.84222        10.34293
     2008.08487        34.03636        10.12266
     2008.08761        38.47849        10.17287
     2008.09034        35.46063        10.73326
     2008.09308        40.81676        10.40124
     2008.09582        37.14490        10.32998
     2008.09856        31.85604        10.35103
     2008.10130        23.49717        10.40772
     2008.10403        17.83831        10.05626
     2008.10677        27.42544        10.15344
     2008.10951        16.09658        10.38342
     2008.11225        18.07971        10.30082
     2008.11498        46.35985        10.36399
     2008.11772        33.81999        10.25385
     2008.12046        21.59612        10.17935
     2008.12320        16.10126        10.71545
     2008.12594       -17.81061        10.65066
     2008.13141       -16.23634        10.52919
     2008.13415       -13.64920        10.40772
     2008.13963       -15.26093        10.49842
     2008.14236         8.49721        10.73326
     2008.14510        17.05034        10.66362
     2008.14784        35.45748        10.76404
     2008.15058        45.36361        10.99564
     2008.15331        51.03475        11.05719
     2008.15605        36.37588        11.34386
     2008.15879        60.53402        11.53660
     2008.16153        34.94415        11.66293
     2008.16427        27.25629        11.15113
     2008.16700        34.63443        11.01670
     2008.16974        39.60156        11.41837
     2008.17248        42.58170        11.28232
     2008.17522        43.03483        11.56737
     2008.17796        29.59897        11.25154
     2008.18069        23.90610        11.25640
     2008.18343        21.75324        11.15275
     2008.18617        36.20337        11.21267
     2008.18891        83.87651        11.04261
     2008.19164        85.03565        11.24183
     2008.19438        40.51578        11.48639
     2008.19712        44.68392        11.42646
     2008.19986        57.59705        11.09606
     2008.20260        48.57119        10.73326
     2008.20533        54.77132        10.58588
     2008.20807        67.05046        12.18283
     2008.21081        77.45460        11.69532
     2008.21355        71.72673        11.10254
     2008.21629        68.14587        10.74298
     2008.21902        64.14900        11.04423
     2008.22724        68.80941        11.69532
     2008.22997        59.13754        11.89130
     2008.23271        32.83468        11.43618
     2008.23545        19.70082        11.54146
     2008.23819        -4.52205        11.26450
     2008.24093        15.47709        11.06529
     2008.24366        13.37522        11.01184
     2008.24640        -8.57064        11.36978
     2008.25188       -35.80937        12.04840
     2008.25462       -43.58424        11.75849
     2008.25735       -35.74810        11.62730
     2008.26009       -34.92196        11.61272
     2008.26188       -14.96817        21.08591
     2008.35158        -8.98143        33.47606
     2008.35318       -12.05035        10.64256
     2008.35592        -9.55122        10.69925
     2008.35865       -11.53708        10.87903
     2008.36139        -4.03595        10.70735
     2008.36413        -8.83781        10.59883
     2008.36687       -17.18668        10.71869
     2008.36961       -13.19554        10.66200
     2008.37234       -16.16041        10.59721
     2008.37508       -14.70327        10.57940
     2008.37782       -12.00313        10.48060
     2008.38056        -8.71300        10.61665
     2008.38329        -4.27686        10.61665
     2008.38603        -3.30973        10.34131
     2008.38877        -7.84959        10.59883
     2008.39151        -7.78246        10.99078
     2008.39425       -15.08032        10.46441
     2008.39698       -11.43218        10.51137
     2008.39972       -11.61305        10.73812
     2008.40246        -8.26391        10.63447
     2008.40520       -10.41378        10.74298
     2008.40794        -9.76464        10.72840
     2008.41067        -6.10851        10.38180
     2008.41341        -5.07937        10.72517
     2008.41615       -10.85024        10.63609
     2008.41889       -12.16910        10.59074
     2008.42162        -0.65096        10.65714
     2008.42436        -8.63883        10.29273
     2008.42710        -7.08669        10.38019
     2008.42984       -11.25356        10.59883
     2008.43258        -5.83542        10.80129
     2008.43531        -9.42829        10.70897
     2008.43805        -9.62815        10.77537
     2008.44079       -18.66002        10.54377
     2008.44353       -10.51188        10.66524
     2008.44626        -5.10474        10.78671
     2008.44900        -8.39361        10.66200
     2008.45174        -3.48147        10.65714
     2008.45448        -8.77334        10.75108
     2008.45722        -9.01220        10.44011
     2008.45995       -11.85607        10.65876
     2008.46269       -14.12393        10.53081
     2008.46543        -8.30780        10.58912
     2008.46817        -8.80566        10.73002
     2008.47091       -16.22452        10.54377
     2008.47364        -5.99239        10.53405
     2008.47638        -3.69325        10.51623
     2008.47912        -3.66612        10.45307
     2008.48186        -1.17398        10.77051
     2008.48459        -0.77285        10.72355
     2008.48733        -0.28871        10.50328
     2008.49007        -7.45657        10.59721
     2008.49281        -5.57444        10.52919
     2008.49555       -10.04630        10.62475
     2008.49828        -4.64717        10.54215
     2008.50102        -8.85803        10.34779
     2008.50376        -3.16390        10.50814
     2008.50650       -10.63176        10.52919
     2008.50924        -0.62563        10.61179
     2008.51197        11.15751        10.82234
     2008.51471         3.59365        10.69115
     2008.51745         1.25578        10.36399
     2008.52019         5.91592        10.74622
     2008.52292         7.39705        10.80291
     2008.52566         1.84719        10.87417
     2008.52840         0.36532        10.60693
     2008.53114        -1.48854        10.79643
     2008.53388         1.21259        10.82720
     2008.53661         0.21573        11.04747
     2008.53935         4.45387        10.64580
     2008.54209        -6.81200        10.51461
     2008.54483        -1.23086        10.99564
     2008.54757         0.12027        10.87093
     2008.55030         1.36841        10.76728
     2008.55304        12.35654        10.79481
     2008.55578        -1.27032        10.63123
     2008.55852         1.13281        10.71383
     2008.56125         0.67595        10.55349
     2008.56399        -0.34091        10.56482
     2008.56673         3.67422        10.69115
     2008.56947         4.70936        10.53081
     2008.57221         5.26149        10.57616
     2008.57494         4.79663        10.87903
     2008.57768         1.46176        10.86121
     2008.58042         5.78590        10.59074
     2008.58316         9.68304        10.67658
     2008.58590        12.97317        10.69763
     2008.58863         4.01431        10.75108
     2008.59137         3.80644        10.36075
     2008.59411         0.09958        10.45307
     2008.59685        -0.95429        10.82558
     2008.59958         9.19785        11.17542
     2008.60232         0.95998        10.98754
     2008.60506         0.17412        10.56158
     2008.60780         0.66526        10.49518
     2008.61054         0.21839        10.71869
     2008.61327         8.07453        11.07015
     2008.61601         1.74766        10.83206
     2008.61875         2.82480        10.79319
     2008.62149         6.25393        11.04261
     2008.62423         6.84007        10.86607
     2008.62696         3.25920        10.86121
     2008.62970         7.38134        10.85636
     2008.63244         0.51148        10.78347
     2008.63518         6.23161        10.73164
     2008.63791         0.70775        10.68629
     2008.64065         5.99888        10.67820
     2008.64339        11.23902        10.65876
     2008.64613         8.05415        10.95029
     2008.64887         1.33529        10.84988
     2008.65160         3.66842        10.62637
     2008.65434         6.36556        10.87255
     2008.65708        13.13570        11.16894
     2008.65982        -1.31917        10.97621
     2008.66256        10.27997        10.99078
     2008.66529         5.19910        10.92438
     2008.66803         0.45424        10.78023
     2008.67077         1.40537        10.94220
     2008.67351         6.02051        10.95839
     2008.67624         4.56065        11.68560
     2008.67898         4.01278        10.98107
     2008.68172         4.47892        10.93896
     2008.68446         6.58405        10.99402
     2008.68720         4.21519        10.94867
     2008.68993         6.59932        11.06043
     2008.69267         6.69646        10.99726
     2008.69541         2.27959        10.88551
     2008.69815         6.15973        10.94058
     2008.70089        15.01587        10.97459
     2008.70362         7.58500        10.97297
     2008.70636         9.46714        10.97621
     2008.70910         2.46727        11.07015
     2008.71184         5.67741        11.24021
     2008.71457        10.15954        10.74460
     2008.71731         7.21968        10.80453
     2008.72005         8.64081        10.79319
     2008.72279         2.85595        10.73650
     2008.72553         3.36809        10.86445
     2008.72826         2.42922        10.89523
     2008.73100         2.64636        10.84988
     2008.73374         2.04249        10.96811
     2008.73648         6.65063        10.84178
     2008.73921         6.01576        10.79643
     2008.74469         6.30803        10.95515
     2008.74743         8.91317        10.95839
     2008.75017        10.06331        10.91790
     2008.75290         8.92044        10.89361
     2008.75564         6.33758        10.92114
     2008.75838         0.12471        11.01346
     2008.76112         9.79085        10.71545
     2008.76386         4.79698        10.69763
     2008.76659         3.67212        10.95191
     2008.76933         2.26626        10.81101
     2008.77207         1.91639        10.59883
     2008.77481        -0.32847        10.21336
     2008.77754        -1.04934        10.33484
     2008.78028        -2.16620        10.27491
     2008.78302        -5.15807        10.69925
     2008.78576         5.60107        10.69925
     2008.78850         4.37420        10.66038
     2008.79123         7.68334        10.76728
     2008.79397        -6.56552        10.60531
     2008.79671         1.88961        10.59721
     2008.79945         3.05975        10.48708
     2008.80219         2.32988        10.44173
     2008.80492         2.57502        10.55672
     2008.80766         4.57915        10.69601
     2008.81040         3.25929        10.61827
     2008.81314         1.56042        10.57292
     2008.81587         7.76756        10.56806
     2008.81861        -1.87130        10.51299
     2008.82135        -3.22817        10.63609
     2008.82409         3.81497        10.87903
     2008.82683         0.65610        10.69925
     2008.82956         2.89024        10.60693
     2008.83230        -3.42363        10.79643
     2008.83504       -10.16049        10.84826
     2008.83778         1.31364        10.99888
     2008.84052         0.87678        11.12683
     2008.84325        -0.83308        11.02804
     2008.84599        -5.15595        10.83854
     2008.84873       -10.77981        10.81424
     2008.85147        -3.76368        10.80291
     2008.85420        -7.07454        10.80453
     2008.85694       -10.20441        10.69439
     2008.85968        -7.96427        10.54863
     2008.86242         0.53787        10.55025
     2008.86516        -4.72100        10.90980
     2008.86789        -5.24286        11.06367
     2008.87063        -2.49173        10.94705
     2008.87337       -11.17859        10.77537
     2008.87611        -3.16646        10.73812
     2008.87885        -8.48832        10.61017
     2008.88158       -10.79419        10.78833
     2008.88432        -8.39505        10.88065
     2008.88706        -7.82791        10.90332
     2008.88980        -7.21278        10.70897
     2008.89253        -6.66764        10.82882
     2008.89527        -3.72051        10.92762
     2008.89801         0.75263        11.13817
     2008.90075        -2.18724        10.88551
     2008.90349        -0.91110        10.59074
     2008.90622        -4.37097        10.67010
     2008.90896         4.11117        10.49194
     2008.91170       -11.88769        10.66362
     2008.91444        -2.20856        10.94381
     2008.91718        -2.25442        10.53891
     2008.91991         9.01471        10.70087
     2008.92265        -0.89015        10.42230
     2008.92539         1.47898        10.47088
     2008.92813         2.31912        10.46117
     2008.93086        -3.81775        10.74298
     2008.93360        -2.85561        10.40448
     2008.93634        -1.61047        10.28787
     2008.93908        -1.13234        10.21984
     2008.94182        -2.19320        10.35265
     2008.94455        -5.83507        10.76566
     2008.94729        -0.31893        10.46117
     2008.95003        -0.67680        10.22146
     2008.95277         2.88734        10.10323
     2008.95551         3.01648        10.18097
     2008.95824         0.30061        10.48222
     2008.96098        -8.67025        10.68791
     2008.96372        -9.10612        10.20850
     2008.96646        -2.48098        10.59236
     2008.96919        -4.14885        10.24252
     2008.97193        -4.38471        10.43363
     2008.97467        -0.74958        10.52109
     2008.97741        -0.57144        10.60693
     2008.98015        -1.18830        10.39476
     2008.98288         2.97883        10.68953
     2008.98562        -4.51403        10.61017
     2008.98836        -5.61490        10.70897
     2008.99110        -3.94476        10.52433
     2008.99384       -16.75163        10.64094
     2008.99657       -13.37849        10.85797
     2008.99931       -13.96436        10.49194
     2009.00479       -11.70708        10.44011
     2009.00752        -1.12595        10.40934
     2009.01026        -8.11781        10.30730
     2009.01300        -4.53068        10.44011
     2009.01574        -7.88254        10.61503
     2009.01848       -11.14441        10.35427
     2009.02121       -12.45327        10.56158
     2009.02395       -10.28914        10.40286
     2009.02669       -15.64300        10.39962
     2009.02943       -15.15786        10.44983
     2009.03216       -12.59773        10.31702
     2009.03490       -16.13359        10.34455
     2009.03764       -10.08246        10.26681
     2009.04038       -12.77232        10.36561
     2009.04312        -9.80119        10.38019
     2009.04585       -12.83705        10.36723
     2009.04859       -11.03391        10.33969
     2009.05133        -9.71278        10.26195
     2009.05407       -11.85364        10.30568
     2009.05681        -6.88651        10.44497
     2009.05954        -8.34637        10.31540
     2009.06228       -17.08624        10.40286
     2009.06502       -10.49110        10.27005
     2009.06776       -11.07197        10.85312
     2009.07049        -6.69283        10.52433
     2009.07323        -7.21669        10.52109
     2009.07597       -17.44956        10.41906
     2009.07871        -6.86742        10.44983
     2009.08145        -7.77729        10.21336
     2009.08418        -4.18215        10.32512
     2009.08692        -4.84302        10.35913
     2009.08966        -6.25988        10.43363
     2009.09240        -4.17675        10.83854
     2009.09514        -0.49561        10.37857
     2009.09787        -1.63347        10.50814
     2009.10061         0.99566        10.43039
     2009.10335        -3.59420        10.39800
     2009.10609        -2.64307        10.68467
     2009.10882        -3.32893        10.36885
     2009.11156        -4.33580        10.33807
     2009.11430        -6.55666        10.40934
     2009.11704        -9.61453        10.82072
     2009.11978        -2.94439        10.35265
     2009.12251        -2.51625        10.25547
     2009.12525        -5.59612        10.25547
     2009.12799        -0.17898        10.99564
     2009.13073        15.84615        10.66200
     2009.13347        30.29029        11.24021
     2009.13620        20.54642        11.34224
     2009.13894         4.75956        10.96325
     2009.14168        18.91970        10.82558
     2009.14442        31.26583        10.78671
     2009.21560       102.81236        14.27701
     2009.21834        96.58749        13.25178
     2009.23750        99.89544        13.88344
     2009.24572        88.85385        12.30430
     2009.24846        78.96998        12.41120
     2009.25119        91.04812        13.39755
     2009.25393        89.70625        12.56992
     2009.38915        12.44924        27.97742
     2009.39082       -17.48297        11.46533
     2009.39356       -18.04683        11.71962
     2009.39630       -15.43670        11.33091
     2009.39904        -8.46856        11.15275
     2009.40177       -11.03542        11.19486
     2009.40451       -15.03029        11.78602
     2009.40725        -7.06615        11.96742
     2009.40999       -17.33602        11.52850
     2009.41273       -12.59388        11.62730
     2009.41546       -10.00275        11.12683
     2009.41820       -10.65661        11.27908
     2009.42094       -15.70247        12.13910
     2009.42368       -17.59034        11.39407
     2009.42642       -17.79020        11.36978
     2009.42915       -17.85507        11.55927
     2009.43189       -18.61293        11.60462
     2009.43463       -10.35280        11.64025
     2009.43737       -12.14266        11.72933
     2009.44010       -22.05453        11.34710
     2009.44284       -16.04539        10.90009
     2009.44558       -17.99425        11.05395
     2009.44832       -12.18412        11.01184
     2009.45106        -7.44698        10.96487
     2009.45379       -12.30685        11.43618
     2009.45653       -10.62271        11.06691
     2009.45927       -14.80758        10.98754
     2009.46201       -17.83844        10.90656
     2009.46475       -11.12331        11.00374
     2009.46748        -9.85217        11.18838
     2009.47022       -24.30203        11.39407
     2009.47296       -14.51290        11.15599
     2009.47570        -0.01976        10.92114
     2009.47843       -15.30563        10.87255
     2009.48117       -11.81649        11.22563
     2009.48391        -7.59436        11.34386
     2009.48665       -18.81422        11.31309
     2009.48939       -10.53509        11.05233
     2009.49212        -6.12595        11.21591
     2009.49486        -3.64981        11.53174
     2009.49760        -6.15268        11.47829
     2009.50034        -7.72554        11.29689
     2009.50308        -2.74141        11.19324
     2009.50581        -6.77127        10.93086
     2009.50855        -6.81814        11.13655
     2009.51129        -1.11600        11.39569
     2009.51403        -3.06287        11.14141
     2009.51676        -8.45373        10.96487
     2009.51950        -8.01159        11.10254
     2009.52224       -12.04546        11.04909
     2009.52498        -2.11932        11.85404
     2009.52772        -8.61519        12.58774
     2009.53045       -13.99505        12.76913
     2009.53319       -13.70392        11.56575
     2009.53593        -8.07578        11.35520
     2009.53867       -16.73464        11.84109
     2009.54141       -11.14451        11.36978
     2009.54414        -3.49637        11.36330
     2009.54688       -10.19524        11.44914
     2009.54962        -6.01910        11.43618
     2009.55236       -10.63197        12.30430
     2009.55509        -2.93983        11.56737
     2009.55783        -5.25370        11.30013
     2009.56057        -5.09356        12.11157
     2009.56331       -11.56442        12.29296
     2009.56605       -13.61729        11.99981
     2009.56878        -0.45915        11.85081
     2009.57152        -1.55702        12.05488
     2009.57426        -0.23888        12.39662
     2009.57700        -8.37275        12.81610
     2009.57974       -13.37761        11.98200
     2009.58247         7.03752        11.34224
     2009.58521        -2.77734        11.99981
     2009.58795        -4.42320        11.71152
     2009.59069        -2.63407        11.65159
     2009.59342       -11.54593        12.36747
     2009.59616         5.94120        12.33345
     2009.59890        -9.72466        13.05581
     2009.60164        -7.14453        12.04192
     2009.60438        -1.07239        11.95608
     2009.60711        -6.61826        11.94636
     2009.60985         2.14788        11.82489
     2009.61259        -0.41798        11.68884
     2009.61533         6.81215        11.78440
     2009.61807         1.92329        11.84595
     2009.62080         0.21442        12.38528
     2009.62354        -4.97144        12.07431
     2009.62628        -1.19931        12.51485
     2009.62902        -7.02917        12.67843
     2009.63175         3.82497        12.13586
     2009.63449        -3.53290        11.80546
     2009.63723        -2.29976        11.97228
     2009.63997        -5.66663        11.53498
     2009.64271        -1.19549        11.70342
     2009.64544         0.90664        11.45400
     2009.64818        -1.53622        11.50097
     2009.65092         0.81691        11.42808
     2009.65366       -13.14595        12.01277
     2009.65639       -11.64481        11.43942
     2009.65913         0.74532        11.38921
     2009.66187        -0.14854        12.77885
     2009.66461        -4.58841        11.90425
     2009.66735        -5.27127        12.27191
     2009.67008        -5.09014        12.22818
     2009.67282        -4.20000        11.74229
     2009.67556        -4.45087        12.13262
     2009.67830        -5.35573        11.92855
     2009.68104         2.73541        11.62244
     2009.68377        -5.72446        11.68884
     2009.68651         4.53368        12.36909
     2009.68925         2.20281        15.42856
     2009.69199       -14.24405        14.99612
     2009.69472       -10.08392        12.42253
     2009.69746         1.22422        11.74877
     2009.70020         1.74235        12.45655
     2009.70294         5.35949        13.09792
     2009.70568         0.84063        12.61851
     2009.70841        -1.61624        11.88644
     2009.71115        -2.39110        12.13100
     2009.71389         5.64103        11.60948
     2009.71663         0.07317        11.78926
     2009.71937        -3.12570        11.75849
     2009.72210        -5.94256        11.93503
     2009.72484        -5.48042        12.26057
     2009.72758         2.73271        12.15206
     2009.73032        -0.36015        11.36492
     2009.73305         8.35498        11.80708
     2009.73579        -1.59088        12.60231
     2009.73853        -0.54575        13.14327
     2009.74127        -5.99461        13.07848
     2009.74401        -4.65348        14.51023
     2009.74674        -5.16134        17.21501
     2009.74948        -7.91520        15.00584
     2009.75222       -11.36407        14.42439
     2009.75496        -3.57993        14.72240
     2009.75770       -12.87480        18.43621
     2009.76043       -16.63966        19.68980
     2009.76317        -9.75153        16.97206
     2009.76591        -8.45339        15.20343
     2009.76865        -8.94526        14.96535
     2009.77138       -12.48612        13.42022
     2009.77412        -0.48098        12.39176
     2009.77686        -2.35485        12.95377
     2009.77960         2.42729        13.40727
     2009.78234         2.32042        15.35730
     2009.78507         3.51956        14.75803
     2009.78781        -9.87031        13.56923
     2009.79055        -4.95717        12.72055
     2009.79329       -15.76504        12.64280
     2009.79603       -11.54790        13.97576
     2009.79876        -7.57076        16.01810
     2009.80150       -12.99763        14.86169
     2009.80424         3.64251        13.97414
     2009.80698         2.57564        13.95308
     2009.80971        -7.60422        14.22194
     2009.81245         0.39391        15.42370
     2009.81519        -0.84795        13.23397
     2009.81793         0.11219        12.27353
     2009.82067        -0.31368        16.09099
     2009.82340        -5.11654        17.84180
     2009.82614       -11.61841        19.00955
     2009.82888        -4.77227        14.10533
     2009.83162        -9.73614        13.66641
     2009.83436        -5.04700        13.90935
     2009.83709        -3.76187        13.31657
     2009.83983        -6.64773        13.63078
     2009.84257        -3.73159        13.91421
     2009.84531        -5.95346        16.27724
     2009.84804         1.38068        23.01165
     2009.85078         8.07081        19.83718
     2009.85352         6.84395        20.67129
     2009.85626         0.63708        26.21527
     2009.85897         4.22897        30.03111
     2009.86516        20.43952        44.40853
     2009.86717         9.50029        37.76969
     2009.87269        -6.18710        29.41889
     2009.87542        -3.44997        18.21756
     2009.87816        -0.09483        21.68032
     2009.88090       -12.37770        21.25921
     2009.88364        -1.71256        19.79507
     2009.88601        14.47639        24.55030
     2009.88925         7.29197        23.08939
     2009.89185        -1.56815        21.62525
     2009.89459        -8.33502        21.52159
     2009.89733       -14.33988        17.97947
     2009.90006        -5.67375        21.61553
     2009.90280        -6.92461        18.09932
     2009.90554       -19.77148        23.17523
     2009.90828        -4.86534        25.93508
     2009.91102       -27.47120        36.20189
     2009.91375        -3.96707        20.55468
     2009.91649        -2.86893        18.15763
     2009.91923       -11.49580        19.55375
     2009.92197        -2.25766        26.80967
     2009.92471         0.93556        32.73589
     2009.92746        13.47978        52.72046
     2009.96413       -14.40595        36.92586
     2009.96577       -14.33449        20.24209
     2009.96851       -25.87936        20.38948
     2009.97107        -6.22881        80.38205
     2009.97402       -25.11875        26.02578
     2009.97672       -17.58895        18.02320
     2009.97946       -17.73682        16.90080
     2009.98220       -12.32768        16.45216
     2009.98494       -16.61454        18.55930
     2009.98767       -17.89241        17.36401
     2009.99041       -11.78527        16.50885
     2009.99315       -17.14314        17.34944
     2009.99589        -6.61900        14.09885
     2009.99863       -27.66887        17.40612
     2010.00410       -15.42659        18.66295
     2010.00684       -20.75546        16.66757
     2010.00958       -24.61232        16.75179
     2010.01232       -21.62019        13.26636
     2010.01505       -22.26805        13.06229
     2010.01779       -17.67392        14.54910
     2010.01974        -0.80574        27.85433
     2010.53642       -24.90890        28.96864
     2010.53798        -9.03616        10.42553
     2010.54072        -6.38102        10.40610
     2010.54346       -11.23088        10.29596
     2010.54620        -7.80475        10.29273
     2010.54893        -6.37961        10.29758
     2010.55167        -8.20748        10.30568
     2010.55441        -5.64634        10.39962
     2010.55715        -7.17421        10.32188
     2010.55989        -2.82907        10.51623
     2010.56262       -11.97893        10.44011
     2010.56536        -2.26780        10.48708
     2010.56810         4.49934        10.41906
     2010.57084        -4.39053        10.57130
     2010.57357        -4.18039        10.57130
     2010.57631        -5.67526        10.46603
     2010.57905        -7.34212        10.29758
     2010.58179        -3.76499        10.38180
     2010.58453        -6.72985        10.27005
     2010.58726        -6.83071        10.50652
     2010.59000        -3.03858        10.52919
     2010.59274        -0.28744        10.39476
     2010.59548         3.60169        10.46279
     2010.59822        -5.28917        10.51947
     2010.60095        -2.60904        10.46926
     2010.60369        -3.25690        10.38504
     2010.60643        -5.44077        10.40448
     2010.60917         6.55037        10.48546
     2010.61190        -1.73849        10.37857
     2010.61464        -2.99836        10.32350
     2010.61738        -2.66922        10.32998
     2010.62012         2.58091        10.31216
     2010.62286        -3.88595        10.32026
     2010.62559        -2.21782        10.34455
     2010.62833        -2.99568        10.42715
     2010.63107         1.07045        10.50328
     2010.63381         4.36059        10.27491
     2010.63655         5.74773        10.32188
     2010.63928         2.34386        10.29920
     2010.64202         2.87400        10.34131
     2010.64476        -1.88187        10.29273
     2010.64750         1.66127        10.36561
     2010.65023         0.86140        10.55187
     2010.65297         1.78054        10.74460
     2010.65571        -7.19832        10.25223
     2010.65845         4.91681        10.33484
     2010.66119         5.74895        10.36075
     2010.66392         6.12208        10.42553
     2010.66666         4.78222        10.18421
     2010.66940         7.12835        10.21822
     2010.67214         2.84549        10.14372
     2010.67488         9.25762        10.15344
     2010.67761         6.68076        10.04168
     2010.68035         4.10390        10.12590
     2010.68309        13.94603        10.09837
     2010.68583        14.47417        10.15830
     2010.68856        -4.16170        10.13724
     2010.69130         4.72644        10.11943
     2010.69404         2.99157        10.30730
     2010.69678        -1.94729        10.07408
     2010.69952         2.13884        10.09513
     2010.70225         1.60298        10.15668
     2010.70499         5.82112        10.11295
     2010.70773         3.54825        10.04654
     2010.71047         9.51139        10.05788
     2010.71321         4.14352        10.06922
     2010.71594         9.73166        10.21174
     2010.71868         6.93879        10.13238
     2010.72142         7.58993        10.32674
     2010.72416         5.15106        10.30406
     2010.72689         4.90820        10.25871
     2010.72963         8.46034         9.95908
     2010.73237         3.04347        10.03359
     2010.73511         7.87761        10.08541
     2010.73785         7.23174        10.29920
     2010.74058         7.16488        10.26519
     2010.74332         5.34601         9.99633
     2010.74606        11.50415        10.28139
     2010.74880         9.41229        10.25385
     2010.75154         6.40842        10.00119
     2010.75427         4.98856        10.22794
     2010.75701         2.58669        10.17449
     2010.75975        -8.01617        10.13562
     2010.76249        -0.04004        10.18421
     2010.76522        -2.35290        10.19069
     2010.76796        -2.81677        10.00767
     2010.77070         2.62337        10.03035
     2010.77344         3.65951        10.17125
     2010.77618         0.09264        10.10323
     2010.77891        -1.41022         9.97852
     2010.78165        -0.64209        10.07246
     2010.78439         0.80405        10.24738
     2010.78713         5.78418        10.21984
     2010.78987         8.71932        10.01091
     2010.79260         2.65445         9.99309
     2010.79534         0.39059        10.07084
     2010.79808        12.97073         9.95746
     2010.80082         8.07486        10.06598
     2010.80355        -1.62900        10.21498
     2010.80629         5.70413        10.11943
     2010.80903         4.99427        10.19879
     2010.81177         1.43140        10.25709
     2010.81451         3.30254        10.18421
     2010.81724         0.70667        10.34617
     2010.81998        -0.57919        10.05788
     2010.82272         5.21995        10.25871
     2010.82546        -0.60192        10.13724
     2010.82820        -1.88178        10.19231
     2010.83093         2.98035        10.81101
     2010.83367         0.79249        10.78671
     2010.83641        -5.97538        10.13562
     2010.83915        -5.69324         9.98500
     2010.84188        -5.66510         9.99309
     2010.84462         3.28303        10.02387
     2010.84736         1.23417        10.03520
     2010.85010         6.87730        10.08703
     2010.85284        -2.04756         9.78254
     2010.85557         3.51057         9.84733
     2010.85831         1.60471         9.83275
     2010.86105        -7.83016         9.67241
     2010.86379        -9.17702         9.86676
     2010.86653        -6.26088         9.97042
     2010.86926         1.55125         9.97204
     2010.87200         0.40639         9.97042
     2010.87474        -5.08248        10.02549
     2010.87748        -2.09534         9.96070
     2010.88021         4.35479         9.96232
     2010.88295        -1.40407         9.92183
     2010.88569        -1.47594        10.02063
     2010.88843         0.36120        10.28625
     2010.89117        -0.79066        10.41258
     2010.89390        -1.75153         9.99957
     2010.89664        -0.14639         9.91211
     2010.89938        -6.71326        10.14210
     2010.90212        -2.24112         9.90887
     2010.90485       -11.34199         9.83437
     2010.90759        -3.03585         9.74367
     2010.91033        -0.39172         9.91697
     2010.91307        -6.68958         9.98500
     2010.91581        -9.90344         9.99957
     2010.91854        -4.13031        10.09675
     2010.92128        -4.78717        10.28139
     2010.92402        -4.61704        10.38342
     2010.92676         5.53410        10.26519
     2010.92950        -1.80577        10.34941
     2010.93223       -14.04863        10.57454
     2010.93497        -3.75349        10.26033
     2010.93771       -10.96236        10.25061
     2010.94045        -5.05222        10.62961
     2010.94318        -5.55209        10.38504
     2010.94592        -5.59295        10.29434
     2010.94866        -5.39082        10.18259
     2010.95140        -3.53568        10.35751
     2010.95414        -7.31555        10.09675
     2010.95687        -5.14241         9.99309
     2010.95961       -13.70627        10.06922
     2010.96235        -5.55814        10.16477
     2010.96509        -3.65900        10.32350
     2010.96783        -8.43087        10.46764
     2010.97056       -14.35873        10.28787
     2010.97330        -3.84160        10.14372
     2010.97604       -10.13246        10.21822
     2010.97878       -12.05233        10.23604
     2010.98151       -11.79019         9.97366
     2010.98425       -13.48905         9.98986
     2010.98699       -14.51692        10.04168
     2010.98973       -14.06578        10.13238
     2010.99247        16.16535        10.28139
     2011.52201        -7.28542        25.83790
     2011.52361       -14.32334        10.69439
     2011.52635       -18.21221        10.76890
     2011.52908        -9.98907        10.78833
     2011.53182       -16.17594        10.70735
     2011.53456       -13.63380        10.67496
     2011.53730       -18.05967        10.75594
     2011.54004       -16.50853        10.64256
     2011.54277       -26.17939        10.52271
     2011.54551       -12.97526        10.78023
     2011.54825       -11.56612        10.72031
     2011.55099       -13.36999        10.88227
     2011.55373       -22.25885        10.69115
     2011.55646       -15.18072        10.71059
     2011.55920       -14.21758        10.82882
     2011.56194       -11.52945        10.64904
     2011.56468        -6.35131        10.68144
     2011.56741        -8.48217        10.67334
     2011.57015       -12.56804        10.74298
     2011.57289        -8.17590        10.65876
     2011.57563        -6.18877        10.58750
     2011.57837       -12.87363        10.63123
     2011.58110       -17.33650        10.63285
     2011.58384       -11.66836        10.47088
     2011.58658       -11.25823        10.84502
     2011.58932        -6.02709        10.54215
     2011.59206        -3.87195        10.51299
     2011.59479        -7.71682        10.64742
     2011.59753        -5.08868        10.50652
     2011.60027        -4.38355        10.50328
     2011.60301        -7.62741        10.53729
     2011.60574        -9.95128        10.76728
     2011.60848        -4.41814        11.34710
     2011.61122        -1.39800        11.36978
     2011.61396       -10.22587        10.88875
     2011.61670        -4.40073        10.91142
     2011.61943        -7.95960        10.83368
     2011.62217        -4.87546        10.91304
     2011.62491        -6.48033        10.89361
     2011.62765        -3.15619        10.75108
     2011.63039         0.37694        10.69763
     2011.63312         1.94608        10.65714
     2011.63586        -2.86778        10.69763
     2011.63860        -3.30165        10.77537
     2011.64134        -1.45851        11.05395
     2011.64407         0.03662        10.64418
     2011.64681         9.20776        10.57130
     2011.64955         0.25389        10.84664
     2011.65229        -4.34397        10.84016
     2011.65503        -3.52484        10.82072
     2011.65776        -1.21270        10.82882
     2011.66050         3.78144        10.97621
     2011.66324         6.39157        10.92924
     2011.66598        -0.04229        10.88227
     2011.66872         3.23084        10.84016
     2011.67145         7.30198        10.68467
     2011.67419         0.34411        10.56320
     2011.67693         2.26825        10.50004
     2011.67967         2.29038        10.62151
     2011.68240         1.07352        10.84340
     2011.68514        10.51366        10.95677
     2011.68788        -1.86021        10.77051
     2011.69062         3.13993        10.73326
     2011.69336         6.89506        10.97297
     2011.69609         2.02120        10.86121
     2011.69883         0.03733        10.91952
     2011.70157        -3.34353        10.70411
     2011.70431         1.55161        10.55025
     2011.70705        -1.93426        11.14789
     2011.70978         3.88588        10.67010
     2011.71252         1.02001        10.68144
     2011.71526        -4.95185        10.82072
     2011.71800        -0.54572        10.70249
     2011.72073         2.89342        10.62151
     2011.72347         1.90655        10.54215
     2011.72621         5.80369        10.50976
     2011.72895         6.79883        10.51299
     2011.73169         0.98096        10.56806
     2011.73442        -0.71790        10.61179
     2011.73716        11.36623        10.48060
     2011.73990        -0.41463        10.53081
     2011.74264         1.36850        10.50490
     2011.74538         4.12664        10.68953
     2011.74811         7.70577        10.74298
     2011.75085         7.83891        10.77213
     2011.75359         0.39705        10.66200
     2011.75633         3.23018        10.82072
     2011.75906         4.07032        10.67496
     2011.76180        -7.72555        10.84826
     2011.76454         1.70559        10.94867
     2011.76728        -3.96928        11.02480
     2011.77002        -4.03614        10.77861
     2011.77275        -3.48001        10.83854
     2011.77549        -0.76387        10.91304
     2011.77823         3.25527        10.88065
     2011.78097        -2.51760        10.96001
     2011.78371         0.51554        10.77051
     2011.78644         6.51867        10.67496
     2011.78918        -2.87219        10.56644
     2011.79192        -5.63906        10.70897
     2011.79466         0.79008        10.60207
     2011.79739         1.46822        10.67658
     2011.80013         1.28735        10.58426
     2011.80287         0.49049        10.60855
     2011.80561        -3.02638        10.59398
     2011.80835         0.41476        10.49356
     2011.81108         3.33689        10.49680
     2011.81382        -3.29197        10.57130
     2011.81656         4.29516        10.56806
     2011.81930         0.82430        10.45955
     2011.82203         3.42644        10.46603
     2011.82477         8.60757        10.50976
     2011.82751        -1.22929        10.57940
     2011.83025         6.45084        10.71545
     2011.83299        -1.71802        10.40610
     2011.83572        -3.88189        10.34617
     2011.83846         2.12125        10.44497
     2011.84120       -18.83862        10.39638
     2011.84394        -2.60048        10.15830
     2011.84668         3.65066        10.16801
     2011.84941        -1.12121        10.18097
     2011.85215        -2.78307        10.30082
     2011.85489        -7.72694        10.56644
     2011.85763         0.54620        10.50652
     2011.86036         0.40233        10.41096
     2011.86310         4.54747        10.44497
     2011.86584         5.44760        10.51623
     2011.86858         6.93474        10.42877
     2011.87132        -1.87712        10.47250
     2011.87405        -7.46899        10.26033
     2011.87679        -8.99885        10.33646
     2011.87953         8.17028        10.28949
     2011.88227         0.56642        10.46603
     2011.88501        -2.22745        10.64094
     2011.88774       -16.92831        10.61665
     2011.89048       -13.29717        10.61017
     2011.89322       -11.99504        10.87093
     2011.89596        -6.35890        10.82720
     2011.89869        -1.92077        10.69115
     2011.90143       -13.62463        10.46279
     2011.90417        -7.22650        10.37695
     2011.90691        -4.12436        10.51137
     2011.90965        -1.93623        10.45793
     2011.91238        -6.69309        10.71059
     2011.91512        -0.78895        10.43849
     2011.91786        -0.90682        10.89199
     2011.92060        -9.02368        10.47574
     2011.92334        -8.73955        10.60045
     2011.92607        -8.79341        10.61341
     2011.92881        -8.35128        10.76242
     2011.93155         1.02086        10.70735
     2011.93429        -1.09001        10.58750
     2011.93702         2.43813        10.58102
     2011.93976         1.04227        10.42391
     2011.94250        -0.59360        10.51623
     2011.94524        -0.76146        10.44659
     2011.94798         5.76367        10.49680
     2011.95071         1.72581        10.27815
     2011.95345         3.01994        10.57454
     2011.95619        -1.42492        10.61017
     2011.95893        -4.45479        10.37857
     2011.96167        -0.54265        10.28139
     2011.96440         0.67749        10.35751
     2011.96714        -3.16638        10.27167
     2011.96988         3.74776        10.10809
     2011.97262        -1.16711        10.15020
     2011.97535        -3.22597        10.19393
     2011.97809        -2.99184        10.23442
     2011.98083        -2.52270        10.20689
     2011.98357        -2.06956        10.11295
     2011.98631        -6.50543        10.13886
     2011.98904        -0.96729        10.32188
     2011.99178        -3.63616        10.35103
     2011.99452         3.02398        10.49680
     2011.99726         4.16111        10.24090
     2012.00273         1.63038        10.09675
     2012.00547        -3.36348        10.40610
     2012.00821         2.38566        10.31054
     2012.01095         0.67979        10.26519
     2012.01368         5.78393        10.15344
     2012.01642         5.80606        10.05788
     2012.01916         3.27320        10.10971
     2012.02190         1.73733        10.22308
     2012.02464         0.84947        10.15344
     2012.02737         0.69760        10.14534
     2012.03011         2.90274        10.08217
     2012.03285        -0.17112        10.16639
     2012.03559        -1.71299        10.13562
     2012.03833        -4.99285        10.23928
     2012.04106        -0.86972        10.04330
     2012.04380        -2.80458        10.17125
     2012.04654        -3.36545        10.11619
     2012.04928         5.16069        10.10971
     2012.05201         2.38482        10.15830
     2012.05475         7.47996        10.57454
     2012.05749         8.02110        10.53243
     2012.06023         2.50223        10.65228
     2012.06297         4.32237        10.30892
     2012.06570       -14.16650        10.17773
     2012.06844       -15.73236        10.19069
     2012.07118        -1.54823        10.10161
     2012.07392        -4.50509         9.98986
     2012.07666        -6.82695         9.88134
     2012.07939         0.81918         9.98986
     2012.08213         0.52932        10.00443
     2012.08487        -5.90355        10.05788
     2012.08761        -1.34841        10.06760
     2012.09034        -7.72728         9.93803
     2012.09308        -2.18014         9.89916
     2012.09582        -1.31001         9.90887
     2012.09856         0.48313        10.10323
     2012.10130        -0.76173        10.29596
     2012.10403        -1.12060        10.04168
     2012.10677        -7.43746        10.12914
     2012.10951         1.33267        10.20041
     2012.11225        -4.22419        10.39314
     2012.11498        -5.95006        10.38019
     2012.11772        -0.53792        10.20365
     2012.12046         0.56721        10.05950
     2012.12320        -1.54065        10.15020
     2012.12594        -3.60251        10.20527
     2012.12867        -8.84738        10.30892
     2012.13141        -6.35924        10.25709
     2012.13415         1.02189        10.07408
     2012.13689        -3.86697        10.16639
     2012.13963        -3.44184        10.50652
     2012.14236        -9.81670        10.42877
     2012.14510         0.44643        10.34941
     2012.14784        -7.12143         9.99471
     2012.15058         0.37071         9.96556
     2012.15331        -3.38416         9.90240
     2012.15605        -0.93502        10.10809
     2012.15879       -10.57089        10.13724
     2012.16153        -2.59775         9.89430
     2012.16427        -5.95162         9.91859
     2012.16700        -1.40848        10.13400
     2012.16974        -2.46834         9.98176
     2012.17248        -7.37621        10.02225
     2012.17522        -9.13207         9.98014
     2012.17796        -3.32094        10.01577
     2012.18069        -0.64780         9.92507
     2012.18343        -4.88667         9.99147
     2012.18617        -8.16853        10.04492
     2012.18891        -2.99040         9.98986
     2012.19164         3.00074        10.13400
     2012.19438        -4.33812        10.15020
     2012.19712        -5.36899        10.12752
     2012.19986       -10.47685        10.37857
     2012.20260       -14.35072        10.33646
     2012.20533         7.96142        10.44497
     2012.20807        19.49055        10.61017
     2012.21081        -0.38731        10.40610
     2012.21355        11.38382        10.42877
     2012.21629        24.01996        10.43525
     2012.22176        40.65723        10.97783
     2012.22450        30.28037        10.94220
     2012.22724        26.21350        10.79805
     2012.22997        20.06064        10.74946
     2012.23271         5.05177        10.65714
     2012.23545        14.72191        10.85474
     2012.23819        37.60104        11.11064
     2012.24093        16.71818        10.99726
     2012.24366        31.27132        10.56644
     2012.24640        46.75445        10.78509
     2012.24914        50.21959        11.70342
     2012.25188        45.63872        11.59167
     2012.28897        24.88268        69.70224
     2012.37622        -1.30516        25.54313
     2012.37782       -12.11404        10.34941
     2012.38056       -12.21690        10.49194
     2012.38329        -7.12077        10.50814
     2012.38603       -11.01163        10.47898
     2012.38877       -19.74050        10.53729
     2012.39151        -7.86236        10.49194
     2012.39425       -13.35123        10.52271
     2012.39698       -17.75009        10.35103
     2012.39972        -7.88796        10.17449
     2012.40246       -15.44082        10.31054
     2012.40520       -12.55468        10.34941
     2012.40794       -15.31055        10.31540
     2012.41067       -15.38141        10.25871
     2012.41341       -12.58228        10.24414
     2012.41615        -8.90714        10.30406
     2012.41889        -2.65801        10.50004
     2012.42162       -19.14687        10.29111
     2012.42436        -7.40374        10.27005
     2012.42710       -19.38860        10.16154
     2012.42984        -7.36346        10.42230
     2012.43258       -10.03033        10.20203
     2012.43531       -15.48319        10.10161
     2012.43805       -11.39506        10.19069
     2012.44079       -15.67592        10.10323
     2012.44353       -16.27679        10.31378
     2012.44626        -6.25865        10.19231
     2012.44900       -15.56851        10.25871
     2012.45174       -13.13738        10.16316
     2012.45448        -6.85324        10.14048
     2012.45722        -5.50311        10.27653
     2012.45995        -1.10597        10.30568
     2012.46269         3.14616        10.27977
     2012.46543       -13.11270        10.26681
     2012.46817        -5.12857        10.07570
     2012.47091        -5.83343         9.96880
     2012.47364        -8.47429        10.18907
     2012.47638        -8.09016        10.16639
     2012.47912        -6.00602        10.09675
     2012.48186        -6.44589         9.99147
     2012.48459       -12.01475        10.07246
     2012.48733       -12.85362        10.03359
     2012.49007        -4.75448        10.20689
     2012.49281        -6.39935        10.04978
     2012.49555        -8.14821        10.21012
     2012.49828        -5.86907        10.04654
     2012.50102        -2.71994        10.12914
     2012.50376        -0.89280        10.24252
     2012.50650        -1.65267        10.12914
     2012.50924        -4.50553        10.29273
     2012.51197        -4.52640        10.25709
     2012.51471        -8.23126        10.11943
     2012.51745         0.00287        10.08541
     2012.52019        -5.12999        10.04492
     2012.52292        -5.83785        10.09027
     2012.52566        -4.70472        10.03035
     2012.52840        -5.01958        10.05302
     2012.53114        -2.42245        10.09027
     2012.53388        -1.35831        10.09027
     2012.53661        -1.28918        10.21336
     2012.53935        -6.33704        10.04168
     2012.54209        -5.22190        10.01415
     2012.54483        -0.19477        10.00605
     2012.54757        -7.21163        10.10647
     2012.55030        -2.81850        10.01739
     2012.55304        -2.39336         9.93641
     2012.55578        -3.92523        10.00929
     2012.55852        -1.33309        10.20203
     2012.56125         2.26304        10.27005
     2012.56399        -0.72782        10.08379
     2012.56673         4.11432        10.04978
     2012.56947        -4.33455        10.15344
     2012.57221         3.03159        10.13886
     2012.57494        -0.34528        10.08379
     2012.57768        -4.16514        10.34617
     2012.58042         5.38899        10.17773
     2012.58316        -5.05787        10.19393
     2012.58590         1.44926        10.35913
     2012.58863         8.21540        10.24090
     2012.59137         1.44154        10.13724
     2012.59411         6.60067        10.26195
     2012.59685         3.48781        10.13886
     2012.59958         0.94194        10.11457
     2012.60232        -1.63792        10.39800
     2012.60506         3.87621        10.13562
     2012.60780         3.23235        10.07246
     2012.61054         9.67348        10.07246
     2012.61327         5.58762        10.05464
     2012.61601        12.40076        10.16477
     2012.61875        11.08389        10.13724
     2012.62149         6.31103        10.24900
     2012.62423         3.73516        10.17449
     2012.62696         6.67030         9.98824
     2012.62970         2.48443        10.03682
     2012.63244         1.54557        10.16316
     2012.63518         5.14871        10.16154
     2012.63791         4.26184        10.06598
     2012.64065         5.57298        10.26843
     2012.64339         8.04011         9.99795
     2012.64613         2.23125        10.04492
     2012.64887         6.31438         9.98986
     2012.65160         7.60752        10.21174
     2012.65434         2.23665        10.14372
     2012.65708         8.23779        10.21984
     2012.65982         5.52593        10.20203
     2012.66256         9.83706        10.02873
     2012.66529         3.38820        10.14048
     2012.66803         7.56133        10.14210
     2012.67077        10.70947        10.04168
     2012.67351         6.71060        10.04978
     2012.67624         9.53074         9.98338
     2012.67898        12.23987        10.02549
     2012.68172         2.00601        10.12104
     2012.68446         7.12315        10.09837
     2012.68720         1.06328        10.13076
     2012.68993         4.44142        10.02387
     2012.69267         9.13455        10.23442
     2012.69541         9.19069        10.21822
     2012.69815        10.58482        10.36399
     2012.70089        -0.52104        10.31540
     2012.70362         3.10209        10.18421
     2012.70636         5.30123        10.12428
     2012.70910         2.54737        10.02549
     2012.71184         4.92450        10.06112
     2012.71457         8.07764        10.12914
     2012.71731         8.07977        10.19393
     2012.72005        11.95891        10.29273
     2012.72279         7.95304        10.19069
     2012.72553        10.92018        10.07246
     2012.72826         4.74432        10.32836
     2012.73100        16.21245        10.42715
     2012.73374         9.10759        10.61341
     2012.73648         7.65372        10.12104
     2012.73921        12.13686        10.32998
     2012.74195         7.32599        10.25871
     2012.74469        10.06413        10.28301
     2012.74743         9.65326        10.21822
     2012.75017         8.79440        10.23280
     2012.75290         8.92554        10.27167
     2012.75564         2.85967        10.11619
     2012.75838         1.74481        10.29758
     2012.76112        10.37094        10.26519
     2012.76386        15.20408        10.33969
     2012.76659        15.82421        10.62313
     2012.76933        11.59835        10.42391
     2012.77207         7.21648        10.19717
     2012.77481         8.24862        10.28787
     2012.77754         3.10776        10.24738
     2012.78028         6.70489        10.32674
     2012.78302         5.68603        10.45793
     2012.78576         1.16616        10.12752
     2012.78850         7.97730        10.40934
     2012.79123         2.73443        10.38990
     2012.79397        11.97257        10.32836
     2012.79671         8.99470        10.32836
     2012.79945        10.08184        10.18421
     2012.80219         5.00198        10.22632
     2012.80492         6.37111        10.11781
     2012.80766         7.00025        10.11943
     2012.81040         3.49138        10.16639
     2012.81314         0.25452        10.09837
     2012.81587        -6.84535        10.36075
     2012.81861        -2.66921        10.48222
     2012.82135        -0.22608        10.32188
     2012.82409        -0.67994        10.29758
     2012.82683        -1.28680        10.37047
     2012.82956        -4.07367        10.18745
     2012.83230         1.20147        10.19717
     2012.83504         0.15960        10.47250
     2012.83778         3.15274        10.16801
     2012.84052         1.92987        10.24738
     2012.84325        -0.85699        10.19879
     2012.84599         5.88715        10.21660
     2012.84873         1.80928        10.31864
     2012.85147         3.06342        10.11619
     2012.85420         6.14755        10.23928
     2012.85694         1.57969        10.27491
     2012.85968        -0.84118        10.15992
     2012.86242        -3.72204        10.22794
     2012.86516        -0.10391        10.16477
     2012.86789        -6.37377        10.45793
     2012.87063        -1.92363        10.20527
     2012.87337         1.21350        10.26843
     2012.87611         5.10164        10.25223
     2012.87885         1.73677        10.31540
     2012.88158         1.55991        10.43039
     2012.88432         1.97004        10.48384
     2012.88706        21.67118        10.90170
     2012.89253        46.58345        11.13817
     2012.89527         1.47959        10.43849
     2012.89801        -1.69328        10.23766
     2012.90075        -0.97914        10.30892
     2012.90349         2.12399        10.19555
     2012.90622         3.51913        10.08865
     2012.90896         9.65926        10.18259
     2012.91170         3.76240        10.28463
     2012.91444         4.71253        10.47250
     2012.91718        11.28167        10.78995
     2012.91991        -2.57519        10.53729
     2012.92265        -6.69806        10.41582
     2012.92539        -8.30992        10.44497
     2012.92813       -14.56179        10.47898
     2012.93086        -9.13165        10.68306
     2012.93360        -4.12052        10.42553
     2012.93634       -11.35438        10.34779
     2012.93908        -5.83324        10.21660
     2012.94182        -2.74711        10.18583
     2012.94455         2.10603        10.31378
     2012.94729         1.84016        10.30244
     2012.95003        -4.37570        10.21822
     2012.95277         4.35243        10.03035
     2012.95551         4.86657         9.95260
     2012.95824        11.13270        10.27005
     2012.96098        20.21084        10.90009
     2012.96372        12.30498        10.96163
     2012.96646         7.33811        10.26843
     2012.96919         9.48125        10.47736
     2012.97193        13.78538        10.34131
     2012.97467        43.73452        10.62475
     2013.39192         2.41576        23.11855
     2013.39356       -12.40874        10.13562
     2013.39630       -10.32260        10.32512
     2013.39904        -4.18647        10.14696
     2013.40177       -10.02833        10.20527
     2013.40451       -15.72019        10.21174
     2013.40725        -8.91406        10.18259
     2013.40999       -18.02592        10.28625
     2013.41273       -10.21579        10.14534
     2013.41546        -9.87065        10.26519
     2013.41820        -2.15052        10.15020
     2013.42094        -1.56538        10.17287
     2013.42368       -12.73925        10.22470
     2013.42642       -17.37111        10.43201
     2013.42915        -4.64097        10.19393
     2013.43189        -6.30384        10.30082
     2013.43463        -2.98070        10.16316
     2013.43737        -3.87857        10.26843
     2013.44010        -8.05843        10.23928
     2013.44284        -8.14230        10.09675
     2013.44558        -5.22016        10.29596
     2013.44832       -11.37103        10.16801
     2013.45106        -8.20389        10.08865
     2013.45379        -7.82175        10.20041
     2013.45653        -8.65162        10.09999
     2013.45927        -5.70644        10.20689
     2013.46201        -0.23835        10.23928
     2013.46475        -8.71721        10.20041
     2013.46748        -5.62108        10.16316
     2013.47022        -7.43494        10.25871
     2013.47296        -3.60081         9.97528
     2013.47570        -6.53967        10.14210
     2013.47843        -2.12453        10.18259
     2013.48117        -3.80340        10.07731
     2013.48391        -7.44926        10.00767
     2013.48665       -11.86513        10.11943
     2013.48939        -2.79899        10.04816
     2013.49212        -4.72686        10.09351
     2013.49486        -2.09872        10.17125
     2013.49760        -2.82958        10.08703
     2013.50034        -5.52045        10.05788
     2013.50308         5.31669        10.21498
     2013.50581        -5.82118        10.06112
     2013.50855        -2.74004        10.01577
     2013.51129        10.87809        10.10485
     2013.51403        -4.68677        10.02387
     2013.51676        -5.42164        10.06922
     2013.51950        -3.06750        10.02549
     2013.52224        -3.11536         9.98500
     2013.52498        -2.04023        10.32026
     2013.52772        -5.53709        10.15506
     2013.53045        -8.23096        10.00605
     2013.53319        -7.18482        10.16963
     2013.53593         1.82731        10.17611
     2013.53867        -3.65555        10.18583
     2013.54141        -5.24842        10.16801
     2013.54414        -1.94728        10.17611
     2013.54688        -8.17814        10.13562
     2013.54962         2.76899        10.25385
     2013.55236        -1.74187        10.16154
     2013.55509        -9.42974        10.21498
     2013.55783        -1.76960        10.20527
     2013.56057        -4.75347        10.21498
     2013.56331        -2.13033        10.38019
     2013.56605        -6.86120        10.44983
     2013.56878         0.14494        10.64256
     2013.57152        -2.98392        10.22632
     2013.57426         7.26921        10.05464
     2013.57700         0.40035        10.09351
     2013.57974        -2.79352        10.06760
     2013.58247         1.89962        10.14210
     2013.58521         2.54175        10.02711
     2013.58795         4.90689        10.06760
     2013.59069         5.51503         9.96556
     2013.59342        -0.70184         9.92993
     2013.59616         3.08830        10.05626
     2013.59890         2.29143        10.13238
     2013.60164         3.70657         9.96556
     2013.60438         6.85070        10.04168
     2013.60711         4.60884        10.07893
     2013.60985         6.31197         9.97204
     2013.61259         4.14411        10.03844
     2013.61533         8.78925        10.28301
     2013.61807         6.44438        10.33969
     2013.62080         6.94752        10.14534
     2013.62354         4.80365        10.05950
     2013.62628         6.66779        10.17125
     2013.62902        -2.68008        10.20527
     2013.63175        12.16806        10.18745
     2013.63449        -0.27581        10.29758
     2013.63723         3.75033        10.32512
     2013.63997         7.21747        10.20689
     2013.64271         6.95760        10.00929
     2013.64544         5.91374         9.96880
     2013.64818         2.04587        10.03359
     2013.65092         6.78701         9.90725
     2013.65366         6.96414         9.94127
     2013.65639         6.87128        10.03197
     2013.65913         1.46241        10.37209
     2013.66187         3.99055         9.96556
     2013.66461         6.40769        10.04492
     2013.66735         4.68082        10.27329
     2013.67008        11.98996        10.43849
     2013.67282         4.66309        10.44335
     2013.67556         0.32623        10.10971
     2013.67830         5.44436        10.07570
     2013.68104         7.94350         9.96394
     2013.68377         8.95764        10.17125
     2013.68651         4.15477        10.05464
     2013.68925         9.85891        10.09513
     2013.69199        11.10104        10.12104
     2013.69472         8.85918         9.92183
     2013.69746         0.98831         9.96070
     2013.70020         1.03745        10.28625
     2013.70294         8.31358        10.29920
     2013.70568         5.45072        10.17611
     2013.70841         5.28086        10.11781
     2013.71115         8.36799        10.00605
     2013.71389         5.49813        10.02387
     2013.71663         8.47726        10.23442
     2013.71937         5.60340        10.05626
     2013.72210        13.67553        10.27815
     2013.72484         8.05167        10.18097
     2013.72758         3.17480        10.38180
     2013.73032        16.13094        10.28949
     2013.73305         6.11008        10.03520
     2013.73579         3.56921        10.04330
     2013.73853         6.12935         9.92183
     2013.74127         4.37948        10.00281
     2013.74401         8.16762        10.38666
     2013.74674         5.75675        10.34779
     2013.74948         5.23689        10.08379
     2013.75222         1.30402         9.94451
     2013.75496        -2.00484         9.75015
     2013.75770        -2.00270         9.98338
     2013.76043        -2.13157        10.08055
     2013.76317         3.70557         9.92021
     2013.76591         4.30170        10.01577
     2013.76865         7.61184         9.94289
     2013.77138         6.45497         9.98338
     2013.77412         6.38711        10.07893
     2013.77686         3.96525        10.10161
     2013.77960         2.88738         9.97366
     2013.78234       -12.45548        10.05788
     2013.78507        -6.46935        10.08055
     2013.78781        -1.88221        10.04006
     2013.79055        -1.37408        10.07246
     2013.79329        -0.90494         9.95746
     2013.79603         3.38419         9.94936
     2013.79876         0.14633         9.95422
     2013.80150         6.55247         9.95260
     2013.80424         6.80660        10.22632
     2013.80698         4.56174        10.18259
     2013.80971         6.06287        10.00929
     2013.81245         7.81801         9.90240
     2013.81519         3.95314         9.90240
     2013.81793         3.25528        10.05302
     2013.82067         5.34641        10.02387
     2013.82340         8.20355        10.12104
     2013.82614         5.36069        10.30892
     2013.82888         4.47182         9.96718
     2013.83162         1.94996         9.91859
     2013.83436         6.17109        10.38504
     2013.83709         5.40723        10.15992
     2013.83983         7.33736        10.08379
     2013.84257         6.09850        10.01739
     2013.84531         3.28063        10.09513
     2013.84804        -0.69123         9.95422
     2013.85078         1.90491        10.02387
     2013.85352         8.58004        10.09513
     2013.85626         4.81418         9.89592
     2013.85900         4.59731         9.93641
     2013.86173         0.63145         9.90725
     2013.86447        -0.96642        10.06922
     2013.86721        -0.81128         9.95260
     2013.86995         3.13186        10.00929
     2013.87269         8.32799         9.95746
     2013.87542         7.41113         9.91535
     2013.87816         5.52726         9.97366
     2013.88090        12.18940        10.25547
     2013.88364        11.61753        10.64580
     2013.88637         0.67467        10.25547
     2013.88911        -7.19920        10.33807
     2013.89185        -2.59906        10.11781
     2013.89459         2.62408        10.01253
     2013.89733         4.60421        10.09675
     2013.90006         2.90735        10.35103
     2013.90280        -3.03052        10.29596
     2013.90554         3.43262        10.07084
     2013.90828         9.75075        10.07408
     2013.91102         1.21489        10.16801
     2013.91375        -1.11998        10.12266
     2013.91649         3.54216        10.13400
     2013.91923        -1.16370        10.25547
     2013.92197         7.22143        10.27977
     2013.92470         7.78057        10.03359
     2013.92744         6.87470        10.08055
     2013.93018         6.65884         9.82141
     2013.93292         6.52497         9.99471
     2013.93566         4.83411         9.96556
     2013.93839         2.05324         9.94451
     2013.94113         4.59238        10.02387
     2013.94387         4.94252         9.98176
     2013.94661         6.18465        10.19393
     2013.94935         8.11879         9.93479
     2013.95208         2.00192         9.94127
     2013.95482         4.40306        10.02387
     2013.95756         3.62819         9.94774
     2013.96030         2.87933        10.12752
     2013.96303         1.48747        10.04816
     2013.96577         8.16860        10.01415
     2013.96851         9.61374        10.10809
     2013.97125        15.92687        10.16801
     2013.97399         9.24701        10.28139
     2013.97672        -4.21986        10.14210
     2013.97946         2.02628        10.09675
     2013.98220         1.31641        10.05788
     2013.98494         2.34555        10.17611
     2013.98767        -3.65431        10.08703
     2013.99041        -3.10718        10.16316
     2013.99315        -4.80704        10.06274
     2013.99589        -2.74891         9.98014
     2013.99863        -1.90677        10.11133
     2014.00410         0.04150        10.02063
     2014.00684         2.68263        10.08217
     2014.00958        -2.28923         9.97042
     2014.01232        -2.10409        10.18745
     2014.01505        -3.57796        10.32026
     2014.01779        -0.86882        10.20689
     2014.02053         6.08831        10.03359
     2014.02327        -1.89855        10.18583
     2014.02600         6.66958        10.28625
     2014.02874         5.50072        10.06274
     2014.03148         6.74085        10.02387
     2014.03422         0.60699        10.03035
     2014.03696         3.95313        10.06274
     2014.03969         0.87526        10.07893
     2014.04243         0.12240        10.33484
     2014.04517         5.48453        10.36237
     2014.04791         5.07267         9.99471
     2014.05065         8.78180        10.04816
     2014.05338         7.22594        10.03844
     2014.05612         2.90408         9.96880
     2014.05886         0.86621        10.00767
     2014.06160         8.96635         9.94451
     2014.06433         6.93548        10.32836
     2014.06707         7.43262        10.32998
     2014.06981         9.16175        10.15830
     2014.07255         6.66089         9.96880
     2014.07529         1.00902        10.13076
     2014.07802         5.06016        10.05464
     2014.08076        13.84430        10.09999
     2014.08350         6.12043         9.97690
     2014.08624         1.09357        10.04978
     2014.08898         2.45370        10.33969
     2014.09171         2.13484        10.22956
     2014.09445         2.72697         9.94127
     2014.09719         5.69411        10.09027
     2014.09993        13.21424         9.98662
     2014.10266         2.15338        10.34455
     2014.10540        16.16952        10.21336
     2014.10814        -0.46735        10.38666
     2014.11088        -5.94921        10.82396
     2014.11362         6.79992        10.31864
     2014.11635         7.50206        10.30892
     2014.11909         8.31519        10.26195
     2014.12183         6.54333        10.47088
     2014.12457         8.24946        10.17287
     2014.12731         4.57160        10.25709
     2014.13004         2.95674        10.04330
     2014.13278         2.25587        10.42877
     2014.13552         7.48401        10.39476
     2014.13826         3.47014        10.10971
     2014.14099         8.17728        10.14048
     2014.14373         3.03141        10.15182
     2014.14647         6.50455        10.21984
     2014.14921         4.76869        10.27491
     2014.15195         3.44982        10.25061
     2014.15468         5.03896        10.22956
     2014.15742         7.13209        10.32026
     2014.16016         9.15323        10.63123
     2014.16290        -2.88564        10.59560
     2014.16564         4.54850        10.48384
     2014.16837        -1.84837        11.02804
     2014.17111        -8.36923        10.98431
     2014.17385         2.56891        10.79805
     2014.17659        -6.56496        10.60531
     2014.17932         2.07818        11.07824
     2014.18206         0.26131        10.55834
     2014.18480        -1.85155        10.31378
     2014.18754        -3.31342        10.53081
     2014.19028        -6.04728        10.14210
     2014.19301        -4.21515        10.11781
     2014.19575        -3.28301        10.24576
     2014.19849        -4.15487        10.18745
     2014.20123        -3.16074        10.21660
     2014.20397        -6.67860        10.09837
     2014.20670         2.46453        10.20365
     2014.20944         7.31767        10.22956
     2014.21218        -2.29820        10.21012
     2014.21492         1.93794        10.53891
     2014.21765         8.50207        10.26033
     2014.22039         1.28121        10.17287
     2014.22313         0.04235        10.28787
     2014.22587         2.20448        10.24414
     2014.22861         4.57662        10.36237
     2014.23134         0.52275        10.40286
     2014.23408        -4.99311        10.39476
     2014.23682         0.65802        10.38019
     2014.23956        -0.87784        10.52595
     2014.24230       -21.79670        10.94058
     2014.24503        12.03343        10.72193
     2014.24777        35.68257        11.16408
     2014.25598        40.93897        10.98107
     2014.25872        48.16211        10.92762
     2014.26146         8.04824        11.06529
     2014.26420        -5.98262        10.64580
     2014.26694        -7.53848        10.24090
     2014.26967        -2.89935        10.20041
     2014.27241        -5.95021        10.65390
     2014.27515       -11.59908        10.66524
     2014.27789        -1.69094        10.26519
     2014.28062         0.16019        10.19393
     2014.28294        -5.52436        12.29296
     2014.33924        -2.50211        23.00355
     2014.34086        -0.23182        10.29920
     2014.34360        -3.62569        10.39152
     2014.34633        -5.96255        10.36075
     2014.34907        -1.70142        10.66686
     2014.35181        -2.34928        10.61503
     2014.35455        -0.35715        10.22470
     2014.35728        -7.98601        10.20041
     2014.36002        -6.78187        10.22470
     2014.36276        -8.78874        10.23604
     2014.36550        -2.11960        10.19393
     2014.36824        -7.63347        10.41096
     2014.37097        -1.61933        10.38180
     2014.37371        -1.41120        10.33484
     2014.37645        -2.30306        10.29758
     2014.37919        -2.98093        10.42391
     2014.38193        -5.69279        10.37857
     2014.38466        -3.65865        10.33646
     2014.38740        -5.02952        10.37371
     2014.39014        -3.08638        10.38504
     2014.39288        -4.97025        10.35265
     2014.39561        -5.74811        10.32836
     2014.39835         0.21602        10.35427
     2014.40109        -7.26084        10.45469
     2014.40383        -6.05571        10.45145
     2014.40657        -5.77357        10.43201
     2014.40930        -4.75643        10.31540
     2014.41204        -4.26430        10.20689
     2014.41478        -5.29416        10.26519
     2014.41752         3.19497        10.12590
     2014.42026         0.67611        10.36399
     2014.42299         1.70424        10.37857
     2014.42573         1.94838        10.36075
     2014.42847         0.25351        10.33969
     2014.43121        -4.11435        10.32836
     2014.43394         4.40479        10.26519
     2014.43668         0.62492        10.44497
     2014.43942         1.31906        10.32836
     2014.44216         0.61319        10.19555
     2014.44490        -2.14067        10.46117
     2014.44763         1.54146        10.42068
     2014.45037         2.04860        10.28787
     2014.45311         0.53374        10.25709
     2014.45585         1.60687        10.23442
     2014.45859        -0.75099        10.32836
     2014.46132         2.64614        10.26357
     2014.46406        -6.49172        10.13400
     2014.46680         1.35741        10.17773
     2014.46954        -1.53245        10.03197
     2014.47227         3.11368         9.99795
     2014.47501        -4.84118        10.03197
     2014.47775         3.00596        10.19069
     2014.48049        -6.84391        10.23118
     2014.48323         0.21223        10.12428
     2014.48596         1.95836        10.20203
     2014.48870         9.80650        10.53081
     2014.49144         7.35163         9.98176
     2014.49418         3.21377        10.18907
     2014.49692         2.32890        10.21174
     2014.49965         3.32704        10.23280
     2014.50239         1.87818        10.24252
     2014.50513         0.05031        10.22632
     2014.50787        -1.66155        10.05950
     2014.51060        -5.59242        10.27329
     2014.51334         3.88272        10.20527
     2014.51608         5.56985        10.04330
     2014.51882         8.54999        10.16639
     2014.52156         6.38813        10.18745
     2014.52429        -0.63174        10.23928
     2014.52703        10.15540        10.28463
     2014.52977         0.28153        10.14210
     2014.53251         4.35567        10.08055
     2014.53525         1.35980        10.20041
     2014.53798         7.40094        10.15344
     2014.54072         2.56007        10.32836
     2014.54346        13.38421        10.26519
     2014.54620        15.37335        10.25061
     2014.54893        11.01348        10.25223
     2014.55167         0.82762        10.25871
     2014.55441         2.66175        10.14696
     2014.55715         4.98689        10.00281
     2014.55989         7.54902        10.13562
     2014.56262         7.26816        10.07731
     2014.56536         1.96629         9.99633
     2014.56810         2.63543        10.21336
     2014.57084         1.51557        10.11619
     2014.57357         1.58070        10.13238
     2014.57631         8.20284        10.12266
     2014.57905         2.43197        10.14534
     2014.58179         4.75711        10.36237
     2014.58453         6.29224        10.28301
     2014.58726         4.21138        10.56158
     2014.59000         8.54051        10.23442
     2014.59274         4.85665        10.38990
     2014.59548         7.38179        10.42553
     2014.59822        14.61892        10.63447
     2014.60095         7.77706        10.55349
     2014.60369         6.29119        10.40286
     2014.60643        -1.22767        10.43687
     2014.60917         2.40346        10.52919
     2014.61190         3.97560        10.75108
     2014.61464         8.78774        10.34779
     2014.61738         8.24987        10.57292
     2014.62012         9.64101        10.58588
     2014.62286         8.19314        10.22632
     2014.62559         9.70728        10.27005
     2014.62833        10.46141        10.32836
     2014.63107        11.60155        10.46117
     2014.63381         7.42868        10.60693
     2014.63655         9.10982        10.51623
     2014.63928         4.01396        10.38666
     2014.64202         7.43009        10.36561
     2014.64476         6.63723        10.47736
     2014.64750         9.73936        10.39476
     2014.65023         5.20950        10.43201
     2014.65297        11.36363        10.32998
     2014.65571         7.91977        10.34779
     2014.65845        -0.79310        10.54701
     2014.66119         8.68104        10.43363
     2014.66392        10.52518        10.48546
     2014.66666        14.95331        10.44983
     2014.66940         8.00745        10.43039
     2014.67214        11.08058        10.37695
     2014.67488        10.29472        10.49842
     2014.67761        13.34385        10.52919
     2014.68035         5.37299        10.51137
     2014.68309         3.12212        10.49032
     2014.68583         9.63626        10.47412
     2014.68856         7.63340        10.41258
     2014.69130         8.46153        10.41258
     2014.69404        10.14267        10.30406
     2014.69678         8.46180        10.34617
     2014.69952        11.67894        10.31216
     2014.70225        13.63107        10.29920
     2014.70499        16.16121        10.46117
     2014.70773        17.22435        10.44011
     2014.71047        16.97548        10.50004
     2014.71321        12.43562        10.19717
     2014.71594         9.37975        10.25385
     2014.71868        11.12389        10.10161
     2014.72142        11.13402        10.15506
     2014.72416        12.07216        10.19231
     2014.72689        14.01029        10.20041
     2014.72963        -0.30257        10.09351
     2014.73237         7.20557        10.36075
     2014.73511         4.16470        10.17611
     2014.73785        15.73084        10.18583
     2014.74058         4.48697        10.20203
     2014.74332         6.60011        10.28949
     2014.74606        12.53424        10.20041
     2014.74880        12.27738        10.10809
     2014.75154        11.24151        10.35913
     2014.75427         8.93865        10.00119
     2014.75701         5.62279        10.09999
     2014.75975        12.64392        10.05302
     2014.76249        11.09106         9.99309
     2014.76522        11.82319        10.00281
     2014.76796         6.92933        10.08541
     2014.77070         4.50246         9.96880
     2014.77344         2.27560        10.14696
     2014.77618        11.36573        10.04492
     2014.77891         9.78387        10.05950
     2014.78165         8.46001         9.91859
     2014.78439        12.03814         9.90725
     2014.78713        16.38428        10.01091
     2014.78987         4.20541         9.98824
     2014.79260         0.84555         9.94613
     2014.79534         7.68568         9.92831
     2014.79808        12.45882        10.18745
     2014.80082        11.57995        10.15182
     2014.80355        10.69109        10.35913
     2014.80629         9.49323         9.97690
     2014.80903         9.38436        10.12104
     2014.81177        14.72750         9.92345
     2014.81451        15.85263        10.00119
     2014.81724         2.95877        10.07731
     2014.81998        12.44790        10.15020
     2014.82272         6.38904        10.32836
     2014.82546        12.41218        10.01415
     2014.82820         3.87131         9.91049
     2014.83093        12.79845        10.31702
     2014.83367        -2.11042        10.28949
     2014.83641         5.86372         9.90240
     2014.83915        12.28585        10.18745
     2014.84188         6.48599        10.26357
     2014.84462         2.72312        10.39800
     2014.84736         8.16226        10.29920
     2014.85010         9.93640        10.41906
     2014.85284        11.77153         9.99309
     2014.85557        11.07167        10.20689
     2014.85831        11.15180        10.34293
     2014.86105         8.25294        10.29273
     2014.86379         8.80707        10.19393
     2014.86653         3.71721        10.21822
     2014.86926         2.76934        10.28463
     2014.87200         9.28048        10.36399
     2014.87474         4.43062        10.27653
     2014.87748         7.50675        10.28139
     2014.88021         2.12189        10.35751
     2014.88295        10.15702        10.01415
     2014.88569         4.89216        10.58102
     2014.88843         9.59129        10.99888
     2014.89117         0.68843        11.01508
     2014.89390         7.84456        10.74946
     2014.89664        10.34670        10.16316
     2014.89938         7.04284        10.50328
     2014.90212         1.52297        10.56644
     2014.90485         4.09311        10.18583
     2014.90759         6.14924        10.35751
     2014.91033        15.33838        10.44659
     2014.91307         5.23151        10.30406
     2014.91581        12.22765        10.64580
     2014.91854         5.23679        10.58426
     2014.92128        -6.35008        10.55834
     2014.92402        -1.30694        10.52757
     2014.92676         4.71619        10.44659
     2014.92950        -4.10067        10.28139
     2014.93114        19.07583        27.47048
     2015.31116        -2.14310        23.28537
     2015.34411       -11.96964        32.56907
     2015.34565         1.11594         9.81979
     2015.34839        -3.05293         9.97690
     2015.35112       -10.77679         9.92993
     2015.35386         0.44534         9.75663
     2015.35660        -6.61752         9.77930
     2015.35934        -8.68839        10.00281
     2015.36208        -1.20425         9.96394
     2015.36481        -5.03411         9.68698
     2015.36755        -6.44298         9.81494
     2015.37029        -5.49184         9.87648
     2015.37303        -8.39371         9.79550
     2015.37577       -12.22357         9.97852
     2015.37850       -12.36444        10.30568
     2015.38124        -5.68830         9.99633
     2015.38398       -14.11216         9.98014
     2015.38672        -2.75103         9.89106
     2015.38945       -12.14789        10.15344
     2015.39219        -7.37976        10.12266
     2015.39493        -3.73262        10.12428
     2015.39767        -5.45349        10.01577
     2015.40041        -4.81535        10.04168
     2015.40314        -2.49922        10.30568
     2015.40588        -5.47308        10.17611
     2015.40862        -7.47594        10.09513
     2015.41136        -1.95881        10.00929
     2015.41410        -4.65767         9.84733
     2015.41683        -7.49054        10.00767
     2015.41957         4.58060        10.21498
     2015.42231         3.35273        10.06598
     2015.42505        -6.61813        10.14210
     2015.42778        -3.50800         9.93803
     2015.43052        -3.24186         9.93479
     2015.43326        -3.69772         9.96718
     2015.43600         9.32941        10.21498
     2015.43874         0.30255        10.07408
     2015.44147         1.35368        10.28139
     2015.44421        -1.08318         9.93965
     2015.44695         6.76395        10.06598
     2015.44969        -5.47491         9.94289
     2015.45243         5.00222        10.32674
     2015.45516         1.61936        10.10647
     2015.45790        -3.10550        10.16316
     2015.46064        -2.82837        10.32998
     2015.46338         4.57277        10.25223
     2015.46611         4.44090        10.13076
     2015.46885         5.11904        10.10323
     2015.47159         7.06517        10.02225
     2015.47433        -0.69169        10.17611
     2015.47707         3.27945        10.32026
     2015.47980         6.06958        10.41420
     2015.48254         4.67972        10.23280
     2015.48528        -0.10915        10.16477
     2015.48802         1.06699         9.93803
     2015.49076         1.12412        10.19717
     2015.49349         5.52326        10.28139
     2015.49623        10.39439        10.45955
     2015.49897         2.45553        10.33807
     2015.50171         4.14367        10.20689
     2015.50444        14.63680         9.99795
     2015.50718         1.28494        10.13562
     2015.50992         7.71307         9.97204
     2015.51266        11.19821        10.20365
     2015.51540        12.46034        10.21174
     2015.51813        10.84348        12.72540
     2015.51997        11.20465        16.92671
     2015.52477        -9.63998        33.91498
     2015.52635         6.88089        10.08541
     2015.52908         5.53202        10.05950
     2015.53182        10.95316         9.99309
     2015.53456        10.55029         9.94451
     2015.53730        -1.45957        12.48408
     2015.54004         4.75156        10.18907
     2015.54277         4.67170        10.35103
     2015.54551         8.66383        10.29273
     2015.54825        21.97297        15.16132
     2015.54997         6.96610        20.91585
     2015.59326       -32.74926        42.97193
     2015.59479        17.45728        10.28949
     2015.59753        14.96641        10.31216
     2015.60027        15.09355        10.51785
     2015.60301        11.50468        10.63609
     2015.60574         9.17982        10.46926
     2015.60848        12.16295        10.35913
     2015.61122         9.88809        10.27329
     2015.61396        12.65122        10.32026
     2015.61670        10.70536        10.12914
     2015.61943        15.34550        10.14048
     2015.62217        14.67163        10.07731
     2015.62491        16.29777        10.02549
     2015.62765        18.73990        10.13886
     2015.63039        11.28204        10.09351
     2015.63312         9.75617        10.19231
     2015.63586         9.91531        10.27329
     2015.63860         7.43344        10.06922
     2015.64134         9.14358        10.21822
     2015.64407         9.28472        10.26033
     2015.64681         8.66385        10.42553
     2015.64955         5.54299        10.22794
     2015.65229         9.36812        10.23604
     2015.65503        21.12826        10.00767
     2015.65776        13.89139        10.24414
     2015.66050        10.10953        10.00929
     2015.66324        17.22167        10.14210
     2015.66598        11.53480        10.20850
     2015.66872        15.15794        10.06598
     2015.67145        17.89207        10.08703
     2015.67419        14.82421         9.96232
     2015.67693        14.29234         9.98338
     2015.67967        10.77348        10.06598
     2015.68240         8.19061         9.93479
     2015.68514         9.86475         9.89430
     2015.68788        18.96289         9.95422
     2015.69062        21.52002         9.91535
     2015.69336        10.48016        10.25547
     2015.69609        10.19129        10.13076
     2015.69883        12.96243         9.96880
     2015.70157        14.42456        10.00281
     2015.70431        12.62570        10.07731
     2015.70705        11.67383         9.95260
     2015.70978         6.29897        10.21336
     2015.71252        13.32011         9.97690
     2015.71526        15.75424         9.94289
     2015.71800        14.45538        10.03359
     2015.72073        13.98051         9.91211
     2015.72347        14.21865         9.98824
     2015.72621         4.81778         9.94613
     2015.72895         6.92092        10.03520
     2015.73169        11.59605         9.99471
     2015.73442         7.55619         9.95422
     2015.73716        14.04433         9.94774
     2015.73990        14.01146        10.29434
     2015.74264         7.95860        10.23766
     2015.74538        14.38873        10.42715
     2015.74811         7.35487        10.65552
     2015.75085        -2.81100        10.02387
     2015.75359        14.50214        10.03035
     2015.75633        12.39628        10.00605
     2015.75906        10.22341        10.04816
     2015.76180        10.09255        10.00767
     2015.76454         9.50868         9.98824
     2015.76728         8.42582         9.92345
     2015.77002         6.68595         9.99957
     2015.77275        11.85509        10.04492
     2015.77549        16.40722         9.96070
     2015.77823        16.31636        10.03197
     2015.78097        12.73150         9.89916
     2015.78371        11.73263         9.98986
     2015.78644        17.89377         9.90725
     2015.78918         9.77590        10.07408
     2015.79192        10.76004        10.35913
     2015.79466        11.15417        10.05950
     2015.79739         8.01331        10.01739
     2015.80013        16.90244        10.27815
     2015.80287        13.56458        10.10323
     2015.80561        13.08072        10.03844
     2015.80835        11.36885         9.98176
     2015.81108        11.68299         9.92669
     2015.81382         9.21412        10.10161
     2015.81656        15.11826        10.03035
     2015.81930        11.69239        10.11295
     2015.82203        12.74353        10.05788
     2015.82477        16.45766         9.93317
     2015.82751         7.68180        10.18097
     2015.83025        17.05794        10.14048
     2015.83299        12.76007        10.16801
     2015.83572        10.03121        10.27653
     2015.83846         7.68434        10.17935
     2015.84120        10.61048        10.14858
     2015.84394         9.88061        10.39314
     2015.84668         5.37675        10.15182
     2015.84941        11.38189        10.29273
     2015.85215        16.84602        10.21174
     2015.85489        15.43816        10.33807
     2015.85763         1.78029        10.61989
     2015.86036         6.75343        10.41582
     2015.86310         8.96456        10.21984
     2015.86584        12.27670        10.30730
     2015.86858        14.16283        10.18259
     2015.87132        13.38697        10.24576
     2015.87405         1.20911        10.20850
     2015.87679         1.73124        10.33969
     2015.87953         8.76338        10.33969
     2015.88227        10.80951        10.45469
     2015.88501        11.64965        10.39152
     2015.88774        12.05378        10.30406
     2015.89048        16.30992        10.35751
     2015.89322        15.82905        10.32674
     2015.89596        11.78119        10.18259
     2015.89869         4.75633        10.07246
     2015.90143         1.90246        10.12428
     2015.90417         7.02260         9.79874
     2015.90691         9.09173         9.91697
     2015.90965         8.78187        10.11943
     2015.91238         9.93800        10.21012
     2015.91512         2.95814        10.20850
     2015.91786        -3.21073        10.32026
     2015.92060        12.51441        10.12104
     2015.92334         6.05455        10.27167
     2015.92607         3.61768        10.22308
     2015.92881         1.99782        10.26681
     2015.93155         0.33795        10.97783
     2015.93429         4.52409        10.58426
     2015.93702        11.83322        10.35589
     2015.93976         7.66636        10.71869
     2015.94250         5.43450        10.52595
     2015.94524         6.18963        10.22956
     2015.94798        16.83877        10.50976
     2015.95071        16.24790        10.28301
     2015.95345        10.63004        10.54215
     2015.95619        12.06317        10.56320
     2015.95893         4.31631        10.87093
     2015.96167        22.60944        10.90009
     2015.96440        24.30358        10.51947
     2015.96714        20.46072        10.50814
     2015.96988        17.45185        10.50490
     2015.97262        25.38099        10.67496
     2015.97535        34.93112        10.63285
     2015.97809        41.18226        10.93086
     2015.98083        29.01739        10.63771
     2015.98357        19.09853        10.51947
     2015.98631         3.13166        10.65552
     2015.98904         2.36780        10.40124
     2015.99178        -2.51106        10.49194
     2015.99452        -1.39793        10.46441
     2015.99726         2.04121        10.31054
     2015.99903       -11.23521        19.44847
     2016.42547       -23.12388        24.53734
     2016.42710       -12.12951        22.47555
     2016.42984        -8.57037        15.39455
     2016.43258        -6.84423        12.96187
     2016.43531        -2.42110        10.23604
     2016.43805         1.57704         9.89754
     2016.44079        -0.98483        10.29273
     2016.44353        -5.94469        10.22146
     2016.44626        -5.48056        10.05140
     2016.44900         0.42758         9.71614
     2016.45174        -1.84929        10.02549
     2016.45448        -5.70515         9.94936
     2016.45722        -3.53201         9.91049
     2016.45995         5.71312        10.23928
     2016.46269         4.44226         9.97204
     2016.46543        -3.51061         9.75825
     2016.46817        -4.44047         9.90725
     2016.47091         1.71966         9.83599
     2016.47364         2.89280        10.03682
     2016.47638         5.14993         9.87810
     2016.47912         4.71507         9.94774
     2016.48186        -3.31679         9.82627
     2016.48459        -0.05866         9.97528
     2016.48733        -2.62352         9.88944
     2016.49007         5.55061         9.88134
     2016.49281         1.92375         9.92669
     2016.49555         5.62088        10.10971
     2016.49828         4.17002         9.95908
     2016.50102         3.06115        10.03682
     2016.50376        -0.55171        10.35427
     2016.50650        -0.09057        10.04006
     2016.50924         6.62256         9.80360
     2016.51197         0.87870         9.75987
     2016.51471        -2.52617         9.67889
     2016.51745         0.96197        10.18259
     2016.52019        -2.31890         9.81494
     2016.52292         1.80124         9.83113
     2016.52566         2.75038         9.72586
     2016.52840         3.26051         9.72748
     2016.53114         4.92665         9.85705
     2016.53388         3.74978         9.89106
     2016.53661         7.84492         9.94289
     2016.53935         7.12205         9.85219
     2016.54209         3.94719         9.78092
     2016.54483         3.25332         9.60600
     2016.54757        -3.39854         9.79064
     2016.55030         7.09360         9.98986
     2016.55304         5.41373         9.72748
     2016.55578         8.11087        10.02873
     2016.55852        10.10400         9.85867
     2016.56125         9.83814         9.78578
     2016.56399         3.35727         9.90563
     2016.56673         7.77041         9.98500
     2016.56947         6.86054        10.14696
     2016.57221         9.66568         9.92021
     2016.57494         6.39082        10.06922
     2016.57768         9.33095         9.78254
     2016.58042         6.87809         9.86028
     2016.58316         8.08222         9.74691
     2016.58590         7.35436         9.89916
     2016.58863         9.71349         9.91535
     2016.59137         5.00063         9.91535
     2016.59411         7.37077         9.91697
     2016.59685        11.43690         9.94289
     2016.59958        12.94304         9.90401
     2016.60232         3.10917         9.95260
     2016.60506         8.85031         9.87972
     2016.60780         0.84244         9.93965
     2016.61054        -0.65142         9.84409
     2016.61327        -3.96029         9.93641
     2016.61601       -10.21715        10.00605
     2016.61875        -8.70701         9.78578
     2016.62149        -0.44488         9.81008
     2016.62423         8.81226        10.00767
     2016.62696         0.77939        10.03682
     2016.62970         2.66553         9.97042
     2016.63244        -8.89434        10.09837
     2016.63518         0.54280        10.01415
     2016.63791         0.63393         9.85057
     2016.64065        -2.26493         9.77768
     2016.64339        -5.34779         9.81817
     2016.64613         1.42934         9.84247
     2016.64887        -5.64652         9.87972
     2016.65160        -1.27239        10.05950
     2016.65434        -4.89525         9.83275
     2016.65708        -8.30812         9.79064
     2016.65982        -2.80198         9.90401
     2016.66256        -2.67480         9.94289
     2016.66529        -2.01671         9.93641
     2016.66803        -3.38157         9.69670
     2016.67077         0.57856         9.74853
     2016.67351         1.41070         9.80360
     2016.67624         3.64983         9.83761
     2016.67898         6.23697         9.77444
     2016.68172         3.88110         9.65945
     2016.68446        -1.77676        10.09189
     2016.68720        -5.86863        10.22308
     2016.68993         5.78951         9.79064
     2016.69267        -4.45735         9.74691
     2016.69541         0.15078         9.67727
     2016.69815         7.36292         9.82303
     2016.70089         0.01905         9.68213
     2016.70362         1.49219         9.96718
     2016.70636         1.56132        10.30244
     2016.70910         0.98146        10.35589
     2016.71184         6.82060         9.68051
     2016.71457         5.34473         9.67727
     2016.71731         5.62887         9.65297
     2016.72005         4.54000         9.76473
     2016.72279         3.16714         9.81979
     2016.72553         7.22827         9.97366
     2016.72826         4.76441        10.10809
     2016.73100        -0.88546         9.83275
     2016.73374         1.28368         9.66107
     2016.73648         5.44882         9.67727
     2016.73921         1.46595         9.60276
     2016.74195         2.32809         9.80360
     2016.74469        -3.49878         9.68375
     2016.74743         2.53236         9.70480
     2016.75017         5.53349         9.65297
     2016.75290        -3.61637         9.71452
     2016.75564       -12.97424         9.65135
     2016.75838        -5.16710         9.66917
     2016.76112         1.08304         9.50397
     2016.76386         5.39917         9.56713
     2016.76659         9.29931         9.93965
     2016.76933        12.35244         9.71776
     2016.77207         8.75458         9.67889
     2016.77481        11.48171         9.75015
     2016.77754        14.41485         9.80684
     2016.78028         9.68698         9.77930
     2016.78302         3.29512         9.87486
     2016.78576        10.41226         9.85705
     2016.78850        14.40739         9.87972
     2016.79123        14.05953        10.22632
     2016.79397        11.03166        10.03520
     2016.79671         1.98180        10.10161
     2016.79945         0.87593         9.81817
     2016.80219         8.34107         9.85057
     2016.80492         7.83721         9.73719
     2016.80766        10.12434         9.89106
     2016.81040         5.97048         9.89430
     2016.81314         6.49461         9.77930
     2016.81587        -5.44125        10.02387
     2016.81861       -10.49412         9.95746
     2016.82135         7.54702         9.91859
     2016.82409         5.22915         9.88620
     2016.82683        12.76229         9.99633
     2016.82956         9.95343         9.71290
     2016.83230        12.98856         9.92345
     2016.83504        -1.04630         9.94289
     2016.83778         3.28183        10.00605
     2016.84052        -1.07703         9.89592
     2016.84325         3.49210         9.87000
     2016.84599         3.30624         9.90078
     2016.84873         5.72337         9.85867
     2016.85147        -0.11249         9.87162
     2016.85420         9.54265         9.79064
     2016.85694         5.41178         9.93479
     2016.85968        10.27092        10.09351
     2016.86242         9.07205         9.75825
     2016.86516         7.14319         9.82627
     2016.86789         0.79732         9.87324
     2016.87063         4.10846         9.68375
     2016.87337         4.71259        10.09837
     2016.87611         7.97473         9.69670
     2016.87885         3.11987         9.44728
     2016.88158        -4.34100         9.57199
     2016.88432         0.35014         9.61248
     2016.88706        11.19327         9.97204
     2016.88980         2.76041        10.03844
     2016.89253         0.38354         9.80036
     2016.89527        -1.97532         9.64973
     2016.89801         1.09082         9.56227
     2016.90075        -5.18805         9.59629
     2016.90349         7.12509         9.94127
     2016.90622         1.71022         9.77444
     2016.90896         0.76036         9.58333
     2016.91170        -2.44751         9.51854
     2016.91444        -0.61737         9.75663
     2016.91718        -7.19324         9.79064
     2016.91991        -4.20310         9.83113
     2016.92265        -5.78296         9.90078
     2016.92539        -1.48983         9.65297
     2016.92813        -4.62969         9.65459
     2016.93086        -7.91256         9.54122
     2016.93360        -4.88242         9.62868
     2016.93634         3.09571         9.71938
     2016.93908         5.62785        10.65228
     2016.94182        30.50098        10.35913
     2016.94455        26.35212        10.82720
     2016.94729        17.52726        10.94381
     2016.94884         2.24692        37.19148
     2016.97582        13.80671        22.89018
     2016.97640        -2.69618        20.76037
     2017.50704        -9.39027        47.63645
     2017.50734        -8.76763        29.81894
     2017.51257        25.27350       111.47240
     2017.51403       -15.20668        21.51997
     2017.51676       -16.19254        18.53986
     2017.51950         2.10259        15.32814
     2017.52224        -0.44027        12.88413
     2017.52498        -4.34414        11.09444
     2017.52772        -1.28600        10.23766
     2017.53045        -6.27786         9.80684
     2017.53319        -1.02373         9.74529
     2017.53593        -4.53459        10.00119
     2017.53867        -3.17946         9.94774
     2017.54141         3.01468         9.82141
     2017.54414        -1.22919         9.75825
     2017.54688        -0.40605         9.76473
     2017.54962        -1.58591         9.83761
     2017.55236         0.11722         9.80846
     2017.55509         2.52736         9.77444
     2017.55783        -1.27551         9.89106
     2017.56057        -3.76337         9.90725
     2017.56331         2.85976        10.06274
     2017.56605         1.03490        10.04654
     2017.56878        -0.76097         9.95260
     2017.57152         3.01617         9.81332
     2017.57426        -5.08669         9.87810
     2017.57700         3.65544        10.03359
     2017.57974         3.76758         9.98500
     2017.58247         8.18371         9.86514
     2017.58521        -5.66115         9.84733
     2017.58795        -3.79002        10.17611
     2017.59069        -1.55888        10.06274
     2017.59342        -0.99075         9.82465
     2017.59616         6.74439         9.94289
     2017.59890         6.43253        11.59976
     2017.60164         3.28966        14.01787
     2017.60438        -0.17220        12.39014
     2017.60711         2.32293        11.60138
     2017.60985         0.79307        11.64025
     2017.61259         3.39420         9.87972
     2017.61533        -1.36566         9.63840
     2017.61807        10.43147        10.07246
     2017.62080         9.02661         9.72910
     2017.62354         2.27075         9.75015
     2017.62628         4.00888         9.84895
     2017.62902        10.59202        10.17125
     2017.63175         6.00815        11.91559
     2017.63449         0.24329        13.05419
     2017.63723         6.73142        11.96094
     2017.63997        11.21156        12.74808
     2017.64271         2.11570        13.21777
     2017.64544        13.60383        13.02503
     2017.64818         8.58697        10.80939
     2017.65092         7.54710        10.77699
     2017.65366         8.87624        11.66941
     2017.65639        14.77637        13.31495
     2017.65913        12.37851        11.71314
     2017.66187        10.49264        12.23304
     2017.66461        10.77178        11.85728
     2017.66735        13.30392        13.02018
     2017.67008         8.83805        12.50352
     2017.67282        18.39719        13.90773
     2017.67556        16.51732        14.02110
     2017.67830        10.98546        14.43411
     2017.68104         6.83359        14.29806
     2017.68377         4.24773        14.39524
     2017.68651         5.62186        16.72912
     2017.68925        20.37400        11.94474
     2017.69199        16.81414        12.86145
     2017.69472        10.72127        12.98778
     2017.69746         9.91841        13.46395
     2017.70020        -3.32146        16.27886
     2017.70294        12.47568        12.64280
     2017.70568        12.85781        11.93503
     2017.70841        14.75795        11.87672
     2017.71115        11.72708        12.28487
     2017.71389         2.56622        11.45562
     2017.71663        21.95936        15.89663
     2017.71937        13.07149        11.66617
     2017.72317        16.78706        21.42118
     2017.72484         5.39976        12.06784
     2017.72758        11.65790        13.12059
     2017.73032        12.41603        11.48801
     2017.73305        13.95717        11.78602
     2017.73579        11.66931        12.18445
     2017.73853        10.74744        12.36747
     2017.74127        11.94158        12.74160
     2017.74401        10.42971        13.16432
     2017.74674        11.87085        14.59607
     2017.74948         8.91698        13.00074
     2017.75222         7.98812        12.53915
     2017.75496        14.50125        12.53753
     2017.75770        10.70239        13.57571
     2017.76043        15.15253        13.16756
     2017.76317        19.81066        13.61296
     2017.76591        13.42980        15.46581
     2017.76865        17.09493        13.79598
     2017.77138        21.61107        12.96511
     2017.77412        16.05820        13.51740
     2017.77686        11.47834        13.30199
     2017.77960        14.60947        13.06553
     2017.78234         9.46461        13.66479
     2017.78507        12.73875        13.53846
     2017.78781        12.71988        14.96211
     2017.79055        16.70802        15.99381
     2017.79329         6.55715        20.70044
     2017.79603         3.64329        15.73467
     2017.79761         2.67224        24.85317
     2017.80248        10.98915        18.10580
     2017.80424         4.61869        13.83647
     2017.80698         2.27283        13.78464
     2017.80971         0.27297        13.05257
     2017.81245         4.28410        14.86331
     2017.81519        11.20724        15.54193
     2017.81793        13.68137        15.84966
     2017.82067         4.67451        14.88922
     2017.82340         7.18564        13.80893
     2017.82614         7.17278        15.00422
     2017.82888        15.49192        14.37418
     2017.83162         7.18705        14.42763
     2017.83436        10.94419        15.46095
     2017.83709         1.17432         9.79550
     2017.83983        -0.70654         9.77768
     2017.84257        -1.06441        10.05626
     2017.84531         3.01273        10.20850
     2017.84804        -3.87314        10.09675
     2017.85078        -5.48800         9.99795
     2017.85352         2.15114        10.15506
     2017.85626         5.45727        10.14534
     2017.85900         8.30241        10.29111
     2017.86173         7.41054        10.47412
     2017.86447        -1.02732         9.96070
     2017.86721         4.72481         9.89268
     2017.86995        -1.29305        10.05626
     2017.87269        -1.31192         9.92831
     2017.87542        -1.58978         9.96718
     2017.87816        -5.75964        10.08055
     2017.88090        -1.79151         9.92183
     2017.88364         0.33463         9.91697
     2017.88637        -6.89324        10.03682
     2017.88911        -9.28510         9.80684
     2017.89185        -4.98197         9.54932
     2017.89459        -2.85683         9.94774
     2017.89733        -0.36070         9.72100
     2017.90006        -0.83856         9.75339
     2017.90280        -7.08842         9.74205
     2017.90554        -0.80429         9.76959
     2017.90828        -1.83815         9.60762
     2017.91102        -2.62502         9.66269
     2017.91375        -6.97588         9.79874
     2017.91649        -4.28075         9.62058
     2017.91923         0.36639         9.69508
     2017.92197        -2.46347         9.47481
     2017.92470        -2.69634         9.37278
     2017.92744        -9.16920         9.42137
     2017.93018        -6.75107         9.51368
     2017.93292        -7.41593         9.63678
     2017.93566        -5.84380         9.50559
     2017.93839        -0.31866         9.46348
     2017.94113        -8.84953         9.52502
     2017.94387        -2.84639         9.50883
     2017.94661        -3.66325         9.49425
     2017.94935        -5.02112         9.64487
     2017.95208        -1.01798         9.76959
     2017.95482        -5.43785         9.56875
     2017.95756        -3.55871         9.56713
     2017.96030         0.91942         9.46186
     2017.96303        -6.89244         9.50883
     2017.96577         0.64069         9.81494
     2017.96851        -4.62117         9.36144
     2017.97125        -6.26003         9.40841
     2017.97399        -5.16890         9.52988
     2017.97672        -8.56476         9.48291
     2017.97946        -6.57563         9.61896
     2017.98220       -12.62649         9.56065
     2017.98494       -11.19136         9.55903
     2017.98767       -19.22022         9.68375
     2017.99041       -10.26709         9.61896
     2017.99315        -7.50995         9.54122
     2017.99589       -12.34281         9.66755
     2017.99863        -5.41768         9.55580
     2018.00136       -13.30754         9.61248
     2018.00410       -12.39141         9.68537
     2018.00684        -9.15627         9.59467
     2018.00958       -11.38714         9.83599
     2018.01232        -8.35100         9.98176
     2018.01505        -5.25586         9.76959
     2018.01779        -5.05173         9.67727
     2018.02053       -10.14059         9.75339
     2018.02327       -14.12946         9.90725
     2018.02600       -11.14232        10.22632
     2018.02874        -5.17419        10.08217
     2018.03148       -14.00305         9.94936
     2018.03422       -11.19492         9.84247
     2018.03696       -13.44478         9.68213
     2018.03969       -14.91964         9.74043
     2018.04243       -12.59851         9.77444
     2018.04517       -14.89537         9.61410
     2018.04791        -9.10824         9.65621
     2018.05065        -4.32410        20.36032
     2018.05338        -6.27397        10.59721
     2018.05612       -12.59183         9.99795
     2018.05886       -10.82970         9.94127
     2018.06160       -12.27056         9.74853
     2018.06433        -6.23242         9.70966
     2018.06644        -3.45986        13.63239
     2018.07084        -6.43406        19.97971
     2018.07255       -16.86002        13.99033
     2018.07529       -24.88788         9.94774
     2018.07802       -21.11675         9.91859
     2018.08076       -18.26761         9.97852
     2018.08350       -15.17448        10.01091
     2018.08624       -13.30734        10.00119
     2018.08898       -18.23820         9.88944
     2018.09171       -17.39907         9.73881
     2018.09445       -13.86393         9.86838
     2018.09719       -13.39180        10.11295
     2018.09993       -17.53166        10.08379
     2018.10266       -12.43853         9.84733
     2018.10540       -13.12939        10.09675
     2018.10814       -14.74225         9.82627
     2018.11088       -13.29512        10.00281
     2018.11362       -10.08798         9.94774
     2018.11635       -14.24485         9.76149
     2018.11909       -16.15371         9.96394
     2018.12183       -14.57758         9.92021
     2018.12457       -13.83944         9.69184
     2018.12731       -11.86831         9.98986
     2018.13004       -11.82217         9.97204
     2018.13278         0.37297         9.76311
     2018.13552       -10.91890         9.69670
     2018.13826        -9.45676         9.66755
     2018.14099       -12.71963         9.64326
     2018.14373       -14.94949         9.74043
     2018.14647       -17.04136        10.16963
     2018.14921       -12.29822        10.00929
     2018.15195       -16.13409         9.65621
     2018.15468        -9.63495         9.66269
     2018.15742        -9.38881        11.46048
     2018.15925       -24.81168        18.03778
     2018.35288       -30.82276        21.62039
     2018.37189       -24.35719        26.42096
     2018.37471       -20.89826        19.05652
     2018.37758       -34.82904        27.31014
     2018.37788       -20.50540       147.26128
     2018.38848       -78.65587        47.24450
     2018.39116        -1.65228        53.02333
     2018.39398       -32.03139        22.66505
     2018.39435       -38.55316        75.70295
     2018.39943       -31.11641        22.81730
     2018.40109       -14.12075        17.41098
     2018.40383       -11.20161        15.44152
     2018.40657       -15.79148        15.52574
     2018.40930        -5.45134        13.28256
     2018.41204        -5.82020        12.83392
     2018.41391        -4.78274        15.64235
     2018.42418        -3.98219        31.79650
     2018.42573        -3.36553        18.64190
     2018.42847       -17.53239        18.01672
     2018.43121       -16.31226        17.37049
     2018.43394        -4.22012        17.11297
     2018.43668        -2.91798        15.06091
     2018.43942       -20.90785        20.16921
     2018.44216       -24.28671        19.44685
     2018.44490       -23.00558        18.94477
     2018.44763        -7.89244        17.80779
     2018.45037        -2.67831        17.67660
     2018.45311        -6.98117        16.94453
     2018.45585         0.47496        18.40705
     2018.45859       -10.60390        16.35985
     2018.46132       -21.80176        12.90680
     2018.46406        -7.15463        10.19879
     2018.46680        -4.04149        14.51671
     2018.46954       -12.12436         9.55741
     2018.47227        -8.00222         9.64002
     2018.47501        -3.50809         9.54608
     2018.47775         0.37705         9.52016
     2018.48049        -7.22082         9.70642
     2018.48323        -7.28568         9.39545
     2018.48596       -12.74754         9.52502
     2018.48870        -8.98041         9.67565
     2018.49144       -17.44527        11.03451
     2018.49418        -4.30814        10.27005
     2018.49692        -9.29100        12.92462
     2018.49965       -11.41687        13.40403
     2018.50239        -6.88173        14.47136
     2018.50513       -11.06959        15.00584
     2018.50787         0.90654        14.17011
     2018.50971        -3.61624        16.77123
     2018.51444       -17.64751        26.46631
     2018.51608       -15.19705        15.21963
     2018.51882       -14.41392        14.89408
     2018.52156         4.53322        21.52807
     2018.52429        -1.62565        18.54796
     2018.52703         3.10749        13.31333
     2018.52977        -5.56037        12.95539
     2018.53251        -5.68924        22.07551
     2018.53525         1.05690        14.32559
     2018.53798        -8.35497        14.96859
     2018.54072         2.17317        13.57895
     2018.54346         3.72430        12.53753
     2018.54620        -8.77156        14.63332
     2018.54893        -8.60843        13.04609
     2018.55167        -3.18429        12.93434
     2018.55441         2.71885        12.23304
     2018.55715        -6.51002        13.24368
     2018.55989        -7.64288        14.10856
     2018.56262         0.15625        13.33600
     2018.56536         3.78339        13.17242
     2018.56810         3.14652        14.00977
     2018.57084        -1.13634        13.81703
     2018.57357        -1.71321        15.26336
     2018.57631        -6.38607        14.86493
     2018.57905        -5.46393        13.67612
     2018.58179        10.66320        15.43342
     2018.58453         5.90734        14.01301
     2018.58726        12.96047        13.97252
     2018.59000        -4.63939        14.12314
     2018.59274        -8.20026        13.51254
     2018.59548         9.50888        15.46905
     2018.59822         5.29602        15.10625
     2018.60095        -0.92485        15.39617
     2018.60369        11.89429        15.11921
     2018.60643         4.65542        14.86007
     2018.60917         0.89056        14.84226
     2018.61190         5.66669        14.76613
     2018.61464        -1.40717        14.22194
     2018.61738         4.80996        13.69394
     2018.62012        -2.44490        14.17335
     2018.62286         3.28924        13.52874
     2018.62559         8.66537        13.39269
     2018.62833        -5.71449        12.77075
     2018.63107         3.72464        13.26960
     2018.63381        -2.20922        15.29899
     2018.63655         6.81391        15.78326
     2018.63928         5.46305        16.59145
     2018.64202        -1.98982        15.77030
     2018.64476         4.61632        13.44128
     2018.64750         1.38846        13.38783
     2018.65023        -3.67141        14.00329
     2018.65297         2.23673        13.29551
     2018.65571         5.22486        12.63470
     2018.65845         5.14100        12.72864
     2018.66119        -2.12587        12.47112
     2018.66392        -4.40373        12.63309
     2018.66666         4.82740        12.98778
     2018.66940         1.15054        13.80408
     2018.67214        11.29168        14.24299
     2018.67488         0.83881        14.09075
     2018.67761         2.12495        13.37649
     2018.68035         3.17908        13.82513
     2018.68309        -5.62078        13.79112
     2018.68583         3.36235        12.02411
     2018.68856         1.35949        10.00281
     2018.69130         1.52363        14.27863
     2018.69404         1.60976        13.48015
     2018.69678         8.39590        12.68005
     2018.69952        -0.97797        12.60879
     2018.70225        -1.40583        10.47736
     2018.70499        -4.90970         9.74529
     2018.70773        -3.53556        10.81910
     2018.71047        -4.10943        11.92693
     2018.71321        -2.88929        10.41744
     2018.71594        -4.91315         9.63516
     2018.71868        -4.55902         9.66269
     2018.72142        -0.97588        11.50583
     2018.72416        -0.97175        10.61341
     2018.72689         6.16539        12.66062
     2018.72963         5.47052        11.80708
     2018.73237         0.91866        11.62892
     2018.73511        -4.40821        11.34710
     2018.73785        -0.01007        11.45886
     2018.74058         2.91507        14.28510
     2018.74332         1.87620        11.95770
     2018.74606        -1.55266        10.13562
     2018.74880        -5.49953        10.59398
     2018.75252        19.55928        30.46517
     2018.75541         9.10780        24.56163
     2018.76069         8.30435        16.92024
     2018.76249         7.94815        13.21291
     2018.76522        -2.89171        16.58497
     2018.76796         4.04042         9.78416
     2018.77070         7.24956        13.18214
     2018.77344         3.52169         9.84571
     2018.77618         5.23883        13.16918
     2018.77891         4.30196        11.15923
     2018.78165         2.23510        11.07662
     2018.78439        -0.01076        10.98107
     2018.78713        -1.11763        11.06529
     2018.78987        -6.38749        10.53243
     2018.79260        -3.78136        10.67334
     2018.79534         5.09978         9.58819
     2018.79808        -3.53009         9.56551
     2018.80082        -0.92695        10.17449
     2018.80355         8.36518        14.89408
     2018.80629         5.90832        15.21477
     2018.80903         4.98046        13.43966
     2018.81177         2.80759        17.17128
     2018.81451        -2.84927         9.71290
     2018.81724       -10.65314         9.50559
     2018.81998        -0.67400         9.66917
     2018.82272         1.69213         9.72262
     2018.82546        -1.10173         9.68537
     2018.82820        -1.36160         9.57523
     2018.83093        -6.84746         9.64002
     2018.83367        -3.13132         9.52988
     2018.83641         4.07381         9.91373
     2018.83915         3.56795         9.69994
     2018.84188        -3.77692         9.82789
     2018.84462        -3.01578         9.81656
     2018.84736        -7.70365         9.63840
     2018.85010        -1.27251         9.71614
     2018.85284         0.07162         9.78092
     2018.85557        -6.16424         9.71614
     2018.85831        -1.63910         9.63192
     2018.86105        -2.11597         9.73719
     2018.86379        -4.38583         9.85057
     2018.86653         1.31430         9.72910
     2018.86926        -5.78956         9.72910
     2018.87200        -6.90343         9.63030
     2018.87474         3.43671         9.66755
     2018.87748         1.40785         9.76959
     2018.88021         1.90998         9.79064
     2018.88295         3.46512         9.77930
     2018.88569         3.11225         9.79712
     2018.88843         3.67939         9.74691
     2018.89117        -0.84748        10.08865
     2018.89364        -1.37969        11.71314
     2018.89759         3.39217        17.24416
     2018.89938         1.23093         9.79712
     2018.90212         0.86307         9.82303
     2018.90485         0.00820         9.87648
     2018.90759         2.29734         9.89592
     2018.90909        13.79154        44.01173
     2018.92237        18.20057        21.79207
     2018.92402         4.97315        12.73350
     2018.93055         6.65272        19.52136
     2018.93223        -4.92044         9.94451
     2018.93497        -0.48731         9.83113
     2018.93771        -4.86417         9.93803
     2018.94045         2.94796         9.81332
     2018.94318         2.39410         9.69508
     2018.94592         0.59823         9.69670
     2018.94866         2.14637         9.54122
     2018.95140         3.58751         9.84085
     2018.95414        12.29164         9.81817
     2018.95676         2.83173        10.59074
     2018.96072        19.28972        25.47672
     2018.96605        -6.57435        16.91214
     2018.96783        -7.61968        10.25223
     2018.97056        -0.70454        10.17125
     2018.97330        -1.50741         9.96718
     2018.97604        -7.30327        10.03520
     2018.97819       -10.12929        13.55951
     2018.98264        -9.20311        24.98436
     2018.98425        -0.82187        10.29596
     2018.98699        -8.76773         9.75015
     2018.98973       -15.66260        10.63933
     2018.99247        -9.60246         9.94936
     2018.99520        -8.94132         9.98824
     2018.99794        -9.31819         9.66917
     2019.00068       -12.22805         9.72586
     2019.00342       -10.04592         9.74043
     2019.00616       -13.71578         9.67565
     2019.00889        -7.30465         9.69994
     2019.01163        -6.14251         9.66431
     2019.01383        -0.68511        12.88899
     2019.01817        -7.63685        20.88670
     2019.01882       -23.07411        19.23306
     2019.45887       -19.37590        20.44292
     2019.46064       -23.21327        18.06693
     2019.46338       -12.50414        16.27724
     2019.46611       -12.69900        12.77561
     2019.46885       -10.68587        10.03520
     2019.47159        -8.86173         9.91697
     2019.47433        -9.68960         9.66269
     2019.47707       -12.22246         9.65621
     2019.47980       -10.84133         9.99147
     2019.48254       -10.82819         9.68375
     2019.48528        -2.66105         9.92021
     2019.48802       -18.53592         9.80198
     2019.49076       -12.86078         9.71614
     2019.49349       -13.20965         9.65783
     2019.49623       -12.01351         9.70480
     2019.49897       -11.94738         9.47157
     2019.50171       -11.49924         9.48453
     2019.50444       -15.51011         9.53312
     2019.50718       -12.64897         9.42461
     2019.50992       -10.36983         9.49101
     2019.51266       -18.28170         9.60276
     2019.51540        -4.90456         9.51854
     2019.51813       -13.78343         9.48777
     2019.52087       -11.05529         9.45700
     2019.52361        -9.80716         9.39383
     2019.52635       -12.80402         9.41327
     2019.52908        -8.94488        10.07408
     2019.53182       -10.39075         9.75987
     2019.53456        -8.06261         9.75015
     2019.53730        -6.38848         9.98986
     2019.54004        -8.59634         9.91697
     2019.54277        -6.56721         9.83275
     2019.54551        -3.17407        10.16154
     2019.54825        -7.72794         9.54770
     2019.55099        -4.59380         9.53312
     2019.55373        -4.00466         9.89268
     2019.55646       -10.73053         9.76311
     2019.55920        -1.75439        10.02063
     2019.56194        -3.55426         9.55580
     2019.56468       -11.21912         9.65459
     2019.56741        -3.88899         9.56065
     2019.57015        -6.75685         9.58009
     2019.57289        -6.81372         9.80360
     2019.57563        -4.86958         9.61896
     2019.57837         0.76656         9.67565
     2019.58110        -4.11131         9.57361
     2019.58384        -4.43517         9.86190
     2019.58658         6.36296         9.74691
     2019.58932        -0.60090         9.59467
     2019.59206        -0.00977         9.71452
     2019.59479        -4.98963         9.72424
     2019.59753        -0.59550        10.22470
     2019.60027        -4.65136        10.03520
     2019.60301        -6.71122         9.60600
     2019.60574        -3.85709        10.51947
     2019.60848       -14.38395        14.25271
     2019.61122       -18.01582         9.78902
     2019.61396        -9.31668         9.78740
     2019.61670        -6.64555         9.52016
     2019.61943        -7.58141         9.55580
     2019.62217       -12.04427         9.90401
     2019.62491        -1.77014         9.65135
     2019.62765        -7.58600         9.52016
     2019.63039        -2.20887         9.53150
     2019.63312       -12.32973         9.49425
     2019.63586        -5.20960         9.58009
     2019.63860        -0.66446         9.83761
     2019.64134        -5.69433         9.67565
     2019.64407        -6.71019         9.62706
     2019.64681       -14.80505         9.52340
     2019.64955        -8.63092         9.68860
     2019.65229        -2.82978         9.62058
     2019.65503        -6.49165         9.80198
     2019.65776        -6.19751         9.70966
     2019.66050        -6.40938         9.87648
     2019.66324        -4.90924         9.64649
     2019.66598       -12.29811         9.51530
     2019.66872        -7.46697         9.68051
     2019.67145        -6.85083         9.69184
     2019.67419        -4.01770         9.93479
     2019.67693        -4.83756        10.18907
     2019.67967        -8.39443         9.86190
     2019.68240       -10.38529         9.72262
     2019.68514       -14.49316         9.67403
     2019.68788        -6.51002        10.01415
     2019.69062        -4.34389         9.88458
     2019.69336        -1.05775        11.60138
     2019.69609        -6.09161         9.51368
     2019.69883        -4.93048         9.62706
     2019.70157        -6.85834         9.60438
     2019.70431        -3.36121         9.48129
     2019.70705        -4.65207         9.82465
     2019.70978        -1.63094        12.45979
     2019.71252        -3.22580         9.93317
     2019.71526        -7.85266        12.28487
     2019.71800         3.92847         9.98176
     2019.72073         0.75461        10.11781
     2019.72347        -0.59726         9.52988
     2019.72621        -4.94712         9.61410
     2019.72895         4.04801         9.64164
     2019.73169         7.36715         9.79874
     2019.73442         2.54128         9.65459
     2019.73716         2.99142         9.63516
     2019.73990         1.42856        10.11943
     2019.74264        -6.21431         9.78740
     2019.74538         4.34983        10.98269
     2019.74811         1.86296         9.60762
     2019.75085         0.61910         9.67079
     2019.75359         2.55123         9.99309
     2019.75633        -0.76863         9.64487
     2019.75906         3.10650         9.80846
     2019.76180         0.50064         9.43918
     2019.76454         0.78178         9.68051
     2019.76728        -0.53009         9.76149
     2019.77002        -0.46895         9.99309
     2019.77275         0.07218         9.77930
     2019.77549         3.08632         9.55094
     2019.77823         4.40745         9.62382
     2019.78097         4.49159         9.67079
     2019.78371         2.70772         9.83923
     2019.78644         1.26586         9.64164
     2019.78918        -0.79300         9.70804
     2019.79192         9.76713        10.02063
     2019.79466         2.08727         9.82141
     2019.79739         1.19940         9.92507
     2019.80013         5.77254         9.73071
     2019.80287        -0.20433         9.70156
     2019.80561         0.04281         9.96070
     2019.80835        -0.17105         9.77930
     2019.81108         4.84608         9.88458
     2019.81382         0.22022         9.73071
     2019.81656         1.14635         9.87324
     2019.81930         4.10149         9.61086
     2019.82203         0.92162         9.86028
     2019.82477        -0.81524         9.97042
     2019.82751         4.12689         9.75825
     2019.83025         5.62903        10.12428
     2019.83299         6.31717         9.99633
     2019.83572         4.74530         9.82627
     2019.83846         8.31244         9.91859
     2019.84120         8.58257         9.80522
     2019.84394         5.08971        10.02387
     2019.84668         1.68184         9.75501
     2019.84941         8.39598         9.92993
     2019.85215         3.54711        10.13886
     2019.85489        10.41925        10.02063
     2019.85763         8.15539         9.96718
     2019.86036         3.32252         9.86514
     2019.86310         5.62366         9.88782
     2019.86584        12.04379        10.18583
     2019.86858        10.99293        10.15992
     2019.87132         9.42306        10.12428
     2019.87405         5.45720         9.95260
     2019.87679         7.54333        10.10647
     2019.87953        12.19747         9.93155
     2019.88227        15.08061        10.30244
     2019.88501        13.49974         9.66917
     2019.88774        10.86188         9.94289
     2019.89048        10.55201         9.58171
     2019.89322        15.74315         9.53312
     2019.89596         9.75128         9.83113
     2019.89869         9.22342         9.73233
     2019.90133         6.71068        13.16756
     2019.90515        11.83332        15.96628
     2019.90681       -18.15801        43.64245
     2019.91064        28.12672        17.53893
     2019.91238         1.09110        11.59976
     2019.91625        11.11721        23.02785
     2019.91895         8.60996        23.41170
     2019.92060       -15.35050        17.07410
     2019.92607         7.89578        16.25781
     2019.92881         6.49191        17.30895
     2019.93148        -8.86458        28.16692
     2019.93528         0.29694        19.01603
     2019.93702         1.23932        11.40703
     2019.93976         2.59245        10.29434
     2019.94210        -4.70697        12.85012
     2019.95175       -14.63383        21.74834
     2019.95345       -21.74587        17.57618
     2019.95619       -20.80573        10.66362
     2019.95893        -5.18660        11.38597
     2019.96167        -5.20346        14.61065
     2019.96833        -6.07172        45.76902
     2019.97631         3.12460        17.02227
     2019.97809        -7.74365        10.24900
     2019.98083        -8.62551        12.40148
     2019.98357         1.07362        15.20991
     2019.98631        -2.74524        10.58750
     2019.98904        -0.98011        11.22401
     2019.99178         3.74303        11.02156
     2019.99452       -10.45583        12.23790
     2019.99726        -2.39070        10.86283
     2020.00000         7.03444        11.41189
     2020.00273         0.51457        13.26636
     2020.00547         0.59471        11.55279
     2020.00821        -0.19816        11.07339
     2020.01095        -5.59802        10.47898
     2020.01368       -12.10989        11.11388
     2020.01644        -6.44062        11.07986
     2020.01916        -9.15961        10.29111
     2020.02190       -19.80748        11.76011
     2020.02464       -20.22234        12.37233
     2020.02737        -9.94721        11.20296
     2020.03011       -29.82407        14.51671
     2020.03285       -37.94894        16.13958
     2020.03547       -51.85785        31.15999
     2020.03931       -24.31599        16.46674
     2020.04106       -35.62357        16.50561
     2020.04477       -48.73985        18.66943
     2020.04654       -21.73926        13.08172
     2020.04928        -8.04412        12.19903
     2020.05201        -8.15399        13.06715
     2020.05469       -18.79240        20.85431
     2020.05855       -15.14637        20.54820
     2020.19804        -1.67571        18.08151
     2022.59000         5.90570        10.15668
     2022.59274         4.54284         9.98662
     2022.59548         2.71497         9.82627
     2022.59822        -1.29889         9.94936
     2022.60095        -7.98976        10.07408
     2022.60369         3.65238        10.12266
     2022.60643         4.99452         9.75339
     2022.60917        10.74965         9.96718
     2022.61190        16.50279         9.97042
     2022.61464        15.38992         9.62544
     2022.61738        13.88406         9.72100
     2022.62012         3.25919         9.61896
     2022.62250         6.03619        11.53660
     2022.62656        -3.76403        20.29230
     2022.62833         2.63060        10.41420
     2022.63107         6.92874        10.66362
     2022.63381        10.73687        10.52271
     2022.63655         5.03301        10.77375
     2022.63928         6.30314        10.33484
     2022.64202         8.90928        11.34872
     2022.64476         9.85241        11.13331
     2022.64750         5.67355        10.87417
     2022.65023        10.53569        10.89361
     2022.65297        12.59382        10.87417
     2022.65571        15.80096        10.67010
     2022.65845        13.99309        10.83044
     2022.66119         0.38523        10.92438
     2022.66392         6.03636        10.55510
     2022.66666         6.04450        10.28949
     2022.66940        12.63363        10.33646
     2022.67214         8.27377        10.53081
     2022.67488         8.23191        10.38990
     2022.67761         9.17204        10.61989
     2022.68035        13.47818        10.57778
     2022.68309        10.65831        10.45631
     2022.68583        15.52245        10.96001
     2022.68856        17.33858        10.81263
     2022.69130        13.09072        10.72193
     2022.69404         7.95285        11.07015
     2022.69678        13.49399        10.81101
     2022.69952        -1.93687        10.91790
     2022.70225        16.04326        10.80777
     2022.70499        18.14540        10.89199
     2022.70773        11.14053        10.76728
     2022.71047         2.52767        10.62637
     2022.71321        15.00680        10.67496
     2022.71594         8.67494        11.02318
     2022.71868         7.00907        11.09120
     2022.72142         8.67021        10.95515
     2022.72416         7.97035        10.77375
     2022.72689        11.24548        10.78995
     2022.72963        16.51362        10.43525
     2022.73237        17.39675        10.32350
     2022.73511        11.51689        10.64904
     2022.73785         6.44402        10.67172
     2022.74058        15.35316        10.83692
     2022.74332        18.31030        10.72031
     2022.74606        17.93943        10.59398
     2022.74880        16.28657        10.40124
