# ================= DQRFIT RESULTS ================
# INPUT FILE: series/P781.rad
# OUTPUT: LDETRENDED
# FILTER FUNCTION: f(t)
# f(t)=+line(t)+annual(t)
# line(t)=+P 1+P 2*t
# annual(t)=+P 3*sin(2*pi*t+P 4)
# heav(t)=(t<0?0:1)
# TOTAL OBSERVATIONS MTOT= 2128
# INITIAL TIME INTERVAL= 2014.3984 - 2008.5394 =  5.8590
# TOTAL OBSERVATIONS AFTER PREFILTER M= 2127
# TIME-SPAN= 2014.3984 - 2008.5394 =  5.8590
# OBSERVATIONS: USED M=  2127 REJECTED MTOT-M=     1 %USED=   99.9530
# N=  4 PARAMETERS
# MAXSIG= 175.00000
# MAXRES=  17.27143
# SCALE FACTOR FOR LENGTHS: SCL=  10.00000
# SCALE FACTOR FOR SIGMAS: SCLSIG=   1.00000
# CHI^2=   1264.971 DOF=  2123 CHI^2/DOF=   0.59584
# RMS=      4.507 SDEV=      4.508 MEAN=    0.02111
#  P #       PARAMETER +-    SIGMA %error PARAMETER NAME
# P 1 =     -1155.00307 +-  116.862  10.12 YZERO                              
# P 2 =         0.57486 +-    0.058  10.11 SLOPE                              
# P 3 =         1.86519 +-    0.138   7.39 ANNUAL AMPLITUDE                   
# P 4 =         2.41879 +-    0.078   3.23 ANNUAL PHASE                       
#       T            LDETRENDED       SIG_OBS
     2008.53935         1.20621         4.48478
     2008.54209        -1.97836         4.47089
     2008.54483         2.93506         4.71867
     2008.54757         1.93949         4.67313
     2008.55030         6.56792         4.55734
     2008.55304         9.20634         4.58976
     2008.55578         9.38877         4.48092
     2008.55852         5.29219         4.59208
     2008.56125        -0.43638         4.50099
     2008.56399         2.82505         4.51875
     2008.56673         7.39247         4.49713
     2008.56947         9.27490         4.46471
     2008.57221         8.43133         4.58745
     2008.57494        -2.33625         4.72639
     2008.57768         5.15418         4.69397
     2008.58042         6.60760         4.50408
     2008.58316         7.79503         4.44078
     2008.58590         4.09746         4.45236
     2008.58863         2.95188         4.60520
     2008.59137         1.65931         4.48324
     2008.59411        -0.00227         4.52106
     2008.59685         1.96016         4.62218
     2008.59958         7.10359         4.63222
     2008.60232         4.85701         4.68316
     2008.60506         3.10544         4.65537
     2008.60780         0.13286         4.61446
     2008.61054        -0.09971         4.55889
     2008.61327         0.32972         4.56120
     2008.61601         5.43214         4.58513
     2008.61875        11.32057         4.59208
     2008.62149         3.98300         4.60983
     2008.62423         1.89442         4.60752
     2008.62696         2.84385         4.59285
     2008.62970        11.66227         4.63376
     2008.63244        -0.50830         4.57818
     2008.63518         8.01813         4.63067
     2008.63791         4.79055         4.65460
     2008.64065         9.65098         4.61678
     2008.64339         4.90240         4.61755
     2008.64613         2.97083         4.70323
     2008.64887         5.61726         4.60674
     2008.65160         6.44468         4.68702
     2008.65434         6.83811         4.65615
     2008.65708         4.11153         4.75341
     2008.65982         6.87796         4.64302
     2008.66256         7.98639         4.67544
     2008.66529         6.32881         4.68779
     2008.66803         3.30624         4.67853
     2008.67077         0.48167         4.64688
     2008.67351         6.13009         4.63453
     2008.67624         0.77352         4.93558
     2008.67898         8.78994         4.65769
     2008.68172         6.55437         4.66695
     2008.68446         3.97880         4.64380
     2008.68720         3.09522         4.61601
     2008.68993         6.70765         4.68239
     2008.69267         2.62607         4.69397
     2008.69541         6.11650         4.63839
     2008.69815         4.57893         4.67158
     2008.70089         3.05035         4.60057
     2008.70362         6.43978         4.64766
     2008.70636         8.54320         4.58745
     2008.70910         5.64563         4.65769
     2008.71184         3.82006         4.80204
     2008.71457        -0.60352         4.57587
     2008.71731        -1.21409         4.57201
     2008.72005        -0.07566         4.66232
     2008.72279         1.33376         4.62913
     2008.72553         4.39719         4.60829
     2008.72826         3.80361         4.60674
     2008.73100         3.68904         4.55040
     2008.73374         7.10647         4.55889
     2008.73648         7.20589         4.58127
     2008.73921         7.10932         4.62064
     2008.74469         6.62717         4.59671
     2008.74743         6.95060         4.57818
     2008.75017         8.76402         4.57741
     2008.75290         9.62145         4.66850
     2008.75564         8.11087         4.77811
     2008.75838        12.66030         4.77656
     2008.76112         7.56673         4.60906
     2008.76386         1.84315         4.54345
     2008.76659         5.18258         4.63839
     2008.76933         2.71001         4.63222
     2008.77207        -0.07357         4.55503
     2008.77481         1.72586         4.49791
     2008.77754         1.11028         4.50022
     2008.78028         2.10471         4.49791
     2008.78302        -0.35786         4.51643
     2008.78576         1.98256         4.46471
     2008.78850        -0.04501         4.57432
     2008.79123         4.51741         4.57818
     2008.79397        -3.80016         4.49636
     2008.79671         5.11027         4.56429
     2008.79945        -0.72331         4.45622
     2008.80219         8.78912         4.49713
     2008.80492         2.85454         4.44773
     2008.80766         2.97397         4.47398
     2008.81040         2.05340         4.48401
     2008.81314         1.31582         4.47475
     2008.81587         6.28525         4.45391
     2008.81861        -2.04033         4.49713
     2008.82135        -4.33990         4.49945
     2008.82409        -4.42647         4.63376
     2008.82683        -0.68105         4.56661
     2008.82956         8.05438         4.49482
     2008.83230        -4.65119         4.82905
     2008.83504         4.97123         4.68471
     2008.83778        13.68766         4.64225
     2008.84052         7.54808         4.68162
     2008.84325         0.54951         4.54345
     2008.84599         2.87294         4.57818
     2008.84873         2.26636         4.57510
     2008.85147        -3.96921         4.56429
     2008.85420         4.14521         4.59903
     2008.85694         8.10264         4.67390
     2008.85968        -1.12393         4.54808
     2008.86242        -3.08351         4.62836
     2008.86516         3.03292         4.60752
     2008.86789         0.51534         4.59825
     2008.87063         4.21477         4.58822
     2008.87337         0.42320         4.55657
     2008.87611         2.05462         4.54190
     2008.87885         0.71905         4.63299
     2008.88158        -3.19952         4.59362
     2008.88432         0.11090         4.62064
     2008.88706         0.30333         4.63608
     2008.88980         0.77975         4.65306
     2008.89253         4.34718         4.63994
     2008.89527        -2.48239         4.71790
     2008.89801         2.66603         4.68857
     2008.90075        -2.66054         4.63685
     2008.90349         6.79288         4.55657
     2008.90622         4.25831         4.61987
     2008.90896         8.28974         4.61524
     2008.91170         1.85116         4.65460
     2008.91444         5.02359         4.62759
     2008.91718         9.64601         4.56969
     2008.91991         6.90044         4.61601
     2008.92265         5.99487         4.59362
     2008.92539         8.93829         4.62527
     2008.92813         4.59172         4.57124
     2008.93086         3.94015         4.60906
     2008.93360         0.60657         4.63531
     2008.93634         3.98400         4.63685
     2008.93908        -1.39958         4.61987
     2008.94182        -1.28215         4.53882
     2008.94455         2.31328         4.63453
     2008.94729         8.99670         4.61987
     2008.95003         0.18613         4.61369
     2008.95277         6.20555         4.51875
     2008.95551         5.33898         4.56275
     2008.95824         4.11841         4.49868
     2008.96098         3.87183         4.53187
     2008.96372         4.47526         4.48478
     2008.96646         1.52968         4.70709
     2008.96919        -2.33789         4.54885
     2008.97193         6.71154         4.56506
     2008.97467         2.38796         4.65306
     2008.97741         3.32639         4.53110
     2008.98015         5.02682         4.53959
     2008.98288         4.14524         4.57587
     2008.98562         2.23067         4.53804
     2008.98836         2.14409         4.58282
     2008.99110         2.23752         4.49327
     2008.99384        -2.03505         4.50408
     2008.99657        -5.54963         4.54113
     2008.99931         0.81780         4.53264
     2009.00479        10.72565         4.63994
     2009.00752         5.81408         4.47243
     2009.01026         2.61150         4.47861
     2009.01300         6.93293         4.51412
     2009.01574         0.68535         4.57664
     2009.01848         2.50678         4.49327
     2009.02121         2.38221         4.69474
     2009.02395         4.32863         4.58899
     2009.02669        -7.28994         4.49250
     2009.02943        -3.30451         4.51875
     2009.03216        -0.58509         4.51180
     2009.03490        -2.78366         4.52492
     2009.03764        -1.80724         4.48170
     2009.04038        -1.85181         4.49482
     2009.04312        -3.91138         4.49636
     2009.04585        -2.12096         4.54190
     2009.04859        -2.30753         4.49791
     2009.05133         0.51389         4.53804
     2009.05407        -2.37668         4.51489
     2009.05681         8.71475         4.55889
     2009.05954         6.72517         4.55503
     2009.06229        -2.86640         4.52955
     2009.06502         0.57902         4.55194
     2009.06776         0.85945         4.51798
     2009.07049         0.21888         4.47938
     2009.07323         1.30330         4.48556
     2009.07597        -0.13427         4.47938
     2009.07871        -0.27684         4.49250
     2009.08145         1.41958         4.50099
     2009.08418         4.17701         4.47243
     2009.08692         2.77243         4.47089
     2009.08966         2.03986         4.49868
     2009.09240         4.44429         4.48247
     2009.09514         7.44471         4.48170
     2009.09787         8.55914         4.55889
     2009.10061        13.88456         4.50794
     2009.10335         6.55999         4.52338
     2009.10609         5.61642         4.53033
     2009.10882         4.51284         4.53727
     2009.11156         3.91427         4.49791
     2009.11430         1.55169         4.61910
     2009.11704         4.55612         4.54731
     2009.11978         6.60555         4.48633
     2009.12251         5.97497         4.46240
     2009.12525         5.79240         4.47784
     2009.12799        11.11083         4.51798
     2009.13073         6.78525         4.53650
     2009.13347        -1.43432         4.44696
     2009.13620         1.85710         4.49327
     2009.13894        -0.51447         4.46857
     2009.14168         3.18996         4.55734
     2009.14442         0.30538         4.55889
     2009.14715        -4.35719         4.64225
     2009.14989         1.38923         4.53573
     2009.15263        -1.60534         4.47706
     2009.15537         1.90809         4.60289
     2009.15811         0.77151         4.59439
     2009.16084         1.57694         4.50485
     2009.16358         6.33136         4.44773
     2009.16632         8.03279         4.59671
     2009.16906        -5.56778         4.75804
     2009.17180         7.65264         4.55966
     2009.17453        -0.44193         4.49482
     2009.17727         3.12650         4.61601
     2009.18001         1.01392         4.45159
     2009.18275         0.82435         4.47089
     2009.18548         0.40077         4.52261
     2009.18822        -2.71580         4.47166
     2009.19096         0.77563         4.48787
     2009.19370         0.38705         4.45159
     2009.19644         1.97648         4.44310
     2009.19917         3.70190         4.46394
     2009.20191         4.82033         4.46626
     2009.20465        -2.81124         4.46626
     2009.20739         1.30118         4.48710
     2009.21013        -1.59539         4.48092
     2009.21286         4.81703         4.42303
     2009.21560         4.33646         4.42843
     2009.21834        -0.18411         4.44310
     2009.22108        10.45831         4.53341
     2009.22381        -0.97226         4.43384
     2009.22655         1.56417         4.43075
     2009.22929         0.80959         4.45313
     2009.23203         2.20202         4.45622
     2009.23477         5.63344         4.49173
     2009.23750         5.44187         4.55117
     2009.24024         6.35930         4.49945
     2009.24298         4.46272         4.51103
     2009.24572         2.22215         4.48787
     2009.24846         2.24457         4.47320
     2009.25119         5.59500         4.63994
     2009.25393         3.14943         4.68008
     2009.25667         1.73885         4.50485
     2009.25941        -2.05572         4.50099
     2009.26214         3.66970         4.47552
     2009.26488         6.15213         4.70478
     2009.26762         4.15456         4.53959
     2009.27036         3.91498         4.50640
     2009.27310        -1.65559         4.51875
     2009.27583         2.48984         4.49868
     2009.27857         0.21626         4.53727
     2009.28131         0.13469         4.50717
     2009.28405        -1.69489         4.55580
     2009.28679         2.44654         4.50254
     2009.28952        -5.24503         4.51952
     2009.29226        -4.17961         4.51026
     2009.29500         0.58782         4.48556
     2009.29774         4.89424         4.57355
     2009.30047        -0.74533         4.56738
     2009.30321        -1.67590         4.51566
     2009.30595         6.39652         4.57741
     2009.30869         2.15495         4.57432
     2009.31143         3.93437         4.77425
     2009.31416        -2.02220         4.55348
     2009.31690        -6.25777         4.50254
     2009.31964        -4.46535         4.51952
     2009.32238        -3.94192         4.55734
     2009.32512        -2.98049         4.64457
     2009.32785        -4.56307         4.69706
     2009.33059        -4.20064         4.57818
     2009.33333       -10.21822         4.59825
     2009.33607        -7.88679         4.66541
     2009.33880        -2.64536         4.71558
     2009.34154        -7.72094         4.71944
     2009.34428        -7.98951         4.72716
     2009.34702        -7.22609         4.63916
     2009.34976        -4.26766         4.56429
     2009.35249        -2.89723         4.57973
     2009.35523         0.12319         4.55117
     2009.35797         5.13162         4.69397
     2009.36071        -3.55996         4.68162
     2009.36344        -7.06953         4.62681
     2009.36618        -7.14410         4.64457
     2009.36892        -4.40568         4.56120
     2009.37166        -6.15625         4.57432
     2009.37440        -7.31683         4.61292
     2009.37713       -10.47140         4.61910
     2009.37987        -2.37997         4.73411
     2009.38261        -6.66755         4.59439
     2009.38535        -0.74712         4.51952
     2009.38809        -8.84769         4.56892
     2009.39082        -5.36927         4.58745
     2009.39356        -5.36484         4.56043
     2009.39630        -6.69642         4.57741
     2009.39904        -1.12599         4.60057
     2009.40177         3.16544         4.58436
     2009.40451         3.10786         4.67004
     2009.40725         3.24429         4.62450
     2009.40999        -1.27429         4.60829
     2009.41273        -5.32286         4.61138
     2009.41546        -2.94243         4.68625
     2009.41820        -5.04101         4.68857
     2009.42094        -3.24858         4.68085
     2009.42368        -5.11616         4.65460
     2009.42642        -2.51173         4.64071
     2009.42915        -2.95630         4.69011
     2009.43189        -2.55088         4.61215
     2009.43463         0.33755         4.59594
     2009.43737        -2.76402         4.65383
     2009.44010        -3.74860         4.68548
     2009.44284        -3.05217         4.54808
     2009.44558        -7.52175         4.59285
     2009.44832        -2.51732         4.61910
     2009.45106        -7.59989         4.61215
     2009.45379        -0.93947         4.59903
     2009.45653        -1.33904         4.58359
     2009.45927         3.43638         4.61524
     2009.46202        -0.19420         4.68239
     2009.46475         7.05424         4.66927
     2009.46748         2.34466         4.66850
     2009.47022        -3.48791         4.68548
     2009.47296        -0.53049         4.58127
     2009.47570         7.93694         4.60443
     2009.47843        -0.23063         4.61292
     2009.48117        -7.06921         4.57973
     2009.48391        -2.11678         4.60906
     2009.48665        -0.82535         4.75109
     2009.48939         0.84507         4.66695
     2009.49212         1.90350         4.65537
     2009.49486        -3.90108         4.65615
     2009.49760        -3.15365         4.60366
     2009.50034        -3.46222         4.52647
     2009.50308         2.65420         4.55580
     2009.50581        -1.06437         4.55425
     2009.50855        -5.33895         4.56661
     2009.51129        -4.91752         4.61910
     2009.51403         1.70591         4.53187
     2009.51676         2.66433         4.60366
     2009.51950         0.05876         4.55889
     2009.52224        -6.74982         4.55271
     2009.52498        -0.88439         4.68085
     2009.52772        -2.66796         4.55425
     2009.53045        -9.75754         4.63762
     2009.53319        -4.40811         4.58282
     2009.53593        -3.67368         4.56120
     2009.53867        -4.69326         4.54345
     2009.54141        -2.42683         4.61987
     2009.54414         0.70859         4.56043
     2009.54688        -3.96698         4.59594
     2009.54962        -7.23855         4.67081
     2009.55236        -6.80813         4.69320
     2009.55509         2.57730         4.53650
     2009.55783         3.26372         4.55966
     2009.56057         4.88115         4.70400
     2009.56331        -7.01942         4.67467
     2009.56605        -5.60400         4.79586
     2009.56878        -6.43457         4.59748
     2009.57152        -3.80815         4.65074
     2009.57426        -1.27972         4.70169
     2009.57700        -6.88229         4.78814
     2009.57974        -3.74787         4.62681
     2009.58247        -2.67744         4.57973
     2009.58521        -1.14101         4.61832
     2009.58795        -4.14459         4.59053
     2009.59069        -4.13216         4.64380
     2009.59342        -7.43574         4.84295
     2009.59616         1.31269         4.64843
     2009.59890        -2.39388         4.57896
     2009.60164        -3.72646         4.56892
     2009.60438        -8.96003         4.69860
     2009.60711         0.27939         4.64611
     2009.60985        -0.24318         4.59208
     2009.61259        -0.69975         4.58359
     2009.61533        -7.31233         4.64071
     2009.61807        -0.96390         4.59131
     2009.62080        -1.17248         4.61832
     2009.62354        -4.13805         4.58050
     2009.62628         1.13638         4.55657
     2009.62902        -0.00020         4.62218
     2009.63175        -0.96877         4.63453
     2009.63449        -4.58734         4.59053
     2009.63723        -4.08692         4.65537
     2009.63997        -1.19549         4.61987
     2009.64271         2.71293         4.83369
     2009.64544        -1.44564         4.64380
     2009.64818        -3.41221         4.63299
     2009.65092        -1.51279         4.62759
     2009.65366        -2.73636         4.61215
     2009.65639        -3.62694         4.57278
     2009.65913         1.92349         4.58436
     2009.66187         2.01392         4.54422
     2009.66461        -5.55266         4.57432
     2009.66735         3.53777         4.51952
     2009.67008         3.28519         4.66695
     2009.67282        -3.98638         4.60906
     2009.67556        -0.60995         4.57664
     2009.67830         0.31247         4.64920
     2009.68104         4.76390         4.68857
     2009.68377       -13.78067         4.57973
     2009.68651         4.44175         4.57124
     2009.68925        -1.76882         4.55889
     2009.69199        -5.61240         4.60211
     2009.69472         0.37903         4.55734
     2009.69746         4.84846         4.59825
     2009.70020         3.44488         4.69320
     2009.70294        12.34231         4.85684
     2009.70568       -11.71527         4.63608
     2009.70841        -0.26484         4.56661
     2009.71115        -0.45341         4.57124
     2009.71389         2.05901         4.68779
     2009.71663         1.55744         4.56738
     2009.71937         2.68486         4.68625
     2009.72210        -5.70371         4.62141
     2009.72484        -3.10528         4.62759
     2009.72758        -0.10486         4.65074
     2009.73032        -0.44743         4.55348
     2009.73305         0.60600         4.62218
     2009.73579         2.63342         4.58590
     2009.73853         5.70285         4.50948
     2009.74127         0.51227         4.62141
     2009.74401         7.23670         4.74723
     2009.74674        -2.66487         4.56429
     2009.74948        -1.01845         4.57510
     2009.75222        -3.49202         4.54268
     2009.75496         2.70140         4.55503
     2009.75770         1.15583         4.64380
     2009.76043        -0.29774         4.53573
     2009.76317         1.32968         4.52029
     2009.76591        -2.67989         4.53341
     2009.76865        -2.02347         4.62681
     2009.77138        -0.51804         4.54113
     2009.77412        -0.96661         4.50254
     2009.77686         3.02981         4.53264
     2009.77960        -0.74676         4.59362
     2009.78234         7.13567         4.63453
     2009.78507        -1.11891         4.78428
     2009.78781        -3.91848         4.68008
     2009.79055        -1.32706         4.70169
     2009.79329        -3.45863         4.69011
     2009.79603        -2.14520         4.73411
     2009.79876         6.08522         4.91088
     2009.80150        -4.61235         4.70555
     2009.80424         1.60107         4.69011
     2009.80698         2.02450         4.68548
     2009.80971         2.09293         4.70864
     2009.81245         3.38135         4.68934
     2009.81519         2.36878         4.68625
     2009.81793        -0.54980         4.73411
     2009.82067        14.16963         4.83446
     2009.82340        -0.93794         4.68934
     2009.82614         6.97148         4.69320
     2009.82888        -0.49609         4.68162
     2009.83162         0.86534         4.67236
     2009.83436         2.81776         4.68779
     2009.83709        -0.38781         4.67776
     2009.83983         1.14861         4.73951
     2009.84257        -1.70596         4.69783
     2009.84531         1.62747         4.81516
     2009.84804         4.89089         4.81670
     2009.85078         7.94932         4.76576
     2009.85352         5.08774         4.70632
     2009.85626        -4.17683         4.77116
     2009.85900        -1.19640         4.82442
     2009.86173        -2.01798         4.81362
     2009.86447         4.18645         4.95642
     2009.86721         1.42187         4.82288
     2009.86995         3.51430         4.71095
     2009.87269        -2.39527         4.71867
     2009.87542        -3.02185         4.74183
     2009.87816         5.86258         4.89235
     2009.88090        12.89600         5.03747
     2009.88364         5.65143         4.68934
     2009.88637         9.34386         4.83214
     2009.88911        11.61828         4.68702
     2009.89185         4.57671         4.72253
     2009.89459         3.78914         4.67622
     2009.89733        -1.90844         4.63222
     2009.90006        -1.93801         4.66773
     2009.90280        -0.09459         4.63608
     2009.90554         3.19284         4.81207
     2009.90828         6.43427         4.68085
     2009.91102         3.10069         4.57818
     2009.91375         1.70212         4.58745
     2009.91649         1.52954         4.51875
     2009.91923        -2.23403         4.53033
     2009.92197        -0.51060         4.58282
     2009.92470        -3.74718         4.58127
     2009.92744         2.22325         4.58513
     2009.93018         1.83067         4.58050
     2009.93292         2.84110         4.57510
     2009.93566         2.01753         4.61524
     2009.93839         0.63895         4.74723
     2009.94113         2.98338         4.61832
     2009.94387         0.06181         4.70015
     2009.94661        -9.78677         4.81362
     2009.94935        -2.74734         4.64302
     2009.95208        -4.44592         4.57510
     2009.95482        -8.94849         4.66618
     2009.95756        -1.06406         4.70941
     2009.96030        -9.03064         4.56583
     2009.96303       -10.48321         4.61601
     2009.96577        -7.15679         4.60674
     2009.96851        -5.96636         4.68548
     2009.97125        -3.22493         4.84758
     2009.97399         4.73549         4.83832
     2009.97672        -5.89208         4.56738
     2009.97946        -4.07766         4.54036
     2009.98220        -4.51623         4.56275
     2009.98494        -4.79580         4.57973
     2009.98767       -10.17538         4.66001
     2009.99041        -1.96395         4.51952
     2009.99315        -2.16852         4.51952
     2009.99589         0.08190         4.58359
     2009.99863       -11.27967         4.54499
     2010.00410        -9.78082         4.60211
     2010.00684        -4.58339         4.57896
     2010.00958        -4.70197         4.58667
     2010.01232        -4.82554         4.62913
     2010.01505        -5.22312         4.58359
     2010.01779        -3.76769         4.64302
     2010.02053         0.65774         4.56506
     2010.02327        -3.48284         4.61215
     2010.02600         0.12159         4.64302
     2010.02874        -0.30999         4.53882
     2010.03148         2.93444         4.68316
     2010.03422       -11.82813         4.82597
     2010.03696        -4.76471         4.76035
     2010.03969        -1.88428         4.65229
     2010.04243        -0.00985         4.56815
     2010.04517         0.62457         4.54962
     2010.04791        16.02100         4.57124
     2010.05065         3.66542         4.72021
     2010.05338         5.63085         4.88695
     2010.05612         9.47128         4.65923
     2010.05886         4.28170         4.54962
     2010.06160         5.41113         4.55657
     2010.06433        -6.83145         4.55734
     2010.06707        -9.87402         4.67390
     2010.06981         1.48741         4.68316
     2010.07255        -3.53117         4.68316
     2010.07529        -3.48174         4.61910
     2010.07802        -0.89032         4.57046
     2010.08076         5.84311         4.52647
     2010.08350         1.01154         4.52106
     2010.08624         9.63196         4.57510
     2010.08898        11.06039         4.82133
     2010.09171         8.01782         4.54345
     2010.09445         3.45924         4.69551
     2010.09719         0.21767         4.69165
     2010.09993         0.81609         4.65074
     2010.10266         1.90052         4.56892
     2010.10540         3.34295         4.68008
     2010.10814        10.29437         4.63994
     2010.11088         3.15380         4.64766
     2010.11362         3.61922         4.53110
     2010.11635         3.77165         4.60366
     2010.11909         1.34008         4.55425
     2010.12183         4.16350         4.52647
     2010.12457         4.69693         4.55348
     2010.12731         2.05735         4.70400
     2010.13004        -4.48222         4.65537
     2010.13278        -4.22479         4.68085
     2010.13552        -2.04537         4.70092
     2010.13826         7.55306         4.55040
     2010.14099        -6.63151         4.62141
     2010.14373        -0.74709         4.73025
     2010.14647        -9.42466         4.91242
     2010.14921        -4.92724         4.74260
     2010.15195        -5.62181         4.60057
     2010.15468         1.59562         4.66078
     2010.15742         3.89304         4.66232
     2010.16016         0.13447         4.56043
     2010.16290        -1.05511         4.57818
     2010.16564        -2.96768         4.64688
     2010.16837         2.63575         4.70941
     2010.17111         2.06017         4.61369
     2010.17385        -3.86840         4.51643
     2010.17659         4.81102         4.53882
     2010.17932         3.68045         4.56043
     2010.18206        -0.31712         4.62527
     2010.18480         3.71330         4.56969
     2010.18754         6.40473         4.60752
     2010.19028        -3.41184         4.54499
     2010.19301        -4.43742         4.56429
     2010.19575         0.15701         4.63067
     2010.19849         1.59743         4.52647
     2010.20123        -2.94514         4.49636
     2010.20397        -1.77771         4.49868
     2010.20670        -4.75929         4.54190
     2010.20944        -1.77386         4.53187
     2010.21218         2.75756         4.50717
     2010.21492         0.94099         4.50717
     2010.21765        -6.03458         4.55503
     2010.22039        -8.14016         4.56043
     2010.22313        -9.11073         4.54885
     2010.22587        -1.36931         4.65615
     2010.22861         3.69812         4.69011
     2010.23134        -7.67445         4.63299
     2010.23408        -7.26203         4.64997
     2010.23956        -0.56217         4.75958
     2010.24230         1.56125         4.94870
     2010.24503         0.12468         4.72176
     2010.24777        -0.83590         4.66464
     2010.25051        -1.62547         4.75572
     2010.25325         1.54496         4.72485
     2010.25598        -0.51862         4.67622
     2010.25872         3.21781         4.70555
     2010.26146        -2.97777         4.73951
     2010.26420         0.87666         4.75958
     2010.26694         0.18209         4.72021
     2010.26967         5.91451         4.75727
     2010.27241         1.21794         4.78351
     2010.27515        -6.78164         4.70478
     2010.27789        -1.23021         4.76885
     2010.28062        -0.26778         4.54885
     2010.28336        -6.40036         4.77116
     2010.28610        -3.15693         4.76576
     2010.28884         7.52750         4.66387
     2010.29158        -0.90208         4.54731
     2010.29431         0.82535         4.58436
     2010.29705         2.07177         4.58127
     2010.29979         1.27920         4.85067
     2010.30253         1.94763         4.70015
     2010.30527         4.41005         4.71481
     2010.30800         3.00648         4.59131
     2010.31074        -0.60610         4.57124
     2010.31348         3.64933         4.54885
     2010.31622         0.65076         4.55117
     2010.31895        -1.74582         5.21887
     2010.32169         6.68461         4.78737
     2010.32443         2.55703         4.63916
     2010.32717         5.34646         4.55117
     2010.32991        -0.33211         4.53264
     2010.33264         4.48331         4.55194
     2010.33538         2.01074         4.61678
     2010.33812         4.02717         4.67699
     2010.34086         4.21559         4.49482
     2010.34360         4.24902         4.49405
     2010.34633        -0.75256         4.60829
     2010.34907        -0.12513         4.53573
     2010.35181        -0.01170         4.51412
     2010.35455        -2.58928         4.59748
     2010.35728        -6.21785         4.53650
     2010.36002        -0.64843         4.58976
     2010.36276         6.11600         4.55194
     2010.36550        -1.49657         4.67467
     2010.36824         0.04185         4.60520
     2010.37097         5.82028         4.50485
     2010.37371         6.93470         4.60289
     2010.37645         5.48313         4.53496
     2010.37919         4.83456         4.79200
     2010.38193        -4.03402         4.75649
     2010.38466         3.88641         4.51720
     2010.38740         6.62884         4.53804
     2010.39014         0.85926         4.50948
     2010.39288        -1.20331         4.54576
     2010.39561        -4.65289         4.56506
     2010.39835        -1.63346         4.50022
     2010.40109        -0.93303         4.52492
     2010.40383        -2.10361         4.51798
     2010.40657         7.49082         4.49019
     2010.40930         2.49024         4.51412
     2010.41204         1.70367         4.49482
     2010.41478        12.73810         4.46935
     2010.41752         3.47152         4.49019
     2010.42026        -5.96105         4.59131
     2010.42299         1.71137         4.56352
     2010.42573         5.47880         4.53033
     2010.42847        -5.82977         4.56352
     2010.43121         3.33165         4.50948
     2010.43394        -4.40392         4.48478
     2010.43668         0.75750         4.75264
     2010.43942         6.19993         4.63608
     2010.44216         3.61736         4.47861
     2010.44490         2.68278         4.47475
     2010.44763         3.10521         4.46703
     2010.45037         4.73164         4.46626
     2010.45311         2.11706         4.47089
     2010.45585         2.46649         4.56815
     2010.45859         3.55991         4.51720
     2010.46132         1.42434         4.53341
     2010.46406        -1.76623         4.46935
     2010.46680        -1.13781         4.47938
     2010.46954        -0.18238         4.59980
     2010.47227         1.41004         4.46394
     2010.47501        -1.79253         4.47012
     2010.47775         2.64390         4.65615
     2010.48049         0.55332         4.67158
     2010.48323         3.75575         4.46240
     2010.48596         5.38017         4.47398
     2010.48870         2.12260         4.46085
     2010.49144         5.05703         4.49868
     2010.49418         1.83245         4.44696
     2010.49692         1.07088         4.45082
     2010.49965         3.19131         4.49019
     2010.50239         5.00173         4.43075
     2010.50513         4.49116         4.44773
     2010.50787         1.84058         4.49173
     2010.51060        -2.32799         4.48633
     2010.51334         1.27644         4.54345
     2010.51608        -6.09614         4.47320
     2010.51882        -2.95271         4.54808
     2010.52156         4.43671         4.52955
     2010.52429         1.67414         4.52569
     2010.52703        -0.26643         4.48324
     2010.52977        -2.37201         4.48092
     2010.53251         3.32942         4.46317
     2010.53525        -5.61116         4.51489
     2010.53798        -5.96573         4.52029
     2010.54072        -5.57730         4.41222
     2010.54346        -7.65988         4.39833
     2010.54620        -4.03645         4.35587
     2010.54893        -7.08702         4.38984
     2010.55167        -4.15760         4.46780
     2010.55441        -4.71117         4.38058
     2010.55715        -6.45675         4.40450
     2010.55989        -2.88632         4.41840
     2010.56262        -0.99889         4.43384
     2010.56536        -4.24847         4.34738
     2010.56810        -8.68204         4.41994
     2010.57084        -5.50562         4.35742
     2010.57357        -1.67319         4.47243
     2010.57631        -0.85576         4.46703
     2010.57905        -3.29134         4.36977
     2010.58179        -2.59391         4.36514
     2010.58453        -8.79949         4.40450
     2010.58726        -5.77706         4.49327
     2010.59000        -0.95363         4.48170
     2010.59274        -0.23721         4.37903
     2010.59548        -1.08378         4.40836
     2010.59822         1.65065         4.41531
     2010.60095        -1.01493         4.41608
     2010.60369        -2.40450         4.47938
     2010.60643         1.77092         4.39679
     2010.60917        -2.83865         4.46549
     2010.61190        -6.39822         4.41300
     2010.61464         0.95820         4.41686
     2010.61738         0.90663         4.34584
     2010.62012        -4.34995         4.42766
     2010.62286        -7.05152         4.37440
     2010.62559         0.37491         4.39910
     2010.62833        -5.75767         4.44928
     2010.63107         0.07276         4.48247
     2010.63381         2.23918         4.41454
     2010.63655        -2.07839         4.43770
     2010.63928        -6.21896         4.42921
     2010.64202        -0.89154         4.39293
     2010.64476        -1.53311         4.45082
     2010.64750        -2.56468         4.37826
     2010.65023        -0.39826         4.51180
     2010.65297        -3.25383         4.56969
     2010.65571        -7.74041         4.52492
     2010.65845        -1.82998         4.33195
     2010.66119         0.88245         4.39601
     2010.66392         1.49487         4.40065
     2010.66666         0.74530         4.38289
     2010.66940        -3.78128         4.33117
     2010.67214        -1.01485         4.31265
     2010.67488         2.27658         4.32500
     2010.67761         4.61200         4.31188
     2010.68035         2.84843         4.33195
     2010.68309         3.58285         4.35279
     2010.68583         1.15328         4.55194
     2010.68856        -2.71629         4.31496
     2010.69130         1.76413         4.30570
     2010.69404         0.35656         4.38675
     2010.69678        -4.71001         4.30647
     2010.69952        -5.37759         4.33040
     2010.70225        -2.27516         4.34816
     2010.70499         2.86126         4.32731
     2010.70773         2.57769         4.31188
     2010.71047         5.93912         4.31574
     2010.71321         5.51854         4.30416
     2010.71594         4.54597         4.52338
     2010.71868         1.14439         4.32268
     2010.72142         6.72582         4.40142
     2010.72416         2.46125         4.39910
     2010.72689        -2.70733         4.35356
     2010.72963         1.58710         4.30261
     2010.73237        -2.07548         4.27096
     2010.73511         0.76195         4.30493
     2010.73785         1.50638         4.39524
     2010.74058         5.39180         4.34816
     2010.74332         2.66723         4.30184
     2010.74606         7.93366         4.38289
     2010.74880        -1.48092         4.36977
     2010.75154        -3.12049         4.32963
     2010.75427         9.04193         4.49559
     2010.75701         5.83636         4.52415
     2010.75975         2.73679         4.37363
     2010.76249         2.31621         4.39293
     2010.76522        -0.40936         4.34661
     2010.76796         1.09006         4.33040
     2010.77070        -0.17051         4.33735
     2010.77344         0.40492         4.33349
     2010.77618         3.13534         4.35279
     2010.77891        -1.41123         4.31805
     2010.78165         0.49019         4.29489
     2010.78439         2.15362         4.37363
     2010.78713        -1.13395         4.40836
     2010.78987         1.64347         4.32577
     2010.79260         0.85090         4.39524
     2010.79534        -0.87767         4.34584
     2010.79808        -0.00325         4.35665
     2010.80082         1.41918         4.36514
     2010.80355        -3.06640         4.42380
     2010.80629        -0.97197         4.40836
     2010.80903         7.97146         4.47398
     2010.81177        -1.55712         4.33117
     2010.81451        -2.57369         4.51026
     2010.81724         2.43973         4.32731
     2010.81998         2.73716         4.34738
     2010.82272         1.94159         4.39138
     2010.82546         5.90501         4.36437
     2010.82820         1.62044         4.32268
     2010.83093        -3.02814         4.48787
     2010.83367        -4.16971         4.46394
     2010.83641        -7.91228         4.33503
     2010.83915        -1.39086         4.33735
     2010.84188        -3.17643         4.32345
     2010.84462         3.17700         4.30724
     2010.84736         0.84142         4.36205
     2010.85010        -0.03115         4.41763
     2010.85284         6.77427         4.39756
     2010.85557        -1.09630         4.34121
     2010.85831        -2.17887         4.37363
     2010.86105        -4.50545         4.29875
     2010.86379        -6.87002         4.33966
     2010.86653        -3.81760         4.32963
     2010.86926        -1.70017         4.33580
     2010.87200        -2.17274         4.26865
     2010.87474        -3.93132         4.34584
     2010.87748        -0.52289         4.36668
     2010.88021        -0.20147         4.32886
     2010.88295         0.11396         4.41068
     2010.88569         2.07439         4.40450
     2010.88843        -1.64819         4.49713
     2010.89117         1.36924         4.46085
     2010.89390         1.62467         4.35124
     2010.89664         1.53709         4.34352
     2010.89938         2.97952         4.31496
     2010.90212        -3.08306         4.27791
     2010.90485        -4.95463         4.46085
     2010.90759         1.23580         4.35742
     2010.91033         3.93122         4.31805
     2010.91307        -7.10335         4.33735
     2010.91581        -4.65993         4.29798
     2010.91854         2.73250         4.37594
     2010.92128         1.07393         4.35356
     2010.92402         6.08635         4.43307
     2010.92676         3.34678         4.39293
     2010.92950        -3.75680         4.34430
     2010.93223        -5.19437         4.34893
     2010.93497        -1.14394         4.41686
     2010.93771         1.50748         4.39756
     2010.94045        -0.34209         4.47089
     2010.94318         0.76134         4.36437
     2010.94592        -0.82224         4.34738
     2010.94866         0.79319         4.36745
     2010.95140         4.41761         4.65923
     2010.95414         6.90604         4.35896
     2010.95687         0.70347         4.32809
     2010.95961        -3.72511         4.40528
     2010.96235        -5.58968         4.40450
     2010.96509         2.38074         4.52569
     2010.96783         2.92517         4.35742
     2010.97056        -4.55340         4.30956
     2010.97330         1.06102         4.36514
     2010.97604        -3.06955         4.31651
     2010.97878        -3.15813         4.35665
     2010.98151        -1.29870         4.51566
     2010.98425        -3.06627         4.37749
     2010.98699         0.99315         4.35665
     2010.98973        -3.61842         4.41840
     2010.99247         2.61700         4.48478
     2010.99520         4.19643         4.39138
     2010.99794        -1.30614         4.30416
     2011.00342        -3.28629         4.33195
     2011.00616         3.72314         4.30647
     2011.00889        -2.26744         4.36282
     2011.01163        -0.89301         4.29258
     2011.01437        -1.58759         4.30416
     2011.01711         0.09584         4.40065
     2011.01984        -2.00673         4.32114
     2011.02258        -6.00731         4.33966
     2011.02532        -0.71788         4.43229
     2011.02806         3.54454         4.59748
     2011.03080        -9.25003         4.38521
     2011.03353        -6.90560         4.40528
     2011.03627        -4.98518         4.37131
     2011.03901        -4.79675         4.34738
     2011.04175         1.32967         4.34584
     2011.04449         2.67810         4.35742
     2011.04722         0.24553         4.41763
     2011.04996        -7.95005         4.43692
     2011.05270        -2.43862         4.31805
     2011.05544        -3.31419         4.33889
     2011.05817         2.81823         4.31651
     2011.06091         1.51666         4.31342
     2011.06365        -1.14392         4.33349
     2011.06639        -2.24949         4.33812
     2011.06913        -5.35206         4.60211
     2011.07186        -3.49564         4.34893
     2011.07460        -5.61521         4.30107
     2011.07734        -1.40979         4.31496
     2011.08008        -2.75536         4.39756
     2011.08282        -9.23893         4.32963
     2011.08555        -8.39051         4.37440
     2011.08829        -5.53008         4.37208
     2011.09103       -11.59566         4.35973
     2011.09377        -6.18323         4.36591
     2011.09650        -3.67980         4.34198
     2011.09924        -2.77138         4.34584
     2011.10198        -4.10295         4.39447
     2011.10472         2.75448         4.43075
     2011.10746        -0.55310         4.34584
     2011.11019         1.09733         4.33658
     2011.11293        -1.68425         4.38752
     2011.11567        -2.65782         4.40142
     2011.11841        -4.09239         4.37826
     2011.12115         2.00803         4.46008
     2011.12388        -4.43354         4.40605
     2011.12662         2.82188         4.47243
     2011.12936        -6.67669         4.36823
     2011.13210        -4.01326         4.39138
     2011.13483        -6.66084         4.36977
     2011.13757        -5.81341         4.33658
     2011.14031        -4.74099         4.32345
     2011.14305        -7.86056         4.37672
     2011.14579        -5.41813         4.39293
     2011.14852        -7.02671         4.35124
     2011.15126         2.10072         4.38675
     2011.15400         1.93515         4.31651
     2011.15674         0.00357         4.30956
     2011.15948        -4.51900         4.33117
     2011.16221        -5.00158         4.32731
     2011.16495        -1.83115         4.41454
     2011.16769        -6.98072         4.36977
     2011.17043       -12.04330         4.30184
     2011.17590       -10.25645         4.38135
     2011.17864        -1.38702         4.35202
     2011.18138        -8.26659         4.32577
     2011.18412       -10.36517         4.32577
     2011.18685        -2.90474         4.54345
     2011.18959        -0.89432         4.35587
     2011.19233        -3.60989         4.35742
     2011.19507        -1.27846         4.33658
     2011.19780        -4.07804         4.44773
     2011.20054        -6.80161         4.48864
     2011.20328        -0.44918         4.50871
     2011.20602        -4.64876         4.42303
     2011.20876        -9.32933         4.47012
     2011.21149       -10.95791         4.37749
     2011.21423        -4.40748         4.34198
     2011.21697        -4.48005         4.50948
     2011.21971        -3.74063         4.44001
     2011.22245        -7.37620         4.42766
     2011.22518        -5.58978         4.39370
     2011.22792       -10.18435         4.40219
     2011.23066        -7.39292         4.40682
     2011.23340        -8.18050         4.47552
     2011.23613        -6.35607         4.36745
     2011.23887       -14.84665         4.39215
     2011.24161        -5.35322         4.35510
     2011.24435        -7.77879         4.40682
     2011.24709        -6.22637         4.38598
     2011.24982         0.82706         4.50562
     2011.25256        -8.43651         4.42071
     2011.25530        -4.65209         4.37594
     2011.25804        -1.78266         4.62295
     2011.26078        -4.03024         4.60983
     2011.26351        -2.27781         4.38752
     2011.26625        -6.44738         4.34738
     2011.26899        -4.79996         4.34816
     2011.27173        -5.45453         4.44310
     2011.27446        -3.13311         4.54113
     2011.27720        -8.46568         4.48556
     2011.27994        -9.11225         4.39061
     2011.28268        -5.82983         4.32886
     2011.28542       -10.04740         4.30647
     2011.28815        -8.48398         4.36205
     2011.29089         2.16045         4.37363
     2011.29363        -2.83912         4.40219
     2011.29637        -9.20070         4.35433
     2011.29911        -3.52427         4.36745
     2011.30184         3.31416         4.53264
     2011.30458        -7.47142         4.36591
     2011.30732         3.25601         4.31651
     2011.31006        -2.26857         4.33658
     2011.31279        -7.72214         4.41917
     2011.31553        -1.35271         4.32423
     2011.31827        -1.65929         4.35433
     2011.32101       -10.02086         4.37517
     2011.32375        -8.97944         4.34738
     2011.32648        -8.54001         4.34198
     2011.32922       -11.00258         4.35202
     2011.33196        -7.68016         4.34970
     2011.33470       -15.09373         4.47320
     2011.33744        -4.06931         4.37440
     2011.34017        -4.48688         4.44542
     2011.34291         1.38955         4.46317
     2011.34565         0.80997         4.45468
     2011.34839        -0.06460         4.47166
     2011.35112        -8.67017         4.42303
     2011.35386        -9.46275         4.40682
     2011.35660        -7.69432         4.35819
     2011.35934       -11.12990         4.33889
     2011.36208       -14.64447         4.31188
     2011.36481        -8.39104         4.45545
     2011.36755        -3.95162         4.47784
     2011.37029        -9.00219         4.44464
     2011.37303         0.66523         4.47243
     2011.37577        -3.08734         4.43075
     2011.37850        -6.02691         4.43229
     2011.38124        -8.00049         4.43924
     2011.38398        -6.79706         4.46780
     2011.38672       -11.46464         4.46394
     2011.38945        -6.69721         4.40914
     2011.39219        -1.42678         4.46317
     2011.39493        -4.77036         4.51257
     2011.39767        -9.24593         4.49713
     2011.40041        -6.77150         4.46471
     2011.40314        -0.86308         4.51334
     2011.40588        -2.22565         4.49636
     2011.40862        -5.79523         4.44310
     2011.41136        -3.98680         4.54576
     2011.41410       -10.45737         4.42535
     2011.41684        -8.27195         4.42303
     2011.41957        -9.25852         4.43770
     2011.42231       -14.25210         4.47938
     2011.42505        -1.81367         4.49868
     2011.42778       -14.45424         4.42921
     2011.43052       -14.26782         4.42843
     2011.43326       -11.59939         4.45622
     2011.43600        -8.78297         4.45777
     2011.43874        -9.03054         4.58050
     2011.44147        -4.29711         4.46780
     2011.44421       -10.09069         4.54654
     2011.44695        -5.24426         4.57818
     2011.44969        -6.15683         4.46008
     2011.45243       -10.72041         4.45622
     2011.45516        -7.74998         4.43075
     2011.45790       -11.08656         4.47938
     2011.46064       -10.18713         4.44542
     2011.46338       -11.76470         4.53033
     2011.46611        -8.72928         4.50871
     2011.46885        -1.54385         4.53033
     2011.47159        -6.71443         4.51412
     2011.47433        -8.46300         4.53341
     2011.47707        -5.45157         4.50562
     2011.47980        -1.98215         4.50562
     2011.48254        -2.91972         4.48401
     2011.48528       -14.37030         4.47784
     2011.48802        -0.86187         4.46857
     2011.49076        -2.46244         4.60906
     2011.49349       -11.01202         4.46317
     2011.49623        -6.73359         4.48478
     2011.49897         0.45684         4.48324
     2011.50171        -3.25874         4.47784
     2011.50444        -6.30731         4.51334
     2011.50718        -0.67189         4.50408
     2011.50992        -0.67346         4.49173
     2011.51266         2.48497         4.60366
     2011.51540        -3.06661         4.46857
     2011.51813         3.96782         4.51643
     2011.52087        -4.19276         4.49327
     2011.52361        -4.36533         4.43770
     2011.52635        -8.79190         4.42766
     2011.52908         0.44252         4.43152
     2011.53182        -4.08005         4.45468
     2011.53456        -9.22663         4.44001
     2011.53730       -11.01320         4.42921
     2011.54004        -7.17677         4.47784
     2011.54277        -4.46335         4.51566
     2011.54554        -8.22993         4.49250
     2011.54825        -3.67250         4.45777
     2011.55099        -4.12107         4.46703
     2011.55373        -4.06464         4.46317
     2011.55646        -1.30422         4.49019
     2011.55920        -5.44279         4.42071
     2011.56194        -4.52036         4.42998
     2011.56468        -0.91794         4.44001
     2011.56741        -3.52251         4.43229
     2011.57015         0.31291         4.54499
     2011.57289        -0.48566         4.50254
     2011.57563        -5.72423         4.44233
     2011.57837        -3.36481         4.50640
     2011.58110       -11.28738         4.45159
     2011.58384        -8.46696         4.43615
     2011.58658        -4.42853         4.52955
     2011.58932        -5.63310         4.40914
     2011.59206        -0.92268         4.42535
     2011.59479        -5.83725         4.45236
     2011.59753        -4.89183         4.40682
     2011.60027        -2.88040         4.42071
     2011.60301        -1.77897         4.42998
     2011.60574        -2.67555         4.47784
     2011.60848         4.23988         4.74260
     2011.61122        -2.17469         4.70709
     2011.61396        -2.22027         4.50177
     2011.61670         4.22316         4.58899
     2011.61943        -4.23642         4.50948
     2011.62217        -1.73899         4.52106
     2011.62491        -9.87356         4.48478
     2011.62765        -2.87714         4.44773
     2011.63039        -3.31471         4.41763
     2011.63312        -0.91529         4.43538
     2011.63586        -3.23286         4.46394
     2011.63860        -5.09843         4.49096
     2011.64134        -5.61401         4.58745
     2011.64407        -1.57658         4.48633
     2011.64681        -1.27016         4.43152
     2011.64955        -2.05773         4.60829
     2011.65229        -1.35830         4.72793
     2011.65503         1.17812         4.51180
     2011.65776        -0.97645         4.47861
     2011.66050         4.17698         4.56043
     2011.66324        -2.61360         4.57510
     2011.66598        -2.85217         4.60366
     2011.66872         1.54825         4.54885
     2011.67145        -1.27532         4.44696
     2011.67419         4.28811         4.43615
     2011.67693         3.55753         4.39833
     2011.67967         1.07096         4.42380
     2011.68240         1.41538         4.46935
     2011.68514         0.40781         4.47166
     2011.68788         5.05424         4.54499
     2011.69062         6.99266         4.51103
     2011.69336         0.36309         4.58204
     2011.69609        -5.26149         4.50099
     2011.69883        -3.82506         4.51952
     2011.70157        -0.45163         4.45777
     2011.70431        -0.16721         4.46317
     2011.70705        -5.71678         4.59903
     2011.70978        -1.68635         4.46703
     2011.71252        -1.21793         4.45159
     2011.71526        -4.88850         4.50948
     2011.71800         0.11092         4.53033
     2011.72073        -1.24365         4.48864
     2011.72347        -3.73922         4.43615
     2011.72621         1.69720         4.45082
     2011.72895         9.11363         4.47089
     2011.73169         8.29405         4.69937
     2011.73442        -2.86952         4.55889
     2011.73716         2.31891         4.48401
     2011.73990        -3.52667         4.45854
     2011.74264         1.15476         4.41763
     2011.74538         4.72818         4.56120
     2011.74811         1.34061         4.62604
     2011.75085         3.67004         4.61292
     2011.75359        -1.18454         4.59131
     2011.75633        -2.62711         4.63299
     2011.75906         8.39332         4.72639
     2011.76180         2.49274         4.50717
     2011.76454        -6.65783         4.53804
     2011.76728        -2.42741         4.52955
     2011.77002        -4.53098         4.53264
     2011.77275         0.93945         4.55271
     2011.77549        -0.74113         4.57046
     2011.77823         0.71330         4.54654
     2011.78097         0.35272         4.54654
     2011.78371         0.61215         4.50331
     2011.78644         0.33158         4.46703
     2011.78918        -1.66900         4.52261
     2011.79192        -3.42257         4.49945
     2011.79466        -1.98615         4.47784
     2011.79739         1.49528         4.50794
     2011.80013         3.00471         4.48710
     2011.80287        -4.73787         4.46549
     2011.80561        -5.16144         4.40605
     2011.80835        -3.96801         4.41300
     2011.81108         0.84041         4.45082
     2011.81382        -5.34416         4.51952
     2011.81656         2.04826         4.44156
     2011.81930         2.63369         4.41068
     2011.82203         0.83212         4.41454
     2011.82477        -0.56346         4.40065
     2011.82751        -0.51403         4.44078
     2011.83025         3.21539         4.42380
     2011.83299        -1.25818         4.43615
     2011.83572        -3.19575         4.42689
     2011.83846        -1.18633         4.46857
     2011.84120         2.14110         4.47398
     2011.84394        -2.36748         4.42843
     2011.84668        -3.53705         4.42457
     2011.84941        -3.31462         4.39138
     2011.85215       -11.30820         4.46626
     2011.85489        -8.57577         4.46163
     2011.85763        -3.51534         4.48710
     2011.86036         4.65008         4.71327
     2011.86310         5.41651         4.35356
     2011.86584         5.42793         4.42149
     2011.86858         2.26436         4.42535
     2011.87132        -3.68121         4.43615
     2011.87405        -1.87579         4.39833
     2011.87679        -1.65036         4.36514
     2011.87953         2.58006         4.50562
     2011.88227         1.63349         4.45391
     2011.88501         0.25992         4.44156
     2011.88774        -2.06566         4.40836
     2011.89048        -2.32523         4.38366
     2011.89322        -2.06381         4.47861
     2011.89596        -5.14238         4.52647
     2011.89869        -2.60795         4.48247
     2011.90143        -2.62553         4.40296
     2011.90417        -1.82610         4.41686
     2011.90691        -2.74567         4.34970
     2011.90965         1.26675         4.40450
     2011.91238         2.03918         4.55966
     2011.91512         3.90260         4.38675
     2011.91786         4.09203         4.53959
     2011.92060        -0.91454         4.41686
     2011.92334        -1.53212         4.48864
     2011.92607        -2.77169         4.49019
     2011.92881        -2.37427         4.49173
     2011.93155         3.04816         4.49250
     2011.93429         1.87159         4.50717
     2011.93702         3.31001         4.49636
     2011.93976         0.04544         4.50331
     2011.94250         2.85286         4.50099
     2011.94524         7.01729         4.49096
     2011.94798         4.90972         4.49945
     2011.95071         6.76114         4.36745
     2011.95345         6.41557         4.57741
     2011.95619        -0.64500         4.50794
     2011.95893        -0.26958         4.37286
     2011.96167         3.27585         4.33195
     2011.96440         7.79927         4.45082
     2011.96714         3.24670         4.38366
     2011.96988         7.10613         4.35047
     2011.97262         0.84255         4.36437
     2011.97535         1.57098         4.37131
     2011.97809         1.28640         4.31033
     2011.98083         2.56583         4.35433
     2011.98357         3.22326         4.35819
     2011.98631         2.49868         4.38984
     2011.98904         1.71511         4.46317
     2011.99178         8.26553         4.38212
     2011.99452         7.60596         4.43075
     2011.99726         7.21939         4.36745
     2012.00273         1.49724         4.36745
     2012.00547         3.30167         4.36437
     2012.00821         5.22009         4.32268
     2012.01095         3.99852         4.45545
     2012.01368         2.56994         4.36900
     2012.01642         8.31637         4.35279
     2012.01916         9.60180         4.34275
     2012.02190         8.41822         4.32963
     2012.02464         3.95565         4.31496
     2012.02737         5.84407         4.35047
     2012.03011         6.66150         4.32886
     2012.03285         2.90393         4.34970
     2012.03559         3.96235         4.32654
     2012.03833         0.52578         4.31882
     2012.04106         9.12820         4.30493
     2012.04380         3.01963         4.32963
     2012.04654         3.21206         4.39138
     2012.04928        10.45848         4.42535
     2012.05201         6.04491         4.34970
     2012.05475         3.16233         4.53573
     2012.05749         3.24776         4.39138
     2012.06023        -0.80081         4.51180
     2012.06297         1.43861         4.35819
     2012.06570        -4.33396         4.40528
     2012.06844        -0.98253         4.37903
     2012.07118         1.48789         4.32731
     2012.07392         0.98632         4.34893
     2012.07666         0.93074         4.32654
     2012.07939         2.88417         4.42226
     2012.08213        -1.81140         4.39524
     2012.08487         1.33402         4.41763
     2012.08761         5.17945         4.36668
     2012.09034         0.55587         4.37517
     2012.09308         3.04830         4.34430
     2012.09582         0.57773         4.42149
     2012.09856         6.56115         4.38675
     2012.10130         5.71558         4.51103
     2012.10403         2.57700         4.33658
     2012.10677        -0.93357         4.44001
     2012.10951        -1.74914         4.47243
     2012.11225         4.27628         4.41608
     2012.11498         0.57971         4.37286
     2012.11772         4.24214         4.42689
     2012.12046         2.42956         4.38598
     2012.12320         4.73299         4.45777
     2012.12594         0.23941         4.39679
     2012.12867         0.03984         4.37363
     2012.13141         0.94527         4.44850
     2012.13415         3.27069         4.43847
     2012.13689         2.00412         4.42535
     2012.13963         2.09454         4.49791
     2012.14236         0.46197         4.48478
     2012.14510         7.60240         4.44773
     2012.14784         0.41882         4.35279
     2012.15058         3.59825         4.39679
     2012.15331         1.29567         4.33349
     2012.15606         3.91610         4.42998
     2012.15879         2.63353         4.39756
     2012.16153        -1.58705         4.39370
     2012.16427         0.11038         4.43770
     2012.16700        -1.01219         4.39370
     2012.16974        -0.34577         4.30261
     2012.17248        -1.43434         4.30416
     2012.17522        -0.31292         4.34430
     2012.17796         7.28451         4.49019
     2012.18069         2.13494         4.35047
     2012.18343        -0.19264         4.30570
     2012.18617        -3.38821         4.31342
     2012.18891         5.63121         4.37594
     2012.19164         0.03564         4.39061
     2012.19438        -1.23593         4.38907
     2012.19712         5.13549         4.35742
     2012.19986         2.27992         4.33735
     2012.20260         0.61134         4.40759
     2012.20533        -1.39323         4.44619
     2012.20807        -0.57080         4.45313
     2012.21081         1.64962         4.36514
     2012.21355         1.84005         4.35510
     2012.21629         0.79948         4.37131
     2012.21902        -3.69310         4.39138
     2012.22176         4.91133         4.37054
     2012.22450        -1.63125         4.35665
     2012.22724        -2.74682         4.36900
     2012.22997         3.57561         4.40065
     2012.23271         3.93503         4.47243
     2012.23545         6.31146         4.44310
     2012.23819        -2.84612         4.36359
     2012.24093        -0.05669         4.37749
     2012.24366        -0.20026         4.35124
     2012.24640        -5.51284         4.62064
     2012.24914         2.31159         4.39138
     2012.25188        -0.83799         4.38058
     2012.25462        -9.87656         4.39138
     2012.25735         3.13887         4.59748
     2012.26009        -3.02271         4.35124
     2012.26283        -8.47128         4.37517
     2012.26557        -2.59085         4.32345
     2012.26830        -2.23343         4.34121
     2012.27104        -3.44200         4.46394
     2012.27378        -0.89558         4.39061
     2012.27652        -2.56415         4.45545
     2012.27926         4.33528         4.59285
     2012.28199         2.42870         4.41454
     2012.28473        -0.15287         4.36282
     2012.28747        -4.06945         4.35279
     2012.29021        -1.00102         4.35742
     2012.29295         0.85541         4.38058
     2012.29568         0.94383         4.38907
     2012.29842        -1.61274         4.34816
     2012.30116         1.08168         4.33426
     2012.30390        -1.65489         4.36359
     2012.30663         1.28554         4.38675
     2012.30937         4.66396         4.38907
     2012.31211         0.97339         4.53033
     2012.31485         2.70282         4.42612
     2012.31759         2.35024         4.38984
     2012.32032         0.79267         4.49250
     2012.32306        -1.99591         4.42612
     2012.32580        -4.06648         4.33966
     2012.32854         1.18995         4.46549
     2012.33128         0.68737         4.56043
     2012.33401         3.77480         4.49868
     2012.33675        -2.78178         4.49096
     2012.33949        -7.67535         4.34044
     2012.34223        -8.49792         4.34044
     2012.34496        -3.92050         4.35665
     2012.34770        -1.03607         4.41686
     2012.35044         0.01435         4.34507
     2012.35318        -0.90522         4.36977
     2012.35592         3.68921         4.42998
     2012.35865        -2.40937         4.37440
     2012.36139        -0.92894         4.35279
     2012.36413        -2.94451         4.35202
     2012.36687        -2.14909         4.41994
     2012.36961        -4.53166         4.38212
     2012.37234        -1.80524         4.34044
     2012.37508         5.84519         4.46780
     2012.37782         2.98462         4.48324
     2012.38056        -4.95096         4.46471
     2012.38329        -0.27753         4.45159
     2012.38603        -0.40511         4.50717
     2012.38877       -12.33768         4.66078
     2012.39151         2.08175         4.46703
     2012.39425        -1.69883         4.46549
     2012.39698        -1.46140         4.48633
     2012.39972        -4.91398         4.35587
     2012.40246        -4.54655         4.34507
     2012.40520         0.71488         4.48401
     2012.40794         0.97830         4.35510
     2012.41067        -2.30027         4.35356
     2012.41341        -0.67484         4.36668
     2012.41615        -2.01242         4.36900
     2012.41889       -14.12499         4.51180
     2012.42162        -3.60457         4.33349
     2012.42436        -1.35114         4.52106
     2012.42710        -3.60171         4.39987
     2012.42984        -3.88029         4.36823
     2012.43258        -5.83886         4.40296
     2012.43531        -5.01344         4.38212
     2012.43805        -4.66801         4.35742
     2012.44079        -5.27858         4.42612
     2012.44353        -7.16116         4.39370
     2012.44626        -3.36873         4.37980
     2012.44900        -2.50531         4.34584
     2012.45174        -2.19788         4.38907
     2012.45448        -1.37345         4.41300
     2012.45722        -0.73403         4.42689
     2012.45995         0.88740         4.40914
     2012.46269         0.72183         4.44850
     2012.46543         3.29625         4.48401
     2012.46817         1.18668         4.34507
     2012.47091        -5.63690         4.40296
     2012.47364        -3.18047         4.46317
     2012.47638        -2.98404         4.41686
     2012.47912        -3.20162         4.42843
     2012.48186        -1.36119         4.40605
     2012.48459        -0.46677         4.38984
     2012.48733        -7.72034         4.37980
     2012.49007         0.70109         4.38444
     2012.49281        -3.69349         4.35510
     2012.49555        -2.68106         4.38598
     2012.49828         2.39136         4.37517
     2012.50102         4.33779         4.43770
     2012.50376         0.26722         4.38598
     2012.50650         0.34564         4.40991
     2012.50924        -1.25193         4.41377
     2012.51197        -2.20650         4.47243
     2012.51471        -1.02708         4.38752
     2012.51745        -0.49265         4.38058
     2012.52019        -2.31223         4.34430
     2012.52292        -1.09080         4.38675
     2012.52566         5.97363         4.36437
     2012.52840         4.08805         4.37517
     2012.53114         3.37148         4.45159
     2012.53388        -7.61910         4.34275
     2012.53661        -1.16567         4.40759
     2012.53935         0.61576         4.39987
     2012.54209         3.24218         4.33966
     2012.54483         0.99761         4.39910
     2012.54757         1.69403         4.49327
     2012.55030        -1.03154         4.42149
     2012.55304         1.05889         4.38907
     2012.55578        -2.32869         4.36051
     2012.55852        -8.08726         4.45468
     2012.56125        -3.12783         4.41222
     2012.56399        -2.40441         4.36514
     2012.56673        -3.51698         4.35587
     2012.56947         0.57644         4.34893
     2012.57221        -3.54613         4.37208
     2012.57494        -5.41870         4.36668
     2012.57768        -4.48728         4.38598
     2012.58042         1.20315         4.40065
     2012.58316        -5.99243         4.35742
     2012.58590         1.75400         4.40605
     2012.58863         2.85143         4.41917
     2012.59137         0.05085         4.45777
     2012.59411         5.93928         4.40605
     2012.59685         0.59770         4.34970
     2012.59958         0.85713         4.38675
     2012.60232         0.74856         4.52261
     2012.60506        -2.15302         4.42303
     2012.60780         2.26441         4.42226
     2012.61054        11.04583         4.40219
     2012.61327         2.96926         4.38444
     2012.61601        -0.20331         4.35124
     2012.61875         4.67011         4.37903
     2012.62149         8.07454         4.46008
     2012.62423         7.40897         4.36745
     2012.62696         4.81239         4.38675
     2012.62970        -4.66618         4.48401
     2012.63244         1.61624         4.39370
     2012.63518         4.33167         4.36977
     2012.63791         8.44710         4.34584
     2012.64065         8.09052         4.38212
     2012.64339        10.81295         4.32809
     2012.64613         5.55437         4.33272
     2012.64887         2.80280         4.37980
     2012.65160         8.23123         4.37440
     2012.65434         2.76365         4.35356
     2012.65708         6.03108         4.39215
     2012.65982         5.27850         4.44619
     2012.66256         1.96393         4.37980
     2012.66529         4.55836         4.37517
     2012.66803         7.29178         4.45005
     2012.67077         8.39421         4.37672
     2012.67351         5.66464         4.33503
     2012.67624         1.70406         4.36977
     2012.67898        12.87549         4.56197
     2012.68172        10.27791         4.49173
     2012.68446         1.81034         4.45005
     2012.68720         4.16477         4.52647
     2012.68993        -0.11481         4.37980
     2012.69267         5.43062         4.54499
     2012.69541        -0.56896         4.49173
     2012.69815        -1.99953         4.52338
     2012.70089         0.23790         4.47243
     2012.70362         2.36132         4.46317
     2012.70636         1.06775         4.35587
     2012.70910         3.02417         4.35665
     2012.71184         4.12760         4.39370
     2012.71457         8.01003         4.34893
     2012.71731         8.17745         4.37672
     2012.72005         5.01588         4.35665
     2012.72279         3.07431         4.38752
     2012.72553         8.70473         4.39910
     2012.72826         1.24316         4.43075
     2012.73100        10.69258         4.61292
     2012.73374         5.48401         4.45468
     2012.73648         2.70844         4.38521
     2012.73921         4.08186         4.48941
     2012.74195         2.96229         4.44696
     2012.74469         8.41571         4.38212
     2012.74743         4.25814         4.36282
     2012.75017         3.43957         4.37363
     2012.75290         6.75199         4.39833
     2012.75564         4.11542         4.38058
     2012.75838         1.51384         4.39679
     2012.76112         5.59727         4.40605
     2012.76386         1.82470         4.38829
     2012.76659         9.61212         4.40914
     2012.76933         1.93255         4.42149
     2012.77207         2.30798         4.38907
     2012.77481         0.40140         4.38829
     2012.77754         2.96783         4.52029
     2012.78028         3.45125         4.40296
     2012.78302        -2.29932         4.47089
     2012.78576        -4.27889         4.39756
     2012.78850         4.84753         4.44156
     2012.79123         5.33796         4.44464
     2012.79310        15.29189         7.27986
     2012.81403       -13.30315         8.10194
     2012.81587        -2.08821         4.46240
     2012.81861        -0.54378         4.45313
     2012.82135         1.33265         4.41222
     2012.82409         3.47307         4.41454
     2012.82683        -1.79450         4.41222
     2012.82956        -5.69208         4.44078
     2012.83230        -2.39165         4.46317
     2012.83504        -0.54922         4.51643
     2012.83778         0.83720         4.44001
     2012.84052         1.45463         4.46240
     2012.84325        -3.72995         4.60366
     2012.84599         2.77948         4.50408
     2012.84873         1.09991         4.44387
     2012.85147         6.83533         4.41068
     2012.85420         8.93476         4.76576
     2012.85694        -2.67282         4.52261
     2012.85968         1.53161         4.43461
     2012.86242        -2.22796         4.46085
     2012.86516         7.18546         4.45545
     2012.86789        -2.02111         4.51412
     2012.87063        -0.87868         4.39524
     2012.87337         1.66874         4.43384
     2012.87611         3.27317         4.54422
     2012.87885         8.15359         4.57741
     2012.88158         6.70702         4.43229
     2012.88432         2.85445         4.48478
     2012.88706         1.97487         4.62836
     2012.88980         1.44230         4.62759
     2012.89253        -3.54428         4.54422
     2012.89527        -1.57685         4.45236
     2012.89801        -4.49642         4.37980
     2012.90075         2.59300         4.43924
     2012.90349         1.27743         4.44542
     2012.90622         5.31485         4.40296
     2012.90896         4.12028         4.61524
     2012.91170         0.12671         4.52338
     2012.91444         0.87113         4.48633
     2012.91718         4.57356         4.53033
     2012.91991        12.32399         4.48941
     2012.92265         1.37941         4.37749
     2012.92539         0.57884         4.43307
     2012.92813        -2.81074         4.46780
     2012.93086        -1.95131         4.45545
     2012.93360         3.97212         4.44233
     2012.93634        -1.52646         4.34044
     2012.93908         1.97997         4.37903
     2012.94182        -1.24961         4.36823
     2012.94455         3.54782         4.34584
     2012.94729         3.81025         4.63531
     2012.95003         4.74167         4.46549
     2012.95277         7.84110         4.34430
     2012.95551         8.62452         4.35279
     2012.95824         7.45995         4.33040
     2012.96098         6.07938         4.43692
     2012.96372         8.45080         4.47784
     2012.96646         6.13723         4.33272
     2012.96919         1.72666         4.37054
     2012.97193         3.97808         4.52261
     2012.97467         0.78451         4.42612
     2012.97741         0.35393         4.38752
     2012.98015        -2.41364         4.40296
     2012.98288        -1.45921         4.35202
     2012.98562         5.83921         4.38829
     2012.98836         2.07364         4.30030
     2012.99110         3.94206         4.31959
     2012.99384         2.52649         4.31574
     2012.99657         2.89092         4.31805
     2012.99931         4.74234         4.33349
     2013.00205         5.12277         4.37054
     2013.00479         1.93719         4.33426
     2013.00752        -0.13538         4.32577
     2013.01026         4.83505         4.33349
     2013.01300         1.27547         4.39601
     2013.01574        -3.50110         4.41454
     2013.01848        -0.37567         4.34661
     2013.02121        -0.46725         4.34430
     2013.02395        -4.25282         4.34970
     2013.02669         4.73260         4.54345
     2013.02943         1.48803         4.31728
     2013.03216        -0.65354         4.35742
     2013.03490        -3.23912         4.34507
     2013.03764        -2.37969         4.35510
     2013.04038        -5.61327         4.33503
     2013.04312        -4.47784         4.42612
     2013.04585        -2.34741         4.43461
     2013.04859        -5.17499         4.41454
     2013.05133        -5.08356         4.31882
     2013.05407        -5.47214         4.30647
     2013.05681         0.12529         4.34893
     2013.05954        -1.26128         4.36668
     2013.06228        -6.68586         4.51798
     2013.06502         0.61157         4.42071
     2013.06776         3.92900         4.32963
     2013.07049        -1.85958         4.33735
     2013.07323         4.03385         4.34044
     2013.07597         1.87927         4.31574
     2013.07871         1.16870         4.36514
     2013.08145         2.45613         4.29258
     2013.08418        -3.42245         4.30184
     2013.08692        -5.37602         4.39524
     2013.08966        -6.51860         4.32423
     2013.09240        -3.72517         4.29335
     2013.09514        -1.77774         4.38907
     2013.09787         2.06668         4.44773
     2013.10061        -5.86589         4.75649
     2013.10335        -9.74047         4.39215
     2013.10609        -1.22804         4.30802
     2013.10882        -0.08661         4.30802
     2013.11156        -4.92319         4.38058
     2013.11430        -1.46676         4.28872
     2013.11704        -5.79334         4.37980
     2013.11978        -1.96891         4.48401
     2013.12251        -5.66648         4.29721
     2013.12525        -5.08806         4.30338
     2013.12799        -6.90363         4.30338
     2013.13073        -2.47220         4.29258
     2013.13347        -1.85078         4.33966
     2013.13620         2.09965         4.42766
     2013.13894        -2.80193         4.30647
     2013.14168        -2.20250         4.38984
     2013.14442         1.49793         4.49019
     2013.14715         1.68735         4.52569
     2013.14989        -3.44622         4.32191
     2013.15263        -2.53480         4.34507
     2013.15537        -7.19637         4.30107
     2013.15811        -4.46194         4.32809
     2013.16084        -7.54652         4.32114
     2013.16358        -6.07809         4.38675
     2013.16632        -4.99167         4.30956
     2013.16906        -0.47124         4.37672
     2013.17180         2.90519         4.33889
     2013.17453        -2.33639         4.33349
     2013.17727        -9.72296         4.62836
     2013.18001        -6.55053         4.45699
     2013.18275         0.95489         4.34352
     2013.18548        -2.10868         4.30956
     2013.18822        -5.46626         4.31188
     2013.19096        -1.94683         4.33580
     2013.19370        -1.33040         4.31728
     2013.19644        -1.52498         4.32423
     2013.19917        -3.23655         4.33812
     2013.20191         4.30787         4.44464
     2013.20465         1.50630         4.34507
     2013.20739         0.57073         4.32963
     2013.21013         2.62215         4.32268
     2013.21286        -2.12542         4.32654
     2013.21560         0.03500         4.41300
     2013.21834         0.59443         4.46935
     2013.22108         1.24086         4.30956
     2013.22381        -0.42772         4.30647
     2013.22655        -1.26329         4.32886
     2013.22929         1.60514         4.30570
     2013.23203         1.60356         4.39679
     2013.23477         1.14099         4.29412
     2013.23750         0.50741         4.43461
     2013.24024        -7.09816         4.40991
     2013.24298         2.66127         4.43229
     2013.24572        15.12169         4.59362
     2013.24846         2.38312         4.40682
     2013.25119        -0.55646         4.52183
     2013.25393        -1.35203         4.41608
     2013.25667         2.28040         4.83909
     2013.25941         3.55582         4.42380
     2013.26214         2.31825         4.43229
     2013.26488         1.32367         4.37903
     2013.26762         3.87310         4.50794
     2013.27036         1.10253         4.41300
     2013.27310         7.46195         4.50177
     2013.27583        12.10438         4.55040
     2013.27857         5.37581         4.45699
     2013.28131         9.51223         4.45391
     2013.28405         3.82966         4.44773
     2013.28679         4.82408         4.46780
     2013.28952         5.95351         4.41145
     2013.29226         3.42194         4.37440
     2013.29500         3.42936         4.39987
     2013.29774        -3.39821         4.43075
     2013.30047         0.77621         4.39601
     2013.30321        -1.60036         4.40296
     2013.30595         3.79007         4.35279
     2013.30869         3.54349         4.39910
     2013.31143         0.78992         4.40836
     2013.31416         1.87934         4.43461
     2013.31690        -0.71623         4.39215
     2013.31964        -1.29180         4.39987
     2013.32238         2.99762         4.41145
     2013.32512         4.96505         4.44387
     2013.32785        -1.15952         4.45854
     2013.33059         1.54490         4.40296
     2013.33333        -2.95667         4.38444
     2013.33607        -1.28825         4.39215
     2013.33880         5.62518         4.37672
     2013.34154         4.53961         4.36205
     2013.34428         2.77203         4.42303
     2013.34702        -1.06254         4.39138
     2013.34976        -3.58912         4.42226
     2013.35249        -3.39369         4.33195
     2013.35523        -4.34426         4.48633
     2013.35797        -1.62684         4.42535
     2013.36071        -3.46141         4.40836
     2013.36344         1.70401         4.42303
     2013.36618         0.47144         4.43770
     2013.36892         8.03287         4.43229
     2013.37166        -4.64971         4.47089
     2013.37440        -3.25028         4.44464
     2013.37713        -1.68085         4.42071
     2013.37987         0.53857         4.42766
     2013.38261         3.10000         4.43075
     2013.38535         7.64842         4.67004
     2013.38809        -0.23015         4.43692
     2013.39082        -1.69172         4.39447
     2013.39358        -5.04731         4.42921
     2013.39631         0.89412         4.39833
     2013.39904        -2.18745         4.39138
     2013.40177        -1.05002         4.47475
     2013.40451         0.47841         4.39601
     2013.40725        -5.15117         4.54885
     2013.40999         4.65226         4.41917
     2013.41273        -1.90432         4.39293
     2013.41546        -2.38389         4.54113
     2013.41820        -0.01946         4.41917
     2013.42094         2.11296         4.40296
     2013.42368        -1.95661         4.41763
     2013.42642         2.57282         4.47552
     2013.42915        -3.19676         4.41840
     2013.43189        -1.60733         4.35973
     2013.43463         0.45809         4.44387
     2013.43737         2.76752         4.44310
     2013.44010        -2.82805         4.77579
     2013.44284        -2.31063         4.44310
     2013.44558         2.02780         4.54654
     2013.44832        -6.73878         4.42071
     2013.45106        -3.50335         4.35587
     2013.45379        -3.03392         4.39370
     2013.45653        -7.94550         4.40065
     2013.45927        -3.73107         4.41608
     2013.46201        -2.75165         4.42226
     2013.46475        -1.52422         4.40528
     2013.46748        -0.51679         4.40836
     2013.47022        -2.84237         4.45236
     2013.47296         3.29806         4.35279
     2013.47570         1.14949         4.40528
     2013.47843        -1.39409         4.37286
     2013.48117        -8.09666         4.35819
     2013.48391         0.04676         4.35124
     2013.48665        -3.50781         4.34584
     2013.48939        -0.99338         4.37672
     2013.49212        -3.82796         4.41222
     2013.49486        -2.30353         4.37286
     2013.49760         8.03689         4.37208
     2013.50034         2.19232         4.34738
     2013.50308        -2.82025         4.34430
     2013.50581         1.57817         4.38598
     2013.50855         0.05460         4.33966
     2013.51129         2.98502         4.34893
     2013.51403        -0.46455         4.38366
     2013.51676         1.40388         4.33117
     2013.51950        -0.29470         4.39215
     2013.52224        -0.64127         4.32191
     2013.52498        -2.18084         4.47320
     2013.52772         2.25858         4.38675
     2013.53045        -0.60199         4.35510
     2013.53319        -2.90257         4.35973
     2013.53593         3.96586         4.38907
     2013.53867        -2.44771         4.32191
     2013.54141        -3.61029         4.35510
     2013.54414        -1.61886         4.35819
     2013.54688        -0.59344         4.39679
     2013.54962        -2.08701         4.35433
     2013.55236        -4.17458         4.38829
     2013.55509         2.29484         4.38752
     2013.55783         5.00327         4.35665
     2013.56057        -0.43231         4.49482
     2013.56331        -0.35888         4.45159
     2013.56605        -3.51745         4.35973
     2013.56878         2.81597         4.34893
     2013.57152        10.39240         4.40991
     2013.57426         1.40483         4.38829
     2013.57700        -4.13775         4.40450
     2013.57974         6.76168         4.38907
     2013.58247         3.65110         4.38907
     2013.58521         5.59953         4.33735
     2013.58795         6.31696         4.37131
     2013.59069         0.20338         4.37286
     2013.59342        -3.02819         4.35973
     2013.59616         5.74123         4.34738
     2013.59890         5.08766         4.37903
     2013.60164         2.63809         4.33580
     2013.60438         3.49451         4.33735
     2013.60711        -0.09206         4.37131
     2013.60985         2.24836         4.34661
     2013.61259         2.13079         4.36900
     2013.61533         8.59422         4.43538
     2013.61807         5.81764         4.41454
     2013.62080         5.43107         4.45082
     2013.62354         3.30550         4.38058
     2013.62628        -3.45508         4.42612
     2013.62902         0.26035         4.44850
     2013.63175         0.03377         4.40836
     2013.63449         9.73720         4.58667
     2013.63723         8.17263         4.44542
     2013.63997        -2.66495         4.48633
     2013.64271        -5.47552         4.39987
     2013.64544         1.96890         4.40914
     2013.64818         0.32733         4.37749
     2013.65092         5.38876         4.40065
     2013.65366         6.09818         4.40682
     2013.65639         4.68361         4.42998
     2013.65913         2.18803         4.52261
     2013.66187        -0.46954         4.39679
     2013.66461         3.53589         4.43075
     2013.66735         2.03631         4.43307
     2013.67008         3.48974         4.38366
     2013.67282         5.24116         4.47320
     2013.67556         1.19159         4.50871
     2013.67830         6.87402         4.40836
     2013.68104         4.29044         4.40065
     2013.68377         1.41087         4.37749
     2013.68651         3.51830         4.32886
     2013.68925         1.59472         4.35433
     2013.69199         4.36015         4.37517
     2013.69472         4.03657         4.38289
     2013.69746        -3.60200         4.38058
     2013.70020         6.01943         4.38366
     2013.70294         6.30385         4.36359
     2013.70568         5.03328         4.39447
     2013.70841         1.63170         4.39293
     2013.71115         1.05613         4.46471
     2013.71389         0.99856         4.38752
     2013.71663         3.47398         4.32577
     2013.71937         5.79541         4.34352
     2013.72210         3.57583         4.70246
     2013.72484         4.49926         4.38058
     2013.72758         2.12369         4.36823
     2013.73032         2.18411         4.41068
     2013.73305         6.00254         4.38212
     2013.73579         5.65797         4.35279
     2013.73853         3.62739         4.36823
     2013.74127         0.81982         4.36823
     2013.74401         7.44524         4.43538
     2013.74674         7.93067         4.46549
     2013.74948         2.60110         4.32654
     2013.75222         1.60252         4.44464
     2013.75496        -1.63905         4.35973
     2013.75770        -3.63663         4.36745
     2013.76043        -2.27820         4.31805
     2013.76317         1.19923         4.31728
     2013.76591         1.87065         4.38675
     2013.76865         1.63908         4.37672
     2013.77138         2.28450         4.37594
     2013.77412         4.64093         4.35665
     2013.77686        -0.58964         4.31188
     2013.77960        -0.61622         4.38598
     2013.78234         0.31921         4.43307
     2013.78507        -3.15536         4.37749
     2013.78781        -3.92194         4.38984
     2013.79055        -3.64651         4.35279
     2013.79329        -2.73109         4.37903
     2013.79603        -0.33166         4.35356
     2013.79876        -1.67023         4.34738
     2013.80150         1.65719         4.42612
     2013.80424         1.77862         4.45082
     2013.80698        -0.33096         4.35819
     2013.80971         0.15247         4.36745
     2013.81245         6.08690         4.35047
     2013.81519         1.30132         4.34198
     2013.81793        -2.18025         4.36205
     2013.82067        -1.21683         4.37208
     2013.82340         3.26960         4.37826
     2013.82614         2.40803         4.45622
     2013.82888         3.49445         4.38675
     2013.83162        -0.18512         4.35279
     2013.83436         1.69531         4.49096
     2013.83709         4.81573         4.42226
     2013.83983         6.14216         4.42535
     2013.84257         5.88658         4.45236
     2013.84531         0.06301         4.50562
     2013.84804        -0.04556         4.35124
     2013.85078         1.45286         4.40528
     2013.85352         5.92629         4.38444
     2013.85626         3.69671         4.38366
     2013.85900         0.32214         4.40296
     2013.86173         1.24657         4.37363
     2013.86447        -1.11301         4.47938
     2013.86721         4.38942         4.34893
     2013.86995         5.41384         4.38135
     2013.87269         7.76527         4.43692
     2013.87542        10.00370         4.39215
     2013.87816         6.23812         4.37749
     2013.88090         7.42455         4.41994
     2013.88364         8.13398         4.55194
     2013.88637         3.36540         4.40914
     2013.88911         5.95683         4.44464
     2013.89185        -1.44275         4.44850
     2013.89459        -1.71732         4.36823
     2013.89733        -0.03289         4.29953
     2013.90006        -2.07147         4.47320
     2013.90280        -2.35904         4.42998
     2013.90554         2.69338         4.39061
     2013.90828         2.25681         4.39293
     2013.91102         1.16524         4.32886
     2013.91375         1.13866         4.36051
     2013.91649        -0.94591         4.42535
     2013.91923        -2.55549         4.46008
     2013.92197         3.81194         4.50331
     2013.92470         6.38337         4.34352
     2013.92744         7.57479         4.39679
     2013.93018         5.16722         4.37980
     2013.93292         1.78765         4.36745
     2013.93566         2.72407         4.33349
     2013.93839         4.90750         4.29953
     2013.94113         2.76192         4.31188
     2013.94387         2.10035         4.33658
     2013.94661         4.21378         4.35742
     2013.94935         2.78620         4.34661
     2013.95208         4.55463         4.34430
     2013.95482         0.87205         4.29335
     2013.95756         2.06248         4.36051
     2013.96030         4.76191         4.32500
     2013.96303         8.93433         4.40373
     2013.96577         9.18876         4.43461
     2013.96851         9.21018         4.34507
     2013.97125        10.24761         4.36668
     2013.97399         3.43804         4.34430
     2013.97672         0.33646         4.36437
     2013.97946         3.91789         4.38212
     2013.98220        -0.49968         4.39215
     2013.98494        -1.45426         4.32731
     2013.98767        -3.29083         4.33349
     2013.99041        -1.54341         4.35973
     2013.99315        -2.62098         4.45854
     2013.99589         1.45945         4.39138
     2013.99863        -3.19613         4.41300
     2014.00410        -4.50528         4.36745
     2014.00684         0.62915         4.37440
     2014.00958         1.37558         4.40991
     2014.01232        -0.04600         4.41222
     2014.01505        -1.99457         4.41608
     2014.01779         0.16785         4.46240
     2014.02053        -1.33572         4.35124
     2014.02327        -2.08829         4.44387
     2014.02600         2.29613         4.48556
     2014.02874         0.86656         4.38289
     2014.03148         7.11499         4.41531
     2014.03422        -2.60059         4.34507
     2014.03696        -0.93016         4.36205
     2014.03969         2.19026         4.36514
     2014.04243         1.36569         4.47243
     2014.04517         4.27012         4.41917
     2014.04791         0.70054         4.31419
     2014.05065         1.55697         4.31496
     2014.05338        -1.31461         4.36823
     2014.05612        -2.52318         4.40219
     2014.05886        -2.03775         4.33580
     2014.06160         5.84167         4.34661
     2014.06433         2.40010         4.52415
     2014.06707         0.88152         4.54422
     2014.06981         1.79895         4.37286
     2014.07255         0.87038         4.39833
     2014.07529         0.29980         4.41608
     2014.07802         1.22223         4.42149
     2014.08076        -1.45734         4.39447
     2014.08350        -0.66392         4.38907
     2014.08624        -2.52649         4.41300
     2014.08898         2.55393         4.55040
     2014.09171        -4.08364         4.53727
     2014.09445        -3.09821         4.33117
     2014.09719        -6.78979         4.46008
     2014.09993         8.48264         4.33812
     2014.10266         3.01606         4.37363
     2014.10540         0.16449         4.33812
     2014.10814        -0.15108         4.49327
     2014.11088        -1.39366         4.52029
     2014.11362         0.14077         4.41763
     2014.11635        -0.03981         4.38212
     2014.11909        -3.74638         4.37749
     2014.12183         1.77405         4.44156
     2014.12457         1.40047         4.38907
     2014.12731         6.52190         4.48015
     2014.13004         3.90033         4.35587
     2014.13278         3.31975         4.49868
     2014.13552        -0.39082         4.51798
     2014.13826         2.23860         4.35202
     2014.14099         5.36303         4.37517
     2014.14373         1.74246         4.38521
     2014.14647         4.48288         4.49250
     2014.14921         1.21831         4.44850
     2014.15195        -1.71827         4.42380
     2014.15468         1.61216         4.44773
     2014.15742         9.97759         4.57664
     2014.16016        16.71901         4.62218
     2014.16290         5.93944         4.61524
     2014.16564         0.85086         4.43924
     2014.16837        -4.77371         4.51412
     2014.17111         0.25472         4.57741
     2014.17385        -0.58386         4.63531
     2014.17659        11.28357         4.58050
     2014.17932         8.84100         4.70015
     2014.18206         3.63642         4.46626
     2014.18480         4.35385         4.45005
     2014.18754        16.45027         4.64843
     2014.19028        -0.46430         4.40296
     2014.19301         9.61013         4.47706
     2014.19575         4.32355         4.39679
     2014.19849         4.71998         4.38829
     2014.20123         1.82440         4.42457
     2014.20397        -2.18517         4.39447
     2014.20670         2.92526         4.48092
     2014.20944        10.49268         4.41531
     2014.21218         5.74411         4.38752
     2014.21492         3.35953         4.48633
     2014.21765         3.18696         4.43384
     2014.22039         0.56939         4.38289
     2014.22313        -1.41519         4.39138
     2014.22587        -2.67076         4.40065
     2014.22861         0.11066         4.56738
     2014.23134         1.14609         4.49405
     2014.23408         4.75752         4.40373
     2014.23682         1.10694         4.40836
     2014.23956        -2.82563         4.55040
     2014.24230        -0.34420         4.41608
     2014.24503        -1.81078         4.47320
     2014.24777         3.88065         4.72407
     2014.25051         0.21707         4.42689
     2014.25325         2.74650         4.40450
     2014.25598         1.51893         4.50331
     2014.25872         0.64335         4.37440
     2014.26146         2.44778         4.57355
     2014.26420        -0.22580         4.40450
     2014.26694        -0.15837         4.41608
     2014.26969         1.39805         4.49559
     2014.27241         1.22748         4.52183
     2014.27515         1.68491         4.61987
     2014.27789         1.37033         4.41917
     2014.28062         1.67076         4.43847
     2014.28336        -0.49281         4.44078
     2014.28610         2.54961         4.49250
     2014.28884         6.36204         4.55503
     2014.29158        -2.72453         4.36668
     2014.29431         1.54189         4.36823
     2014.29705        -2.05468         4.44233
     2014.29979        -4.61826         4.40528
     2014.30253        -4.33483         4.40759
     2014.30527        -3.44540         4.63531
     2014.30800        -2.34098         4.38752
     2014.31074        -2.99355         4.43152
     2014.31348        -7.29613         4.47398
     2014.31622        -3.38570         4.41840
     2014.31895        -8.36027         4.47706
     2014.32169       -11.15485         4.52878
     2014.32443       -11.26842         4.53959
     2014.32717       -11.15300         4.52724
     2014.32991        -5.41157         4.49327
     2014.33264       -10.59114         4.43384
     2014.33538       -13.27072         4.40914
     2014.33812        -7.85329         4.45313
     2014.34086        -5.98886         4.42689
     2014.34360        -5.20444         4.48710
     2014.34633        -2.80701         4.39370
     2014.34907       -12.17059         4.58050
     2014.35181        -2.81316         4.55657
     2014.35455        -7.99573         4.44464
     2014.35728        -8.99731         4.40991
     2014.36002       -10.30188         4.42689
     2014.36276        -9.93346         4.46394
     2014.36550        -4.92303         4.42612
     2014.36824       -11.36660         4.49791
     2014.37097        -9.40918         4.44233
     2014.37371        -9.92775         4.45159
     2014.37645       -13.12933         4.48864
     2014.37919        -3.62290         4.56969
     2014.38193        -8.83947         4.53264
     2014.38466        -9.49105         4.57664
     2014.38740        -1.96562         4.55271
     2014.39014        -6.41119         4.50948
     2014.39288        -1.47677         4.49482
     2014.39561        -7.90334         4.44001
     2014.39835        -6.46492         4.47089
