# ================= DQRFIT RESULTS ================
# INPUT FILE: series/P815.rad
# OUTPUT: LDETRENDED
# FILTER FUNCTION: f(t)
# f(t)=+line(t)+annual(t)
# line(t)=+P 1+P 2*t
# annual(t)=+P 3*sin(2*pi*t+P 4)
# heav(t)=(t<0?0:1)
# TOTAL OBSERVATIONS MTOT= 2991
# INITIAL TIME INTERVAL= 2022.7488 - 2013.6838 =  9.0650
# TOTAL OBSERVATIONS AFTER PREFILTER M= 2987
# TIME-SPAN= 2022.7488 - 2013.6838 =  9.0650
# OBSERVATIONS: USED M=  2987 REJECTED MTOT-M=     4 %USED=   99.8663
# N=  4 PARAMETERS
# MAXSIG= 175.00000
# MAXRES=  41.95649
# SCALE FACTOR FOR LENGTHS: SCL=  10.00000
# SCALE FACTOR FOR SIGMAS: SCLSIG=   1.00000
# CHI^2=   2069.157 DOF=  2983 CHI^2/DOF=   0.69365
# RMS=      5.027 SDEV=      5.028 MEAN=   -0.03552
#  P #       PARAMETER +-    SIGMA %error PARAMETER NAME
# P 1 =     -2080.14556 +-   65.869   3.17 YZERO                              
# P 2 =         1.03338 +-    0.033   3.16 SLOPE                              
# P 3 =         4.15480 +-    0.118   2.85 ANNUAL AMPLITUDE                   
# P 4 =        -2.59904 +-    0.034   1.32 ANNUAL PHASE                       
#       T            LDETRENDED       SIG_OBS
     2013.68377        11.73079         4.49992
     2013.68651         3.42196         4.52991
     2013.68925        -2.82686         4.53990
     2013.69199         7.77831         4.49826
     2013.69472         9.85848         4.50492
     2013.69746         5.64865         4.46411
     2013.70020         3.32482         4.48910
     2013.70294         4.30299         4.47993
     2013.70568         7.42616         4.59737
     2013.70841         5.79333         4.51491
     2013.71115         3.26650         4.51575
     2013.71389         6.53367         4.49992
     2013.71663         5.32784         4.52991
     2013.71937        12.12101         4.58154
     2013.72210        12.29218         4.53324
     2013.72484         9.09936         4.75394
     2013.72758         8.25653         4.57988
     2013.73032        10.59570         4.58071
     2013.73305         5.63087         4.46827
     2013.73579         0.77404         4.48327
     2013.73853         4.75821         4.52324
     2013.74127         4.37838         4.49992
     2013.74401        10.76955         4.67899
     2013.74674         7.37372         4.70231
     2013.74948         5.50189         4.60653
     2013.75222        -3.22294         4.51075
     2013.75496        -4.43877         4.50076
     2013.75770        -5.82960         4.47577
     2013.76043         2.00758         4.48410
     2013.76317        -0.68725         4.53990
     2013.76591        -0.36308         4.66066
     2013.76865        -3.34591         4.50742
     2013.77138        -2.14774         4.50159
     2013.77412         2.35543         4.59570
     2013.77686         3.17660         4.50992
     2013.77960         2.98677         4.52657
     2013.78234        -7.73006         4.52324
     2013.78507        -7.51189         4.49826
     2013.78781        -4.87972         4.48410
     2013.79055        -3.68855         4.53074
     2013.79329         0.03662         4.48493
     2013.79603         2.81880         4.51991
     2013.79876        -0.80203         4.47744
     2013.80150         4.48614         4.53407
     2013.80424         5.25531         4.55073
     2013.80698         2.64848         4.47077
     2013.80971         4.14365         4.50992
     2013.81245         4.50682         4.48327
     2013.81519        -0.28001         4.47660
     2013.81793        -6.53284         4.47827
     2013.82067         5.38933         4.67316
     2013.82340         3.87350         4.53407
     2013.82614         8.07467         4.60736
     2013.82888         4.51284         4.54823
     2013.83162         4.30602         4.54573
     2013.83436         0.34819         4.59487
     2013.83709         8.42536         4.72063
     2013.83983         1.28053         4.56489
     2013.84257        -0.79330         4.53740
     2013.84531        -0.40913         4.52991
     2013.84804        -2.66996         4.46244
     2013.85078         0.20721         4.52991
     2013.85352         5.43538         4.51491
     2013.85626        -4.54145         4.57238
     2013.85900        -3.20828         4.45412
     2013.86173        -1.73211         4.49909
     2013.86447        -1.38494         4.62319
     2013.86721        -2.57276         4.52491
     2013.86995         0.67841         4.54157
     2013.87269         1.36258         4.54240
     2013.87542         3.04975         4.54740
     2013.87816         7.77892         4.51658
     2013.88090         3.79009         4.56905
     2013.88364         3.76726         4.69648
     2013.88637         4.95543         4.50242
     2013.88911        -1.30440         4.46994
     2013.89185        -6.90323         4.44829
     2013.89459        -1.04806         4.52574
     2013.89733         2.04011         4.53240
     2013.90006        -4.84372         4.59570
     2013.90280         0.37946         4.60320
     2013.90554        -5.11437         4.52408
     2013.90828        -1.39820         4.52574
     2013.91102        -5.30903         4.55156
     2013.91375        -4.18886         4.53074
     2013.91649        -0.42869         4.51908
     2013.91923         5.06348         4.59737
     2013.92197        -0.48935         4.53407
     2013.92470         1.21282         4.48826
     2013.92744         1.60999         4.55739
     2013.93018        -0.29784         4.48493
     2013.93292        -4.94067         4.44745
     2013.93566         2.88250         4.44495
     2013.93839         0.39268         4.45661
     2013.94113        -2.41415         4.46244
     2013.94387        -2.18798         4.51908
     2013.94661         0.96519         4.57072
     2013.94935        -1.83264         4.44829
     2013.95208         0.63353         4.55323
     2013.95482        -1.28830         4.46994
     2013.95756        -0.56113         4.48160
     2013.96030        -1.45796         4.54490
     2013.96303        -4.66879         4.47577
     2013.96577         1.23338         4.46328
     2013.96851         1.76155         4.52574
     2013.97125         4.38272         4.50159
     2013.97399         3.17690         4.59237
     2013.97672        -8.94593         4.57238
     2013.97946        -2.98376         4.46078
     2013.98220        -0.73659         4.57321
     2013.98494        -1.90042         4.48993
     2013.98767       -10.95325         4.51158
     2013.99041        -9.29808         4.50825
     2013.99315       -10.88291         4.48660
     2013.99589        -3.48574         4.51491
     2013.99863        -5.97157         4.52907
     2014.00410        -1.79223         4.50325
     2014.00684        -2.82906         4.59903
     2014.00958        -3.45688         4.45745
     2014.01232        -6.48371         4.56572
     2014.01505        -0.07254         4.65900
     2014.01779         0.18663         4.64151
     2014.02053         0.00680         4.49159
     2014.02327        -3.53403         4.67399
     2014.02600         1.63714         4.60903
     2014.02874         6.23731         4.53657
     2014.03148         0.38748         4.50742
     2014.03422        -2.84035         4.50409
     2014.03696        -2.42018         4.48077
     2014.03969        -2.99901         4.47161
     2014.04243         0.73016         4.62652
     2014.04517         2.37834         4.64651
     2014.04791         1.09251         4.54240
     2014.05065        -3.06532         4.47577
     2014.05338        -2.35315         4.46161
     2014.05612        -4.11098         4.52074
     2014.05886         0.30419         4.52574
     2014.06160         2.74936         4.50575
     2014.06433        -3.43747         4.64234
     2014.06707         1.72370         4.62485
     2014.06981         3.73187         4.54823
     2014.07255        -2.40496         4.49909
     2014.07529         6.64421         4.55822
     2014.07802        -0.75562         4.60153
     2014.08076         1.80456         4.50159
     2014.08350         1.53573         4.46911
     2014.08624        -5.07210         4.51575
     2014.08898        -3.69593         4.66899
     2014.09171        -0.85676         4.67482
     2014.09445        -0.63559         4.50575
     2014.09719        -0.67042         4.55572
     2014.09993         5.99475         4.46494
     2014.10266         4.42592         4.59487
     2014.10540         6.07709         4.47077
     2014.10814         2.93026         4.52574
     2014.11088         7.66443         4.72563
     2014.11362         7.45060         4.54989
     2014.11635         4.74178         4.48660
     2014.11909        -0.69905         4.49826
     2014.12183         2.87412         4.61652
     2014.12457        -0.29571         4.49992
     2014.12731         6.75046         4.50159
     2014.13004         1.86363         4.52991
     2014.13278         5.48880         4.67899
     2014.13552         5.96797         4.66899
     2014.13826         2.55914         4.56572
     2014.14099         1.63331         4.47410
     2014.14373         2.01548         4.48660
     2014.14647        -0.03135         4.52158
     2014.14921         0.61282         4.53407
     2014.15195        -1.51400         4.53740
     2014.15468         3.03917         4.60570
     2014.15742         3.30134         4.53240
     2014.16016         3.75751         4.67649
     2014.16290        -2.19632         4.56572
     2014.16564        -3.68215         4.52991
     2014.16837        -4.65198         4.64900
     2014.17111         0.06819         4.66649
     2014.17385        -0.42064         4.74895
     2014.17659         1.77453         4.59070
     2014.17932         4.69470         4.79142
     2014.18206        -0.95313         4.67649
     2014.18480         0.76504         4.50992
     2014.18754        -1.73778         4.51741
     2014.19028        -3.33561         4.55489
     2014.19301        -1.86744         4.52491
     2014.19575         2.29273         4.56738
     2014.19849        -2.54010         4.65317
     2014.20123        -3.54993         4.66816
     2014.20397        -4.34476         4.56905
     2014.20670        -7.13659         4.55739
     2014.20944        -0.07142         4.53740
     2014.21218        -3.82125         4.56489
     2014.21492         3.70392         4.71230
     2014.21765         1.02209         4.54490
     2014.22039        -0.50474         4.53907
     2014.22313         0.46444         4.50908
     2014.22587         3.66661         4.54490
     2014.22861         3.57778         4.61153
     2014.23134         7.60995         4.53157
     2014.23408         3.43412         4.50742
     2014.23682         5.21429         4.52074
     2014.23956        -5.27754         4.65234
     2014.24230        -3.65237         4.55822
     2014.24503        -3.57920         4.54240
     2014.24777         2.90597         4.69231
     2014.25051        -4.75486         4.52907
     2014.25325        -4.58269         4.57238
     2014.25598        -2.96952         4.63901
     2014.25872        -3.10634         4.52324
     2014.26146         2.04383         4.65900
     2014.26420        -1.61100         4.52324
     2014.26694        -5.25883         4.63318
     2014.26967        -3.43966         4.52741
     2014.27241        -7.46049         4.60736
     2014.27515        -3.40432         4.62652
     2014.27789        -2.06115         4.56489
     2014.28062        -5.37298         4.52491
     2014.28336        -4.70281         4.51741
     2014.28610        -0.70164         4.66066
     2014.28884        -6.46347         4.74978
     2014.29158        -6.87030         4.51408
     2014.29431        -2.78112         4.59903
     2014.29705         1.95405         4.65817
     2014.29979        -4.68578         4.57405
     2014.30253        -7.54161         4.53157
     2014.30527        -4.44744         4.57072
     2014.30800        -2.76827         4.58904
     2014.31074        -0.15510         4.59404
     2014.31348         2.81907         4.59070
     2014.31622         0.37824         4.51158
     2014.31895        -4.55959         4.53990
     2014.32169        -4.99342         4.61902
     2014.32443        -9.49125         4.61069
     2014.32717        -9.62908         4.68065
     2014.32991        -3.42290         4.53657
     2014.33264         0.30627         4.59070
     2014.33538        -4.47856         4.54073
     2014.33812        -2.68139         4.60653
     2014.34086        -1.16622         4.52907
     2014.34360        -2.38905         4.53240
     2014.34633        -8.75088         4.51908
     2014.34907        -5.94571         4.71730
     2014.35181        -2.77354         4.67482
     2014.35455        -1.70037         4.52741
     2014.35728        -4.75020         4.53907
     2014.36002        -6.72803         4.57488
     2014.36276        -5.24986         4.55906
     2014.36550        -2.27168         4.54823
     2014.36824        -4.73251         4.58404
     2014.37097         0.17166         4.58737
     2014.37371        -3.20217         4.52491
     2014.37645        -0.81400         4.53574
     2014.37919        -3.17583         4.52824
     2014.38193        -5.68866         4.56905
     2014.38466         0.42051         4.59570
     2014.38740        -2.13332         4.55073
     2014.39014        -2.80615         4.62235
     2014.39288        -2.10698         4.56738
     2014.39561         0.79119         4.57655
     2014.39835         0.52336         4.59070
     2014.40109        -3.42246         4.57571
     2014.40383        -5.16029         4.57821
     2014.40657        -3.35312         4.56655
     2014.40930        -1.36995         4.59320
     2014.41204        -2.74978         4.51408
     2014.41478        -1.59161         4.51158
     2014.41752         1.91756         4.48493
     2014.42026         1.46073         4.53407
     2014.42299        -1.17110         4.55489
     2014.42573        -2.28493         4.53074
     2014.42847         1.84624         4.51658
     2014.43121        -3.07459         4.47244
     2014.43394        -1.44942         4.53990
     2014.43668         4.08976         4.50659
     2014.43942         0.39893         4.52241
     2014.44216        -4.88990         4.52991
     2014.44490        -1.07473         4.64068
     2014.44763         1.40944         4.61402
     2014.45037        -5.66039         4.51408
     2014.45311        -0.46022         4.56155
     2014.45585         2.05895         4.50742
     2014.45859        -5.48488         4.49159
     2014.46132        -0.42571         4.53157
     2014.46406        -0.50454         4.48826
     2014.46680        -0.21637         4.61402
     2014.46954        -3.16420         4.52074
     2014.47227         1.93498         4.55989
     2014.47501         0.12515         4.53324
     2014.47775         1.04332         4.49409
     2014.48049        -4.12451         4.51741
     2014.48323         2.07966         4.57738
     2014.48596         7.92583         4.64984
     2014.48870         1.24500         4.64984
     2014.49144        -0.89383         4.42413
     2014.49418        -2.19966         4.42163
     2014.49692        -0.66249         4.50575
     2014.49965         1.72868         4.56489
     2014.50239        -1.61915         4.51658
     2014.50513        -1.75998         4.49409
     2014.50787         4.35220         4.56072
     2014.51060        -5.29363         4.50825
     2014.51334         3.59854         4.44162
     2014.51608         6.60471         4.42913
     2014.51882         2.72588         4.45162
     2014.52156         5.58905         4.51242
     2014.52429         1.70822         4.47244
     2014.52703         7.45139         4.48410
     2014.52977         1.76156         4.45162
     2014.53251        -2.90727         4.51158
     2014.53525         0.19690         4.45162
     2014.53798        10.61007         4.47660
     2014.54072         6.03124         4.60986
     2014.54346         4.53642         4.49409
     2014.54620         2.06059         4.53324
     2014.54893         4.52876         4.46161
     2014.55167         5.32393         4.46661
     2014.55441         5.76110         4.48993
     2014.55715         5.89327         4.58987
     2014.55989         3.60544         4.49909
     2014.56262         3.64861         4.45911
     2014.56536        -2.71922         4.44579
     2014.56810        -0.32605         4.51325
     2014.57084        -1.83488         4.44162
     2014.57357        -1.74271         4.43663
     2014.57631         2.38546         4.43829
     2014.57905         0.46164         4.43579
     2014.58179         0.11981         4.52324
     2014.58453         0.46798         4.58821
     2014.58726        -1.03585         4.65483
     2014.59000         2.14332         4.53407
     2014.59274         5.00049         4.54906
     2014.59548         8.65766         4.59320
     2014.59822         3.49083         4.62402
     2014.60095         6.81200         4.58904
     2014.60369         1.41117         4.55489
     2014.60643         0.09134         4.57655
     2014.60917         6.20751         4.60320
     2014.61190         6.86968         4.69648
     2014.61464         4.04786         4.54573
     2014.61738        -3.36197         4.73645
     2014.62012         2.40420         4.75061
     2014.62286         0.24237         4.54989
     2014.62559         3.90354         4.55489
     2014.62833         6.31171         4.57155
     2014.63107         8.54388         4.60486
     2014.63381        12.26005         4.71064
     2014.63655         6.85322         4.57988
     2014.63928         0.67839         4.53157
     2014.64202         1.34856         4.49826
     2014.64476        -0.88327         4.56155
     2014.64750         2.18190         4.54906
     2014.65023         0.99608         4.56738
     2014.65297         1.15725         4.57655
     2014.65571         9.20042         4.55073
     2014.65845         5.69859         4.54406
     2014.66119         4.70076         4.53574
     2014.66392        10.83393         4.55323
     2014.66666        11.68410         4.55572
     2014.66940         5.58527         4.60570
     2014.67214         9.70744         4.51408
     2014.67488         0.03961         4.49493
     2014.67761         2.29178         4.55989
     2014.68035         8.15895         4.58154
     2014.68309        -1.24688         4.53490
     2014.68583         4.19330         4.54989
     2014.68856         5.00047         4.51658
     2014.69130         3.06364         4.51741
     2014.69404         4.37481         4.55739
     2014.69678         3.06898         4.57488
     2014.69952         4.60515         4.51658
     2014.70225         5.75632         4.50908
     2014.70499         1.89149         4.47660
     2014.70773         7.24966         4.59070
     2014.71047         8.83883         4.59570
     2014.71321         6.40200         4.47993
     2014.71594        -1.41283         4.55822
     2014.71868         6.02934         4.48910
     2014.72142         2.55552         4.52491
     2014.72416         3.73269         4.55572
     2014.72689         9.63686         4.67649
     2014.72963        16.77403         4.53823
     2014.73237         8.52320         4.59737
     2014.73511         6.94637         4.54573
     2014.73785        -1.06246         4.55239
     2014.74058         0.80371         4.55073
     2014.74332         7.06488         4.66649
     2014.74606         4.44805         4.51575
     2014.74880         2.83022         4.51242
     2014.75154         2.64939         4.64651
     2014.75427         2.52456         4.55406
     2014.75701         2.82674         4.70730
     2014.75975        -3.61209         4.60320
     2014.76249         3.96008         4.55073
     2014.76522         5.19925         4.53907
     2014.76796         8.95942         4.57571
     2014.77070         3.32459         4.56239
     2014.77344         2.73276         4.70980
     2014.77618         5.10793         4.62735
     2014.77891        -1.31790         4.48993
     2014.78165        13.45027         4.86888
     2014.78439         3.87144         4.60403
     2014.78713         8.60061         4.53240
     2014.78987         4.62878         4.57655
     2014.79260         4.60596         4.45745
     2014.79534         8.81713         4.64651
     2014.79808         7.29930         4.83806
     2014.80082         7.39947         4.59487
     2014.80355         4.58664         4.73895
     2014.80629         3.95981         4.69315
     2014.80903         2.33498         4.56822
     2014.81177         4.79715         4.47660
     2014.81451        10.16832         4.49409
     2014.81724         9.06349         4.61236
     2014.81998         4.22766         4.54490
     2014.82546         3.45600         4.53990
     2014.82820        -1.75682         4.54240
     2014.83093         5.07635         4.60903
     2014.83367        -0.56048         4.56239
     2014.83641        -2.03131         4.55572
     2014.83915         4.32786         4.57072
     2014.84188         6.83503         4.69648
     2014.84462         0.87520         4.70564
     2014.84736        -3.33363         4.77893
     2014.85010         1.54554         4.54490
     2014.85284        -0.36629         4.57821
     2014.85557        -0.79512         4.71647
     2014.85831        -0.52995         4.55656
     2014.86105        -3.00378         4.54490
     2014.86379        -1.00560         4.50825
     2014.86653        -2.59043         4.53240
     2014.86926        -0.53826         4.53657
     2014.87200        -3.33709         4.54157
     2014.87474        -2.05092         4.54240
     2014.87748        -3.65175         4.57072
     2014.88021         0.50142         4.57072
     2014.88295         2.57859         4.64984
     2014.88569         0.28776         4.80225
     2014.88843         6.23893         4.77310
     2014.89117         5.14710         4.80891
     2014.89390        -4.75573         4.74395
     2014.89664        -3.10556         4.71313
     2014.89938        -2.02038         4.70730
     2014.90212        -7.22821         4.69814
     2014.90485        -6.49004         4.62402
     2014.90759        -2.77187         4.66483
     2014.91033        -0.99070         4.54989
     2014.91307         0.71247         4.56822
     2014.91581         1.03264         4.56572
     2014.91854         4.04881         4.56822
     2014.92128        -2.94002         4.54906
     2014.92402         2.39215         4.55406
     2014.92676         0.93932         4.66233
     2014.92950        -5.64051         4.60653
     2014.93223        -6.97734         4.55822
     2014.93497        -5.61716         4.60736
     2014.93771        -9.39799         4.64567
     2014.94045        -9.73582         4.64984
     2014.94318        -4.06465         4.74312
     2014.94592        -7.51748         4.61069
     2014.94866       -11.64031         4.48826
     2014.95140        -8.70414         4.45078
     2014.95414        -1.84797         4.47744
     2014.95687        -4.14480         4.50492
     2014.95961        -0.97263         4.50325
     2014.96235        -0.72246         4.48327
     2014.96509         1.54271         4.67149
     2014.96783        -5.71012         4.48910
     2014.97056        -2.67194         4.53324
     2014.97330        -5.88577         4.48660
     2014.97604       -13.13860         4.58071
     2014.97878        -2.75443         4.59820
     2014.98151         0.98274         4.58904
     2014.98425        -6.69209         4.47494
     2014.98699        -3.77692         4.55406
     2014.98973        -5.18375         4.47161
     2014.99247        -0.94958         4.47660
     2014.99520       -10.14241         4.46328
     2014.99794        -2.03424         4.52657
     2015.00068        -2.91307         4.47244
     2015.00342        -5.90790         4.51908
     2015.00616       -10.38772         4.45578
     2015.00889        -3.58355         4.49659
     2015.01163        -3.77238         4.67482
     2015.01437        -2.34521         4.57155
     2015.01711        -2.75104         4.66066
     2015.01984        -3.78287         4.58987
     2015.02258         0.01330         4.66733
     2015.02532         1.00847         4.57155
     2015.02806        -1.17536         4.54490
     2015.03080        -1.65619         4.53990
     2015.03353        -5.77702         4.55989
     2015.03627        -5.39785         4.55156
     2015.03901         7.54032         4.64234
     2015.04175         5.11250         4.56322
     2015.04449        -4.14733         4.57571
     2015.04722         8.41584         4.66150
     2015.04996         1.47901         4.52907
     2015.05270        -6.34882         4.51658
     2015.05544        -8.11165         4.51825
     2015.05817         6.03152         4.54573
     2015.06091         2.53869         4.60070
     2015.06365         4.45886         4.65067
     2015.06639         5.12303         4.53407
     2015.06913        -2.50280         4.55822
     2015.07186         1.26637         4.67649
     2015.07460        -4.76646         4.53740
     2015.07734        -8.09328         4.51908
     2015.08008        -9.85811         4.47993
     2015.08282        -3.75394         4.53490
     2015.08555         3.96023         4.57821
     2015.08829         2.41040         4.59987
     2015.09103         2.41857         4.51075
     2015.09377        -2.36326         4.49576
     2015.09650         2.66091         4.51741
     2015.09924         6.68708         4.57655
     2015.10198         2.82625         4.54323
     2015.10472        -1.46658         4.54323
     2015.10746        -2.12841         4.49659
     2015.11019        -9.18124         4.60153
     2015.11293        -6.28006         4.62152
     2015.11567         3.99211         4.64068
     2015.11841        -0.04272         4.52657
     2015.12115        -4.28755         4.55656
     2015.12388        -3.84238         4.52158
     2015.12662        -1.21721         4.49659
     2015.12936        -0.97104         4.47577
     2015.13210         4.06213         4.52408
     2015.13483        -5.05270         4.56322
     2015.13757        -1.34753         4.67482
     2015.14031        -4.33236         4.53907
     2015.14305        -2.28919         4.50575
     2015.14579        -2.54802         4.50325
     2015.14852        -1.47384         4.63568
     2015.15126        -2.08167         4.53324
     2015.15400        -3.06850         4.55073
     2015.15674         0.97367         4.53074
     2015.15948        -0.08316         4.51575
     2015.16221        -1.44499         4.52408
     2015.16495         0.39918         4.52491
     2015.16769         2.24035         4.54906
     2015.17043         1.84152         4.55489
     2015.17316        -2.01731         4.61236
     2015.17590        -1.71614         4.63068
     2015.17864        -1.33597         4.49409
     2015.18138        -0.59480         4.50076
     2015.18412         6.22738         4.52907
     2015.18685         3.56755         4.49659
     2015.18959         2.47872         4.59903
     2015.19233         1.42389         4.64900
     2015.19507        -1.04594         4.51991
     2015.19780        -1.84577         4.53490
     2015.20054        -3.21760         4.46744
     2015.20328        -5.45243         4.47410
     2015.20602       -10.60526         4.64484
     2015.20876        -7.37009         4.55239
     2015.21149        -7.77792         4.51491
     2015.21423        -3.60475         4.64984
     2015.21697         0.09042         4.60986
     2015.21971        -3.24340         4.55406
     2015.22245        -1.92923         4.54906
     2015.22518        -3.75506         4.52574
     2015.22792        -4.89789         4.47993
     2015.23066        -3.88472         4.56072
     2015.23340        -8.23555         4.70314
     2015.23613        -2.91938         4.62902
     2015.23887        -4.45421         4.71480
     2015.24161        -2.76204         4.72230
     2015.24435        -4.14787         4.77143
     2015.24709        -2.28070         4.65900
     2015.24982        -0.26953         4.49992
     2015.25256        -1.27436         4.53657
     2015.25530        -2.94518         4.52574
     2015.25804        -5.45501         4.51325
     2015.26078         2.15616         4.53157
     2015.26351        -4.26267         4.50659
     2015.26625        -2.54150         4.50992
     2015.26899        -2.36733         4.51075
     2015.27173         1.77284         4.56489
     2015.27446        -0.63899         4.66150
     2015.27720        -0.38182         4.52408
     2015.27994        -2.41265         4.53074
     2015.28268        -1.84248         4.54490
     2015.28542        -1.07431         4.59404
     2015.28815        -6.27914         4.59737
     2015.29089        -5.71096         4.48993
     2015.29363        -3.86479         4.48327
     2015.29637        -4.33162         4.53240
     2015.29911        -2.25245         4.51242
     2015.30184         0.03672         4.45828
     2015.30458        -2.12311         4.49243
     2015.30732        -2.06594         4.49493
     2015.31006         0.21123         4.44579
     2015.31279        -5.99960         4.44995
     2015.31553        -6.04143         4.39665
     2015.31827        -4.47826         4.37583
     2015.32101         1.05991         4.52324
     2015.32375        -8.10092         4.40997
     2015.32648        -7.81074         4.53490
     2015.32922        -2.82857         4.50409
     2015.33196        -3.08740         4.38332
     2015.33470        -2.02923         4.38749
     2015.33744        -7.28006         4.42330
     2015.34017        -5.52889         4.40498
     2015.34291        -8.28272         4.41997
     2015.34565        -2.76155         4.37499
     2015.34839        -2.25038         4.40748
     2015.35112        -8.85021         4.38082
     2015.35386        -1.97204         4.45162
     2015.35660        -5.31187         4.43996
     2015.35934        -3.13070         4.47410
     2015.36208        -1.63052         4.47077
     2015.36481        -3.88835         4.37916
     2015.36755         0.17982         4.38582
     2015.37029        -1.53601         4.40331
     2015.37303        -3.52284         4.39582
     2015.37577        -2.30167         4.43413
     2015.37850        -9.23350         4.52657
     2015.38124        -6.62233         4.38082
     2015.38398        -5.39816         4.36750
     2015.38672        -1.69999         4.40748
     2015.38945        -4.89182         4.40414
     2015.39219        -1.44165         4.40165
     2015.39493         1.55152         4.40414
     2015.39767        -4.83630         4.35501
     2015.40041        -2.09213         4.40165
     2015.40314        -1.99196         4.50659
     2015.40588        -4.55779         4.39665
     2015.40862         0.41338         4.40248
     2015.41136         0.46555         4.38665
     2015.41410        -1.36828         4.38499
     2015.41683        -3.42711         4.36750
     2015.41957        -3.70394         4.38749
     2015.42231        -0.55977         4.39082
     2015.42505        -9.23460         4.53074
     2015.42778         1.02657         4.43912
     2015.43052        -1.96126         4.41331
     2015.43326        -4.21008         4.41914
     2015.43600        -0.18491         4.40581
     2015.43874         3.24426         4.39998
     2015.44147         6.54343         4.61069
     2015.44421        -0.87640         4.40081
     2015.44695        -0.80723         4.44162
     2015.44969        -3.34306         4.39498
     2015.45243         0.09811         4.47993
     2015.45516         3.25728         4.41997
     2015.45790         0.39245         4.49076
     2015.46064         3.32562         4.54906
     2015.46338         4.93179         4.53990
     2015.46611         3.80196         4.38582
     2015.46885         2.83714         4.42163
     2015.47159         5.71231         4.41331
     2015.47433        -1.33852         4.56072
     2015.47707        -1.07035         4.59737
     2015.47980         4.30482         4.50242
     2015.48254         4.60799         4.46661
     2015.48528         1.28116         4.45911
     2015.48802         4.59933         4.47077
     2015.49076        -0.27550         4.50825
     2015.49349         4.11767         4.49909
     2015.49623         3.96684         4.51075
     2015.49897        -0.45999         4.53990
     2015.50171         0.89218         4.44662
     2015.50444         1.37536         4.45828
     2015.50718         0.92453         4.43996
     2015.50992         8.73870         4.41331
     2015.51266         4.92487         4.46744
     2015.51540         3.95104         4.42080
     2015.51813         4.83221         4.39165
     2015.52087         6.54538         4.44412
     2015.52361         5.96155         4.56155
     2015.52635         2.19172         4.43246
     2015.52908         2.40889         4.47161
     2015.53182         3.39806         4.42247
     2015.53456         6.01323         4.45578
     2015.53730         3.12740         4.46494
     2015.54004         6.60558         4.52991
     2015.54277         4.15875         4.57821
     2015.54551        13.01292         4.56572
     2015.54825         7.87309         4.54906
     2015.55099         7.90326         4.51825
     2015.55373        11.63543         4.54073
     2015.55646        10.02960         4.53407
     2015.55920         7.56977         4.51575
     2015.56194        10.62594         4.53990
     2015.56468         4.07911         4.50325
     2015.56741         1.48728         4.52074
     2015.57015         7.46445         4.63651
     2015.57289         3.30262         4.66483
     2015.57563         4.64180         4.51158
     2015.57837         6.75197         4.50659
     2015.58110         3.47014         4.53823
     2015.58384         5.22331         4.56822
     2015.58658         9.32448         4.54406
     2015.58932        14.43865         4.59737
     2015.59206         8.36582         4.54573
     2015.59479         6.79499         4.50742
     2015.59753        12.65916         4.52907
     2015.60027        13.11433         4.64817
     2015.60301        10.17050         4.64651
     2015.60574         6.71167         4.61402
     2015.60848         9.52284         4.51408
     2015.61122         8.72502         4.60819
     2015.61396        15.12419         4.51741
     2015.61670         5.27436         4.41081
     2015.61943        11.86553         4.49326
     2015.62217         9.02270         4.42330
     2015.62491        16.15087         4.46911
     2015.62765         9.45604         4.44162
     2015.63039        14.80021         4.45412
     2015.63312        11.27438         4.66733
     2015.63586        15.06955         4.43496
     2015.63860         6.78672         4.39415
     2015.64134        13.40989         4.47827
     2015.64407         8.60606         4.42330
     2015.64681         8.10324         4.44829
     2015.64955         7.37541         4.45911
     2015.65229         6.80458         4.44995
     2015.65503        20.19075         4.59653
     2015.65776         1.76892         4.67399
     2015.66050         7.01609         4.45745
     2015.66324        13.03326         4.41997
     2015.66598        14.78243         4.65067
     2015.66872        12.00160         4.54740
     2015.67145        10.42477         4.46244
     2015.67419         1.89694         4.40498
     2015.67693         7.05111         4.42663
     2015.67967        12.43928         4.46161
     2015.68240         6.81446         4.42746
     2015.68514         5.86463         4.44829
     2015.68788         6.88180         4.45412
     2015.69062         8.38397         4.42080
     2015.69336         2.71614         4.56322
     2015.69609        10.19031         4.42746
     2015.69883         6.22848         4.46161
     2015.70157         8.66165         4.41414
     2015.70431         7.77682         4.46661
     2015.70705         8.19299         4.41247
     2015.70978        11.62516         4.40831
     2015.71252         4.27333         4.42580
     2015.71526         7.13050         4.44995
     2015.71800        12.97868         4.45578
     2015.72073        11.72585         4.46994
     2015.72347         3.40002         4.42413
     2015.72621         3.92519         4.51075
     2015.72895        -2.49664         4.47494
     2015.73169         4.99653         4.44495
     2015.73442        -0.13630         4.47161
     2015.73716         3.76787         4.43829
     2015.73990         8.97204         4.48826
     2015.74264         3.50321         4.51158
     2015.74538         7.07838         4.59653
     2015.74811         2.02755         4.58071
     2015.75085        -0.36128         4.42996
     2015.75359         1.06890         4.44745
     2015.75633         5.73107         4.42247
     2015.75906         5.00024         4.39665
     2015.76180         8.27941         4.43746
     2015.76454         9.74058         4.42663
     2015.76728         5.59475         4.55656
     2015.77002         4.09992         4.84389
     2015.77275         9.18809         4.61985
     2015.77549         8.78626         4.44495
     2015.77823         8.42543         4.54323
     2015.78097         4.72060         4.43246
     2015.78371         6.68477         4.46411
     2015.78644        10.49994         4.44246
     2015.78918         5.31312         4.40997
     2015.79192         8.78129         4.49576
     2015.79466         5.21746         4.45745
     2015.79739         7.02963         4.51658
     2015.80013         3.17680         4.59653
     2015.80287         9.25697         4.62818
     2015.80561         7.57114         4.50159
     2015.80835         0.30831         4.48743
     2015.81108         0.43548         4.53657
     2015.81382         8.63665         4.56155
     2015.81656         2.29582         4.41664
     2015.81930        -4.09701         4.47077
     2015.82203         8.81416         4.51741
     2015.82477         6.25734         4.61069
     2015.82751         3.97651         4.54573
     2015.83025         4.63968         4.64401
     2015.83299         6.18685         4.73396
     2015.83572         4.12802         4.46661
     2015.83846         0.21319         4.53157
     2015.84120        -3.88164         4.54656
     2015.84394         3.06053         4.52408
     2015.84668        -4.51830         4.50659
     2015.84941        -2.13313         4.67649
     2015.85215         2.98604         4.49659
     2015.85489         4.02321         4.47327
     2015.85763        -1.44862         4.51491
     2015.86036         4.58456         4.59070
     2015.86310         0.52973         4.51575
     2015.86584         0.09890         4.52158
     2015.86858        -1.86093         4.48327
     2015.87132        -3.29176         4.50492
     2015.87405        -8.06859         4.51325
     2015.87679        -4.85242         4.55656
     2015.87953         0.81175         4.57904
     2015.88227         3.20792         4.45495
     2015.88501       -10.15491         4.46578
     2015.88774        -6.59274         4.48743
     2015.89048         1.02043         4.48910
     2015.89322        -1.50240         4.54823
     2015.89596         2.96778         4.50659
     2015.89869        -0.45205         4.47077
     2015.90143        -6.27488         4.49409
     2015.90417        -4.36471         4.44579
     2015.90691        -3.62154         4.46661
     2015.90965        -1.45037         4.48576
     2015.91238        -3.19420         4.66649
     2015.91512        -5.63803         4.46994
     2015.91786        -2.34986         4.52324
     2015.92060        -0.28469         4.46161
     2015.92334        -4.28152         4.47993
     2015.92607        -4.05535         4.49659
     2015.92881        -9.00418         4.48410
     2015.93155        -2.99900         4.69564
     2015.93429        -0.56983         4.69481
     2015.93702         0.52034         4.62069
     2015.93976         7.23551         4.65733
     2015.94250         0.62968         4.60486
     2015.94524        -5.47215         4.57821
     2015.94798        -0.49798         4.55156
     2015.95071         0.14719         4.37916
     2015.95345        -6.23864         4.41331
     2015.95619        -2.86047         4.43996
     2015.95893        -4.53130         4.57405
     2015.96167        -0.13613         4.54240
     2015.96440         1.82104         4.48160
     2015.96714         1.28622         4.52324
     2015.96988         0.53839         4.43746
     2015.97262         6.29856         4.44745
     2015.97535        -0.10327         4.48576
     2015.97809        -1.23510         4.52824
     2015.98083        -1.36593         4.45328
     2015.98357        -5.93976         4.49493
     2015.98631        -5.66259         4.57738
     2015.98904        -1.52142         4.45911
     2015.99178        -7.75725         4.46494
     2015.99452        -3.73608         4.46411
     2015.99726        -0.62591         4.46661
     2016.00000        -0.55074         4.45911
     2016.00273        -4.58256         4.42497
     2016.00547        -1.16039         4.44579
     2016.00821        -0.87322         4.45661
     2016.01095         5.52995         4.45661
     2016.01368        -1.56288         4.47327
     2016.01642        -2.40471         4.54406
     2016.01916        -3.68854         4.65067
     2016.02190        -1.22337         4.53074
     2016.02464         0.80580         4.48660
     2016.02737        -4.13203         4.50492
     2016.03011         0.04414         4.43163
     2016.03285         4.56531         4.49909
     2016.03559         0.78648         4.43080
     2016.03833        -0.59234         4.56155
     2016.04106         0.07383         4.48077
     2016.04380         6.62700         4.56239
     2016.04654         2.77317         4.44079
     2016.04928        -1.49966         4.43746
     2016.05201        -6.21949         4.41081
     2016.05475        -1.77432         4.42663
     2016.05749        -2.00715         4.40914
     2016.06023        -6.34598         4.40248
     2016.06297         0.97519         4.40165
     2016.06570        -2.14864         4.51908
     2016.06844        -4.90647         4.63901
     2016.07118         2.23370         4.57988
     2016.07392        -1.35312         4.56155
     2016.07666         1.43905         4.60070
     2016.07939         4.36422         4.56322
     2016.08213        -2.90561         4.69648
     2016.08487        -3.87344         4.55406
     2016.08761       -10.11927         4.50659
     2016.09034        -5.78610         4.48993
     2016.09308        -1.82093         4.52491
     2016.09582        -7.40576         4.59987
     2016.09856       -13.00359         4.56072
     2016.10130       -10.47142         4.50992
     2016.10403        -9.87525         4.48160
     2016.10677        -8.66308         4.51075
     2016.10951       -10.29990         4.53324
     2016.11225       -11.70673         4.54823
     2016.11498        -8.02456         4.57655
     2016.11772        -7.84739         4.56489
     2016.12046        -7.12222         4.49826
     2016.12320        -7.60705         4.50242
     2016.12594       -10.59188         4.54406
     2016.12867        -0.47171         4.51325
     2016.13141         3.45846         4.51658
     2016.13415        -0.83537         4.45578
     2016.13689        -4.78420         4.51741
     2016.13963       -11.93803         4.51325
     2016.14236       -13.86186         4.48910
     2016.14510        -8.39068         4.45162
     2016.14784        -7.03551         4.48993
     2016.15058        -4.56034         4.44162
     2016.15331        -5.98917         4.54823
     2016.15605        -1.00800         4.41247
     2016.15879        -2.66883         4.57738
     2016.16153        -4.21666         4.57821
     2016.16427        -1.56349         4.49243
     2016.16700        -1.13132         4.52574
     2016.16974        -4.10015         4.49992
     2016.17248        -5.33098         4.63485
     2016.17522        -1.42481         4.53990
     2016.17796        -2.24764         4.59320
     2016.18069        -2.73546         4.54323
     2016.18343        -3.44329         4.65400
     2016.18617         1.17888         4.46328
     2016.18891        -4.81695         4.52324
     2016.19164        -7.02778         4.41331
     2016.19438         2.47839         4.42413
     2016.19712        -1.64244         4.39748
     2016.19986         0.26673         4.56988
     2016.20260        -7.16610         4.50575
     2016.20533       -10.74393         4.57904
     2016.20807        -4.52576         4.57488
     2016.21081        -4.56059         4.53324
     2016.21355        -2.34542         4.50492
     2016.21629        -7.56724         4.46578
     2016.21902        -1.96907         4.48576
     2016.22176         0.77010         4.35750
     2016.22450        -5.50173         4.41081
     2016.22724        -6.96956         4.44162
     2016.22997        -4.29039         4.37499
     2016.23271        -4.74322         4.39165
     2016.23545        -9.08305         4.40831
     2016.23819        -3.05888         4.40997
     2016.24093         1.31529         4.41081
     2016.24366        -2.41754         4.37833
     2016.24640        -3.82237         4.38166
     2016.24914        -4.94820         4.37166
     2016.25188         0.80398         4.41914
     2016.25462        -1.54085         4.46994
     2016.25735        -5.05468         4.45328
     2016.26009        -5.23151         4.49243
     2016.26283        -5.77634         4.42913
     2016.26557        -0.79517         4.49992
     2016.26830        -3.86000         4.41331
     2016.27104        -1.45583         4.38999
     2016.27378         0.72834         4.40914
     2016.27652        -4.24249         4.43080
     2016.27926        -0.80732         4.56822
     2016.28199        -8.82115         4.46911
     2016.28473        -6.30298         4.43579
     2016.28747        -9.28780         4.40831
     2016.29021        -4.13463         4.46161
     2016.29295        -4.85546         4.44662
     2016.29568        -3.77129         4.45328
     2016.29842        -1.44212         4.51741
     2016.30116        -2.74895         4.48327
     2016.30390        -6.41478         4.52408
     2016.30663         0.82939         4.44162
     2016.30937        -2.81244         4.43246
     2016.31211        -2.63227         4.43996
     2016.31485         1.96890         4.45162
     2016.31759        -0.24993         4.43163
     2016.32032        -4.74476         4.43579
     2016.32306        -6.88558         4.41830
     2016.32580        -5.52641         4.43912
     2016.32854        -0.57424         4.43829
     2016.33128        -4.93607         4.42497
     2016.33401        -1.81290         4.45162
     2016.33675        -4.61873         4.48910
     2016.33949        -0.85056         4.48576
     2016.34223        -0.95239         4.48327
     2016.34496        -0.31222         4.54490
     2016.34770        -0.49805         4.51491
     2016.35044         8.81212         4.57321
     2016.35318         0.10429         4.39248
     2016.35592        -8.02654         4.36916
     2016.35865        -4.79136         4.42913
     2016.36139        -4.18919         4.37499
     2016.36413         2.14998         4.43080
     2016.36687         2.29215         4.44995
     2016.36961         4.39532         4.37416
     2016.37234         9.61849         4.44662
     2016.37508         2.87266         4.40831
     2016.37782        -5.96217         4.41830
     2016.38056         3.57300         4.47077
     2016.38329         1.28117         4.38499
     2016.38603         0.33934         4.37833
     2016.38877         9.08651         4.39498
     2016.39151        -1.93032         4.35501
     2016.39425        -0.99514         4.38582
     2016.39698         8.46403         4.42080
     2016.39972        13.88720         4.46244
     2016.40246         0.86137         4.46744
     2016.40520        -4.88546         4.38582
     2016.40794        -2.31829         4.37833
     2016.41067        -5.76812         4.40498
     2016.41341        -1.35095         4.42163
     2016.41615        -3.22978         4.48410
     2016.41889        -6.60261         4.48243
     2016.42162        -2.60544         4.51825
     2016.42436        -5.25127         4.40414
     2016.42710         0.47990         4.40165
     2016.42984        -0.05092         4.40414
     2016.43258         2.11525         4.42247
     2016.43531         2.35642         4.44495
     2016.43805         4.41259         4.37250
     2016.44079        -1.02524         4.38749
     2016.44353        -0.68007         4.41914
     2016.44626        -1.36990         4.41830
     2016.44900         0.67627         4.42580
     2016.45174         0.53944         4.42247
     2016.45448         4.85661         4.39248
     2016.45722        -4.61822         4.35917
     2016.45995         4.61495         4.40914
     2016.46269         4.75712         4.39415
     2016.46543        -0.79770         4.41580
     2016.46817         0.57647         4.39665
     2016.47091         3.44064         4.43996
     2016.47364         1.04981         4.38166
     2016.47638         5.68998         4.42413
     2016.47912         2.71815         4.55739
     2016.48186         3.70532         4.44329
     2016.48459         1.98449         4.39831
     2016.48733         5.18866         4.36167
     2016.49007         2.60183         4.36667
     2016.49281         2.95500         4.41914
     2016.49555         3.20617         4.42163
     2016.49828         0.86034         4.42830
     2016.50102         0.96552         4.39665
     2016.50376         5.78969         4.52657
     2016.50650         6.97386         4.49159
     2016.50924         5.85803         4.39831
     2016.51197        -2.49180         4.41164
     2016.51471         2.82937         4.44162
     2016.51745         2.14654         4.53157
     2016.52019         0.21071         4.43413
     2016.52292         3.61088         4.39998
     2016.52566         2.64405         4.36667
     2016.52840         3.93022         4.40997
     2016.53114        -1.77761         4.40248
     2016.53388         0.61356         4.38082
     2016.53661         4.35674         4.39248
     2016.53935         1.17491         4.36417
     2016.54209         4.89908         4.38915
     2016.54483         6.75225         4.38582
     2016.54757         0.16242         4.35917
     2016.55030         2.92359         4.48910
     2016.55304         6.16476         4.36833
     2016.55578         6.74693         4.46827
     2016.55852         4.63510         4.44745
     2016.56125         7.24127         4.36833
     2016.56399         7.41844         4.37499
     2016.56673         6.61761         4.54823
     2016.56947         2.88378         4.48826
     2016.57221         5.67296         4.37499
     2016.57494         3.01113         4.51741
     2016.57768         5.53530         4.42080
     2016.58042         6.54647         4.35584
     2016.58316         2.09264         4.36167
     2016.58590         0.59381         4.38249
     2016.58863         4.65298         4.35001
     2016.59137         3.49815         4.38999
     2016.59411         8.82732         4.41580
     2016.59685        11.52249         4.39082
     2016.59958         5.09866         4.35917
     2016.60232         3.63683         4.40248
     2016.60506         4.70300         4.50325
     2016.60780         3.03518         4.35501
     2016.61054         8.33735         4.38582
     2016.61327         4.08252         4.37916
     2016.61601         2.14769         4.40831
     2016.61875         2.18386         4.40414
     2016.62149         1.87203         4.39998
     2016.62423         7.51920         4.48243
     2016.62696         7.18737         4.34001
     2016.62970         3.89654         4.36167
     2016.63244         0.72571         4.49742
     2016.63518         8.49688         4.35251
     2016.63791        19.96305         4.40831
     2016.64065        11.46522         4.36167
     2016.64339         2.50940         4.37333
     2016.64613        12.85157         4.42913
     2016.64887         5.52974         4.40664
     2016.65160         7.84591         4.47744
     2016.65434         2.06408         4.55572
     2016.65708         5.33425         4.40331
     2016.65982         5.54242         4.39915
     2016.66256         7.24459         4.44162
     2016.66529         4.84776         4.50159
     2016.66803         8.21593         4.43663
     2016.67077        12.80810         4.54823
     2016.67351         4.54627         4.35417
     2016.67624         6.01944         4.36000
     2016.67898        12.12362         4.36916
     2016.68172        11.78779         4.38166
     2016.68446         7.94496         4.55073
     2016.68720         8.09413         4.63068
     2016.68993         6.06530         4.44246
     2016.69267         5.34647         4.40331
     2016.69541         9.31064         4.41247
     2016.69815         4.97281         4.36833
     2016.70089         8.02498         4.34584
     2016.70362         4.56615         4.47327
     2016.70636         4.48232         4.61902
     2016.70910         6.94649         4.64651
     2016.71184        12.45066         4.42497
     2016.71457         8.97484         4.39248
     2016.71731         8.95501         4.43746
     2016.72005         8.04118         4.36250
     2016.72279         3.24635         4.36500
     2016.72553         9.10552         4.48077
     2016.72826         5.64669         4.62235
     2016.73100         3.17086         4.36750
     2016.73374         8.64203         4.39748
     2016.73648         3.28220         4.44495
     2016.73921         3.06137         4.44079
     2016.74195         2.05854         4.40165
     2016.74469         0.06071         4.36000
     2016.74743         2.35888         4.41081
     2016.75017         5.49006         4.43746
     2016.75290         2.59623         4.39998
     2016.75564         8.00040         4.37999
     2016.75838        10.78657         4.49493
     2016.76112         4.35774         4.40831
     2016.76386         3.50291         4.35251
     2016.76659         5.03608         4.52158
     2016.76933         7.35925         4.50325
     2016.77207         2.07242         4.39498
     2016.77481         3.28659         4.37666
     2016.77754         2.75576         4.36667
     2016.78028         0.48593         4.41747
     2016.78302         0.93710         4.52574
     2016.78576         4.43128         4.61153
     2016.78850         3.10145         4.45245
     2016.79123         4.89962         4.40664
     2016.79397         7.25979         4.41497
     2016.79671        -0.57104         4.41747
     2016.79945        -4.70087         4.45995
     2016.80219        -3.07970         4.50659
     2016.80492        -0.44353         4.37499
     2016.80766         4.59464         4.40831
     2016.81040         1.75481         4.47494
     2016.81314        -4.07002         4.57488
     2016.81587        -7.47385         4.46078
     2016.81861        -6.12868         4.47161
     2016.82135        -0.58950         4.51991
     2016.82409        -0.44133         4.39665
     2016.82683         1.27984         4.38582
     2016.82956        -3.04999         4.39748
     2016.83230        -0.04882         4.35584
     2016.83504         1.33835         4.37916
     2016.83778        -1.08948         4.39998
     2016.84052        -3.97231         4.44079
     2016.84325       -10.70214         4.49826
     2016.84599        -8.84797         4.50325
     2016.84873         2.00220         4.43663
     2016.85147        -1.74063         4.40664
     2016.85420        -2.91446         4.50242
     2016.85694        -2.33328         4.44162
     2016.85968        -3.05711         4.57155
     2016.86242         7.31906         4.52907
     2016.86516         2.53323         4.56489
     2016.86789        -0.34760         4.41997
     2016.87063         1.62357         4.45162
     2016.87337         2.76374         4.42413
     2016.87611         4.88091         4.39748
     2016.87885        -2.60792         4.40331
     2016.88158        -9.99775         4.39665
     2016.88432        -0.68458         4.44079
     2016.88706         0.06659         4.43829
     2016.88980         4.65376         4.42830
     2016.89253        -1.64406         4.34751
     2016.89527         3.93211         4.44412
     2016.89801        -2.74772         4.40997
     2016.90075        -4.73655         4.38832
     2016.90349        -1.68638         4.49159
     2016.90622        -0.20321         4.46411
     2016.90896        -0.73104         4.41580
     2016.91170         0.88013         4.43329
     2016.91444        -2.55170         4.45078
     2016.91718        -6.30553         4.53157
     2016.91991        -7.54936         4.51741
     2016.92265        -8.61719         4.46078
     2016.92539        -2.82102         4.40331
     2016.92813        -8.84084         4.44246
     2016.93086       -11.18767         4.40581
     2016.93360        -5.05550         4.40331
     2016.93634        -3.17133         4.39498
     2016.93908        -4.46616         4.51825
     2016.94182         5.95401         4.49243
     2016.94455        -7.10782         4.50659
     2016.94729        -2.94465         4.44662
     2016.95003        -4.54048         4.48576
     2016.95277        -4.30431         4.44995
     2016.95551        -2.41714         4.41414
     2016.95824        -1.30797         4.46244
     2016.96098        -0.47180         4.41747
     2016.96372        -6.14262         4.40498
     2016.96646        -9.45045         4.48243
     2016.96919        -0.80928         4.45495
     2016.97193        -6.03611         4.43163
     2016.97467        -2.93394         4.49409
     2016.97741         1.91523         4.38999
     2016.98015        -0.85060         4.38582
     2016.98288         0.01657         4.39332
     2016.98562        -0.36226         4.42663
     2016.98836         2.31191         4.47744
     2016.99110         1.94308         4.44162
     2016.99384         1.62825         4.38499
     2016.99657         1.49042         4.39498
     2016.99931         0.30760         4.40748
     2017.00205        -0.80723         4.40414
     2017.00479        -0.10306         4.42247
     2017.00752        -4.56789         4.41331
     2017.01026        -6.43472         4.37833
     2017.01300         3.70145         4.37499
     2017.01574        -0.30538         4.40997
     2017.01848        -0.86221         4.42663
     2017.02121        -0.08404         4.42913
     2017.02395         0.42713         4.42247
     2017.02669        -2.38170         4.44162
     2017.02943         3.01247         4.39665
     2017.03216        -3.04036         4.36833
     2017.03490        -3.58318         4.40498
     2017.03764        -5.11901         4.40331
     2017.04038        -3.75384         4.38915
     2017.04312        -3.24867         4.43329
     2017.04585         3.42050         4.68815
     2017.04859         3.26367         4.60320
     2017.05133         7.78984         4.44246
     2017.05407         4.09401         4.39248
     2017.05681         4.42218         4.37749
     2017.05954         0.31235         4.45745
     2017.06228        -2.41448         4.42580
     2017.06502        -4.63831         4.42580
     2017.06776        -6.62614         4.41664
     2017.07049        -6.55096         4.39915
     2017.07323        -7.25579         4.42247
     2017.07597        -8.67762         4.43829
     2017.07871        -3.53345         4.50992
     2017.08145        -6.16028         4.41747
     2017.08418        -9.46211         4.40498
     2017.08692        -4.47194         4.40498
     2017.08966        -4.39277         4.41497
     2017.09240        -7.50660         4.41331
     2017.09514        -2.05543         4.42913
     2017.09787        -1.14626         4.41081
     2017.10061        -1.42109         4.41997
     2017.10335        -9.06392         4.42163
     2017.10609        -6.66574         4.40165
     2017.10882        -0.32257         4.37416
     2017.11156        -0.57640         4.47910
     2017.11430       -13.07723         4.41747
     2017.11704       -16.12106         4.38915
     2017.11978        -9.23389         4.41997
     2017.12251        -9.48472         4.47410
     2017.12525        -4.55755         4.38332
     2017.12799        -1.06238         4.43996
     2017.13073         0.42079         4.41914
     2017.13347        -2.66404         4.38332
     2017.13620        -1.04187         4.43413
     2017.13894        -4.08270         4.36750
     2017.14168        -8.07552         4.40664
     2017.14442       -10.63335         4.44329
     2017.14715        -9.29318         4.43829
     2017.14989        -4.70501         4.40498
     2017.15263        -1.98684         4.40748
     2017.15537         2.05333         4.39165
     2017.15811        -1.60350         4.53074
     2017.16084        -2.81933         4.42913
     2017.16358       -10.41716         4.42497
     2017.16632        -6.62299         4.38499
     2017.16906        -6.25382         4.36916
     2017.17180        -5.91465         4.43080
     2017.17453        -7.63648         4.39998
     2017.17727        -8.65730         4.61236
     2017.18001        -7.26913         4.43413
     2017.18275        -8.22396         4.45162
     2017.18548        -7.40379         4.45245
     2017.18822       -11.52362         4.43246
     2017.19096        -7.85145         4.47410
     2017.19370        -7.14828         4.40165
     2017.19644        -4.87311         4.43413
     2017.19917        -6.76694         4.37333
     2017.20191        -1.86577         4.41664
     2017.20465        -6.98260         4.53490
     2017.20739        -6.49243         4.43246
     2017.21013        -3.22826         4.40498
     2017.21286        -6.91208         4.39082
     2017.21560        -5.94691         4.41747
     2017.21834         0.60426         4.45578
     2017.22108         0.55243         4.42913
     2017.22381        -5.13340         4.50659
     2017.22655        -2.15823         4.57405
     2017.22929        -7.87506         4.40331
     2017.23203        -4.89589         4.39082
     2017.23477        -4.17472         4.45245
     2017.23750       -11.16755         4.39165
     2017.24024       -10.98538         4.40831
     2017.24298       -12.04221         4.36417
     2017.24572        -6.55804         4.42580
     2017.24846        -8.31586         4.44412
     2017.25119        -8.72069         4.46411
     2017.25393        -7.93752         4.39415
     2017.25667        -6.25935         4.39665
     2017.25941        -4.05118         4.44079
     2017.26214        -5.85301         4.43829
     2017.26488         0.23316         4.45495
     2017.26762        -4.57967         4.37916
     2017.27036        -2.58750         4.39915
     2017.27310        -7.19933         4.43912
     2017.27583        -6.90216         4.41997
     2017.27857        -8.03599         4.43829
     2017.28131        -9.28182         4.41914
     2017.28405        -9.55164         4.40664
     2017.28679       -12.14147         4.38499
     2017.28952       -11.49130         4.43912
     2017.29226        -7.32913         4.42247
     2017.29500       -12.32396         4.41331
     2017.29774        -6.57979         4.44329
     2017.30047        -9.72862         4.39582
     2017.30321        -6.80145         4.37499
     2017.30595        -7.15028         4.44079
     2017.30869       -12.62911         4.39748
     2017.31143        -6.17994         4.36667
     2017.31416        -5.96977         4.38582
     2017.31690        -8.87060         4.38999
     2017.31964        -7.32542         4.52657
     2017.32238        -8.84725         4.46161
     2017.32512       -12.64308         4.40914
     2017.32785       -10.01691         4.40081
     2017.33059       -11.66574         4.37416
     2017.33333        -8.13857         4.40498
     2017.33607        -7.73840         4.39332
     2017.33880       -10.62823         4.41580
     2017.34154        -6.67206         4.54989
     2017.34428        -6.89589         4.40414
     2017.34702        -8.53672         4.40581
     2017.34976        -3.15355         4.37999
     2017.35249        -8.65038         4.39248
     2017.35523        -9.67320         4.46494
     2017.35797        -8.77203         4.43080
     2017.36071        -8.89286         4.40997
     2017.36344        -5.97669         4.41081
     2017.36618        -6.77052         4.44995
     2017.36892        -3.06635         4.38166
     2017.37166        -5.31818         4.44745
     2017.37440        -7.44301         4.35834
     2017.37713        -3.15684         4.41331
     2017.37987       -11.26867         4.44662
     2017.38261        -5.75550         4.44829
     2017.38535        -7.41533         4.39665
     2017.38809        -5.79816         4.42247
     2017.39082        -7.42598         4.52324
     2017.39356         2.35319         4.39831
     2017.39630        -1.81564         4.38166
     2017.39904        -2.11347         4.38915
     2017.40177        -2.71930         4.41414
     2017.40451        -4.86313         4.52408
     2017.40725        -3.20496         4.41414
     2017.40999        -5.02879         4.48160
     2017.41273        -4.25262         4.40914
     2017.41546        -0.88145         4.48077
     2017.41820        -2.99928         4.51325
     2017.42094        -5.46411         4.40081
     2017.42368        -6.27094         4.37999
     2017.42642        -3.95176         4.38416
     2017.42915        -1.34659         4.41830
     2017.43189         3.03258         4.48660
     2017.43463        -1.77725         4.42580
     2017.43737         2.93992         4.41997
     2017.44010        -3.07791         4.38999
     2017.44284         1.04526         4.45245
     2017.44558         5.07043         4.43080
     2017.44832         1.38660         4.42247
     2017.45106         6.59077         4.41830
     2017.45379         6.87494         4.60153
     2017.45653        -0.34189         4.52657
     2017.45927        -1.11772         4.44912
     2017.46201        -1.80054         4.42746
     2017.46475         1.17763         4.46244
     2017.46748        -7.05520         4.43996
     2017.47022        -2.96003         4.40414
     2017.47296         2.31414         4.41830
     2017.47570         0.15331         4.45495
     2017.47843        -1.64752         4.39582
     2017.48117         1.91365         4.40664
     2017.48391         0.59682         4.40165
     2017.48665         4.13399         4.39665
     2017.48939         2.65116         4.40248
     2017.49212         1.95533         4.38166
     2017.49486         0.47750         4.40997
     2017.49760        -2.41732         4.43413
     2017.50034         3.07685         4.47910
     2017.50308         4.25102         4.52324
     2017.50581        -1.08881         4.40081
     2017.50855         1.52536         5.12040
     2017.51129        -2.58547         5.38275
     2017.51403        -2.48730         4.56155
     2017.51676        -6.33813         4.46411
     2017.51950        -5.58996         4.62235
     2017.52224         2.56221         4.51991
     2017.52498        -2.32262         4.39415
     2017.52772        -1.82745         4.62818
     2017.53045        -1.52228         4.49493
     2017.53319        -3.75110         4.44412
     2017.53593         4.25707         4.44246
     2017.53867        -0.24976         4.53324
     2017.54141         6.62241         4.59487
     2017.54414         5.97358         4.41164
     2017.54688         1.82875         5.17870
     2017.54962        -2.85108         6.51627
     2017.55236         1.01609         8.86409
     2017.55509         3.95126         7.06345
     2017.55783         3.89343         6.33637
     2017.56057        -0.84039         5.82000
     2017.56329         8.49679         7.42658
     2017.56605         6.76894         8.20114
     2017.56878       -11.21188         7.59648
     2017.57152        10.21529         7.35662
     2017.57427        10.06045        30.97143
     2017.57695       -35.45933        44.60445
     2017.57968       -48.13914        82.28787
     2017.58198        -1.39752        58.53398
     2017.58528        -5.33793        31.32206
     2017.58795        -4.43069        15.01473
     2017.59051       -18.84034        26.12504
     2017.59351        21.84256        28.47869
     2017.59616         0.64982        39.07679
     2017.60196        12.79884        31.45948
     2017.60453       -10.33083        15.91838
     2017.60707        -3.14644        21.73755
     2017.60986        15.76867        19.59045
     2017.61261         9.67883        13.09916
     2017.61533        19.67702        27.30186
     2017.61853        11.74571        37.52101
     2017.62080        13.59136        18.64099
     2017.62332         3.65776        34.45527
     2017.62642        -9.52545        31.04389
     2017.62899        -2.06510        20.14180
     2017.63179       -10.82099        21.73255
     2017.63447       -13.51076        18.27204
     2017.63693        -8.04730        34.37281
     2017.64032        -4.82881        20.25673
     2017.64269        -8.12825        17.67404
     2017.64510        46.08326        73.61534
     2017.64794        -6.90269        45.06669
     2017.65117        -2.11202        10.25663
     2017.65344        -4.38536        15.96086
     2017.65649        16.40348        15.91255
     2017.65906         6.43982        47.85509
     2017.66144       -36.35463        17.21597
     2017.66744         5.01617         6.54708
     2017.66908        14.28948        17.21597
     2017.67303        14.23839        11.00536
     2017.67556        14.90878        36.55157
     2017.67733         1.25995         9.26969
     2017.68031         3.92587        11.41013
     2017.68393         9.95213         5.22118
     2017.68650         7.74747         5.10624
     2017.68925         3.96563         5.05127
     2017.69196         5.75183         5.94243
     2017.69463         1.21607         4.95883
     2017.69756        11.18104         5.46687
     2017.70020        11.21431         5.79668
     2017.70285         4.48257         6.52793
     2017.70588        -0.29256         5.15955
     2017.70820         2.72305         5.60596
     2017.71137         0.52377         4.99964
     2017.71389         9.55417         4.58904
     2017.71663         9.93734         4.61486
     2017.71844        -1.81754         8.10869
     2017.72202        -3.03824         5.89829
     2017.72838         2.20419        10.89709
     2017.73055         2.84595         5.38025
     2017.73305         3.26236         4.60320
     2017.73575        -0.08342         5.59929
     2017.73948        16.92772         9.53121
     2017.74127         3.78587         4.66400
     2017.74401        14.52004         4.60653
     2017.74674         0.70922         4.46244
     2017.74948         0.37239         4.46494
     2017.75222        -0.44844         4.40331
     2017.75496         2.19273         4.45412
     2017.75770         2.23990         4.52074
     2017.76043         1.76707         4.44246
     2017.76317         3.34324         4.57738
     2017.76591         5.19841         4.51908
     2017.76865         8.04658         6.21061
     2017.77138         0.87075         4.42163
     2017.77412         0.24292         4.81891
     2017.77686         7.31609         4.40081
     2017.77960         1.74426         4.37749
     2017.78212         0.49766         4.96549
     2017.78849        10.86808         6.49295
     2017.79055        -0.78805         4.44829
     2017.79314         7.14527         4.71980
     2017.79510        14.16024        74.84047
     2017.79911        17.11310         7.67144
     2017.80127         4.04687         5.27198
     2017.80796         1.49096         8.14117
     2017.80918        -9.37830         5.92910
     2017.81240        -3.27864         5.71839
     2017.81527         7.49941         6.04321
     2017.81766        -9.80706         5.12623
     2017.82165        -2.68220         9.60866
     2017.82326        -2.90085         4.75811
     2017.83292       -16.60484        51.29146
     2017.83436         6.59668         5.77253
     2017.83709         2.49785         5.23117
     2017.83983        -2.90898         4.55406
     2017.84257         3.72619         9.82604
     2017.84531        -0.71764         4.46994
     2017.84804        -6.29747         4.49243
     2017.85078        -1.95630         4.41747
     2017.85352         2.95388         4.43663
     2017.85626         4.09605         4.53157
     2017.85838        -2.31815         6.29889
     2017.86183         0.72728         4.69648
     2017.86447        -0.05744         4.41747
     2017.86639        -9.04142         6.96934
     2017.87544         4.41722         4.45078
     2017.87816         1.83241         4.46994
     2017.88090         5.18758         4.38332
     2017.88364         1.05775         4.41664
     2017.88637         1.67492         4.54823
     2017.88909         6.02811         5.25532
     2017.89185        -5.63073         5.78002
     2017.89446         0.44557         4.92801
     2017.89746         0.67847         4.72313
     2017.90006         2.43578         4.48576
     2017.90335         3.00338         5.86581
     2017.90548         0.09118         5.50268
     2017.91200        -3.21856         9.96679
     2017.91405         0.29332         5.14622
     2017.91649        -0.05220         4.44329
     2017.91912         3.35108         4.61153
     2017.92206        -2.05195         4.57238
     2017.92470        -4.64268         4.39748
     2017.92744        -3.80951         4.44162
     2017.93018        -9.62934         4.41747
     2017.93287        -5.08112         4.73895
     2017.95789        -2.85698         5.63511
     2017.96030         3.24054         4.42746
     2017.96303        -2.32229         8.60757
     2017.96577         3.83188         4.47327
     2017.96851         1.11705         4.43413
     2017.97078         0.09970         5.55349
     2017.97949        -0.60029         4.53240
     2017.98220        -2.02810         4.43496
     2017.98494        -5.85393         4.36750
     2017.98767        -7.46776         4.39415
     2017.99041        -4.32958         4.37833
     2017.99315        -1.37342         5.52434
     2017.99589        -4.38224         4.37499
     2017.99863        -5.60407         4.43663
     2018.00136        -9.53090         4.39165
     2018.00371        -9.37532         6.63787
     2018.01314        -9.07007         6.73614
     2018.01505        -2.08505         4.39082
     2018.01779         2.38812         4.76810
     2018.02053        -0.22471         4.45911
     2018.02327        -2.16454         4.37583
     2018.02600        -4.58637         4.37250
     2018.02871        -4.02217         4.41747
     2018.03215        -3.39172         5.88496
     2018.03417        -9.07980         4.57988
     2018.03791        -6.29567         7.88382
     2018.03969        -7.38151         4.41997
     2018.04243        -9.82634         4.50076
     2018.04517        -9.20717         4.46494
     2018.04791        -5.95600         4.46411
     2018.05065        -5.70883         4.46744
     2018.05338        -6.27766         4.43579
     2018.05612        -9.53349         4.43663
     2018.05869        -8.66915         4.80058
     2018.06221        -1.95078         5.79585
     2018.06433        -7.59298         4.49326
     2018.06707        -0.67680         4.50575
     2018.06965       -11.79947         4.77893
     2018.07294       -10.83787         5.18869
     2018.07490       -10.46689         5.33778
     2018.07803       -16.45413         4.53407
     2018.08076       -10.53395         4.61153
     2018.08350        -8.87378         4.45745
     2018.08513       -14.76347        10.13336
     2018.08990        -7.43139         8.35938
     2018.09088       -13.57541         7.87133
     2018.11914         2.66239        14.37760
     2018.12172        -3.52327         4.73979
     2018.12822       -12.83499         8.04123
     2018.13004         0.24212         5.41773
     2018.13278        -1.54871         4.49992
     2018.13552         3.30946         4.46328
     2018.13710        -2.75017        11.50674
     2018.15489       -12.28756         5.14622
     2018.15745        -0.49919         4.58071
     2018.16016        -5.70900         4.46411
     2018.16290        -4.20783         4.59653
     2018.16564        -4.72466         4.86971
     2018.16837        -8.88049         4.46578
     2018.17111        -5.96632         4.43413
     2018.17385        -6.53514         4.44495
     2018.17635        -8.42773         4.94883
     2018.18167        -3.27322         5.55598
     2018.18486        -4.30553         4.67316
     2018.18630       -10.60601        17.31592
     2018.20137         5.31142         4.78476
     2018.20377        -2.90407         4.83556
     2018.20670        -1.84610         4.46994
     2018.20944        -2.26992         4.46744
     2018.21218        -4.58075         4.46827
     2018.21492       -14.51158         4.53324
     2018.21765        -3.28141         4.69481
     2018.22039        -4.37324         4.39248
     2018.22313        -8.77407         4.40414
     2018.22587        -9.19190         4.41247
     2018.22861       -11.03473         4.38416
     2018.23134        -9.11156         4.36667
     2018.23408        -8.99639         4.40165
     2018.23672        -8.60311         4.54823
     2018.23956        -7.34805         4.67815
     2018.24230        -6.38088         4.41164
     2018.24497        -4.09364         4.46578
     2018.24778        -5.74054         4.41414
     2018.25051        -1.68536         4.42413
     2018.25325        -5.29419         4.37250
     2018.25598        -4.18902         4.41664
     2018.25872        -7.15685         4.49909
     2018.26122        -2.09543         5.06460
     2018.26438        -9.64270         4.99381
     2018.26694        -8.04734         4.33252
     2018.26967        -8.28817         4.45495
     2018.27241        -8.54800         4.90552
     2018.27515         1.67017         4.42330
     2018.27789        -0.38966         4.55156
     2018.28062        -9.79848         5.31112
     2018.28336       -11.22031         4.45078
     2018.28610        -7.28414         4.38249
     2018.28884        -4.88397         4.35750
     2018.29158        -2.87380         4.52657
     2018.29431        -8.16863         4.46661
     2018.29705        -6.19446         4.31836
     2018.29979        -8.96429         4.35750
     2018.30253        -4.78212         4.42996
     2018.30433        -1.59899         8.24111
     2018.32806        -8.82050         8.07787
     2018.32991        -0.13041         5.32445
     2018.33234        -2.16793         5.03212
     2018.33542        -3.47510         4.52158
     2018.33812        -1.50790         4.61902
     2018.34083         3.50030         4.83890
     2018.34951        -3.78867         5.29363
     2018.35169         2.01708         4.61652
     2018.35456         2.73912         4.40248
     2018.35700         0.38359         7.36828
     2018.36558         2.23873         5.00130
     2018.36831         0.46290         4.63068
     2018.37097        -2.74085         4.71813
     2018.37371        -0.04068         4.36167
     2018.37645        -2.18751         4.50242
     2018.37919        -0.75134         4.39831
     2018.38193        -0.97917         5.19036
     2018.38466         3.11200         4.46078
     2018.38740         2.56818         4.45995
     2018.39015         5.53033         4.50659
     2018.39288         1.11152         5.27281
     2018.39539         5.06692         4.92968
     2018.39835         4.64286         4.40414
     2018.40109         2.71403         4.37416
     2018.40383         2.81620         4.46161
     2018.40657         3.91637         4.33918
     2018.40930        11.95554         4.43163
     2018.41204         6.29571         4.34335
     2018.41478         2.80088         4.42413
     2018.41736        -3.99278         4.55572
     2018.42036        -2.33988         4.54073
     2018.42299         1.88540         4.38249
     2018.42573         3.27357         4.37499
     2018.42847         3.86974         4.45995
     2018.43121         0.25391         4.33752
     2018.43394        -2.62392         4.35584
     2018.43668         0.88025         4.57072
     2018.43942        -0.59358         4.39665
     2018.44216        -0.06041         4.65483
     2018.44490        -0.51624         4.51908
     2018.44763         2.45693         4.52408
     2018.45037         0.07010         4.66983
     2018.45320         2.32618         4.51741
     2018.45585         7.52044         4.91968
     2018.45859         3.45362         5.01130
     2018.46132        -3.09421         4.44412
     2018.46406         5.69696         4.39332
     2018.46680         2.18313         4.38332
     2018.46952        -2.38268         4.40997
     2018.47246         1.62727         4.82390
     2018.47501        -1.72236         4.37833
     2018.47775         1.85181         4.40498
     2018.48049        11.31998         4.70647
     2018.48323         1.15415         4.34501
     2018.48596        -2.13568         4.48743
     2018.48870        -0.07351         4.34335
     2018.49143         2.97667         4.35501
     2018.49418         5.46284         4.45412
     2018.49692         4.22201         4.48243
     2018.49838       -13.61451        22.85191
     2018.50258         1.76415         4.87887
     2018.50513         0.27852         4.48160
     2018.50787         4.41669         4.37416
     2018.51060        -3.85914         5.45604
     2018.51334        -0.24297         4.51908
     2018.51608        -0.58080         4.57072
     2018.51844         2.13877         5.00047
     2018.52213         2.06695         6.38801
     2018.52429         0.65371         4.40831
     2018.52703         2.79488         4.64401
     2018.53354        -0.21384        15.97002
     2018.53482         5.64184         5.69174
     2018.53810        -0.01856         8.14867
     2018.54145        -4.56302         7.91214
     2018.54346         4.65991         4.36583
     2018.54745         2.34579        16.07829
     2018.54893         8.04525         4.53990
     2018.55167         6.03042         4.77643
     2018.55411         5.94691         4.86388
     2018.56004         0.44978         5.30779
     2018.56263         6.05110         4.82724
     2018.56506         4.03858         4.89053
     2018.56834         5.77720         5.02379
     2018.57136         2.23008         6.56374
     2018.57363         7.26773         4.58904
     2018.57631         3.48896         4.57155
     2018.57905         9.14713         4.64734
     2018.58179         9.70830         4.45245
     2018.58453         8.90747         4.41247
     2018.58726         2.80464         4.33418
     2018.58999         6.34983         4.49409
     2018.59279         9.69493         5.81084
     2018.59534         4.80030         5.88413
     2018.59711         7.27846        16.77289
     2018.60996         9.82919         7.29665
     2018.61189         9.35719         4.43163
     2018.61421        -7.51220         8.83910
     2018.61820         4.81468        12.20801
     2018.62017         5.85464         4.59987
     2018.62360         0.51309         7.31748
     2018.62558         6.11104         4.75311
     2018.62818         0.35536         4.65067
     2018.63139         6.70504         5.64593
     2018.64014        26.34500        10.14835
     2018.64202        14.08606         4.66733
     2018.64476        10.47823         4.34751
     2018.64750         3.84840         4.40997
     2018.65023         8.86757         4.48077
     2018.65277         6.52595         4.88054
     2018.66151         4.65891         8.94654
     2018.66490         2.44542        10.15252
     2018.66668         6.36257         4.54823
     2018.66930         2.26387         5.07543
     2018.67299         4.87405         7.37911
     2018.67488         3.01511         4.35667
     2018.67760         7.48229         4.65650
     2018.68080         5.88598         5.97491
     2018.68309        -1.07338         7.44240
     2018.68581         7.04181         4.91135
     2018.68841         6.38512         5.04878
     2018.69404         7.63430         5.55265
     2018.69678         6.57647         4.44079
     2018.69951         0.81765         4.50409
     2018.70275         1.99730         6.49545
     2018.70471        -2.28073         5.00380
     2018.70755        -1.67366         4.97965
     2018.71634        -1.38774         5.24283
     2018.71841        -4.85488         4.99797
     2018.72792         1.93829         8.47098
     2018.72943         0.80573         4.92718
     2018.73265       -14.46560         5.58597
     2018.73513        -2.67616         4.54073
     2018.73785        -0.20097         4.37833
     2018.74058        -1.94780         4.38332
     2018.74332         7.16338         4.35251
     2018.74606         0.84155         4.34168
     2018.74880         0.81772         4.35584
     2018.75154        -0.14611         4.41331
     2018.75427        -0.27494         4.32752
     2018.75701        -0.99377         4.45328
     2018.75975         1.27440         4.36583
     2018.76249         0.44157         4.34418
     2018.76522         1.42374         4.48410
     2018.76796         0.95091         4.37166
     2018.77070         7.88408         4.39165
     2018.77344        -0.46475         4.35167
     2018.77618        -0.74358         4.33835
     2018.77891         8.70260         4.40331
     2018.78165        -2.24523         4.42663
     2018.78439         3.06994         4.34834
     2018.78713         1.61211         4.34918
     2018.78987        -5.22372         4.40414
     2018.79260        -2.83755         4.33918
     2018.79534         4.14262         4.38332
     2018.79808        -1.59321         4.34501
     2018.80082        -0.38304         4.40498
     2018.80355         6.58613         4.35501
     2018.80629         5.15430         4.46244
     2018.80903         2.27747         4.42663
     2018.81177         2.75264         4.63568
     2018.81451         1.08782         4.47494
     2018.81724         6.95199         4.51242
     2018.81998         4.37816         4.47993
     2018.82272         4.00333         4.41164
     2018.82546         5.43050         4.41247
     2018.82820         1.50667         4.36667
     2018.83093        -0.24416         4.43246
     2018.83367         1.49401         4.46244
     2018.83641        -3.54582         4.42746
     2018.83915         3.67235         4.38249
     2018.84188        -3.71548         4.44662
     2018.84462        -0.70931         4.43329
     2018.84736        -2.09214         4.39748
     2018.85010         3.45204         4.34918
     2018.85284        -5.96079         4.35917
     2018.85557        -0.35862         4.49992
     2018.85831        -6.70045         4.36167
     2018.86105        -3.82028         4.38416
     2018.86379        -3.09211         4.43579
     2018.86653         1.46906         4.40581
     2018.86926        -7.56877         4.42163
     2018.87200        -2.58360         4.37749
     2018.87474         1.68457         4.37499
     2018.87748        -2.72826         4.43829
     2018.88021        -1.40309         4.42247
     2018.88295        -0.72992         4.41164
     2018.88569        -1.78174         4.49076
     2018.88843        -0.67757         4.48160
     2018.89117        -0.61040         4.44412
     2018.89390        -1.08823         4.46911
     2018.89664        -8.93906         4.52491
     2018.89938        -3.18889         4.48410
     2018.90212        -0.24572         4.44995
     2018.90485         2.49745         4.50242
     2018.90759        -0.75938         4.45245
     2018.91033         1.88279         4.40414
     2018.91307        -0.95304         4.46078
     2018.91581         3.02413         4.44329
     2018.91854         4.35930         4.43996
     2018.92128        -0.14152         4.42330
     2018.92402        -1.38935         4.42580
     2018.92676         1.59782         4.39998
     2018.92950         3.61199         4.40165
     2018.93223         1.75216         4.56155
     2018.93497        -0.36967         4.53324
     2018.93771        -1.22450         4.48410
     2018.94045         1.17067         4.44829
     2018.94318         2.56084         4.37333
     2018.94592         4.13101         4.40581
     2018.94866        -1.30682         4.43080
     2018.95140         6.59035         4.61402
     2018.95414        10.14752         4.45412
     2018.95687         1.16570         4.39332
     2018.95961        -1.24513         4.38499
     2018.96235         2.07304         4.47827
     2018.96509        -0.36179         4.45495
     2018.96783        -0.33262         4.49243
     2018.97056         2.87155         4.48410
     2018.97330        -5.44728         4.44995
     2018.97604        -4.64011         4.44412
     2018.97878        -1.65594         4.37416
     2018.98151       -11.41977         4.39332
     2018.98425        -3.52960         4.61069
     2018.98699        -4.72343         4.44912
     2018.98973        -4.21526         4.40498
     2018.99247        -0.13708         4.50908
     2018.99520        -5.24691         4.50908
     2018.99794       -12.25974         4.47161
     2019.00068       -14.05657         4.47993
     2019.00342        -9.09440         4.47827
     2019.00616        -5.37123         4.41914
     2019.00889        -2.26606         4.53740
     2019.01163        -2.36589         4.44662
     2019.01437         2.74728         4.39165
     2019.01711         4.92645         4.54323
     2019.01984        -7.82938         4.41247
     2019.02258        -4.45821         4.42330
     2019.02532        -8.60804         4.46244
     2019.02806        -4.21686         4.44079
     2019.03080        -5.24369         4.54490
     2019.03353       -11.49052         4.34834
     2019.03627       -10.11635         4.38082
     2019.03901        -0.15918         4.42663
     2019.04175        -4.62901         4.33918
     2019.04449        -0.12584         4.37583
     2019.04722        -4.63467         4.50575
     2019.04996        -7.49650         4.55572
     2019.05270        -8.87033         4.57988
     2019.05544       -11.64516         4.46411
     2019.05817        -7.60999         4.52907
     2019.06091        -4.99082         4.45911
     2019.06365        -2.88564         4.42330
     2019.06639        -5.71547         4.44412
     2019.06913       -10.23030         4.54240
     2019.07186        -9.77813         4.51158
     2019.07460        -5.73996         4.35584
     2019.07734        -1.83579         4.34834
     2019.08008         0.56838         4.35667
     2019.08282        -1.96745         4.63568
     2019.08555        -2.15428         4.36250
     2019.08829         0.15289         4.36667
     2019.09103         1.18706         4.33668
     2019.09377         0.38023         4.32169
     2019.09650         5.45040         4.36916
     2019.09924         0.78458         4.40498
     2019.10198        -2.17825         4.41081
     2019.10472        -0.64908         4.38499
     2019.10746         1.47309         4.37583
     2019.11019        -3.32974         4.38249
     2019.11293         1.51543         4.46578
     2019.11567         5.60560         4.63901
     2019.11841         6.12877         4.34918
     2019.12115        12.01494         4.49076
     2019.12388         3.28911         4.47161
     2019.12662         2.99828         4.36250
     2019.12936        -1.03555         4.38999
     2019.13210        -2.28738         4.40331
     2019.13483        -5.37620         4.39915
     2019.13757        -1.00503         4.41331
     2019.14031         0.79314         4.35167
     2019.14305        -3.68169         4.41331
     2019.14579        -7.50752         4.46661
     2019.14852        -1.56335         4.39998
     2019.15126         0.23382         4.38749
     2019.15400        -1.46701         4.37999
     2019.15674        -3.59284         4.42580
     2019.15948        -5.32767         4.39582
     2019.16221        -5.21150         4.46911
     2019.16495        -3.02133         4.36750
     2019.16769        -5.43516         4.35251
     2019.17043        -6.60298         4.33918
     2019.17316        -5.10681         4.35084
     2019.17590        -0.67964         4.38332
     2019.17864        -4.78147         4.39665
     2019.18138        -6.12130         4.37166
     2019.18412        -9.45613         4.36333
     2019.18685        -4.06496         4.34251
     2019.18959        -6.52579         4.40748
     2019.19233        -0.94962         4.39748
     2019.19507        -5.74545         4.35584
     2019.19780        -7.27828         4.38249
     2019.20054        -6.85011         4.45245
     2019.20328       -10.58694         4.35001
     2019.20602       -10.94176         4.39415
     2019.20876       -10.25859         4.37833
     2019.21149        -6.95142         4.37166
     2019.21423        -2.85525         4.35917
     2019.21697        -4.29208         4.33252
     2019.21971        -1.58491         4.60819
     2019.22245        -3.92574         4.41997
     2019.22518        -6.86657         4.35001
     2019.22792        -6.17140         4.37250
     2019.23066       -10.73923         4.36084
     2019.23340        -4.63906         4.37250
     2019.23613        -7.38489         4.43579
     2019.23887       -10.65172         4.38999
     2019.24161       -11.24954         4.48160
     2019.24435        -6.02037         4.41081
     2019.24709        -8.62120         4.47744
     2019.24982        -2.85203         4.37749
     2019.25256        -3.84286         4.46661
     2019.25530        -2.30069         4.33085
     2019.25804        -8.26252         4.40414
     2019.26078         0.04365         4.37333
     2019.26351        -3.88918         4.46494
     2019.26625        -5.78601         4.40581
     2019.26899        -4.99984         4.46161
     2019.27173        -5.17467         4.53907
     2019.27446        -6.56150         4.28255
     2019.27720        -0.75632         4.46661
     2019.27994        -1.02915         4.39498
     2019.28268        -6.40498         4.44412
     2019.28542         2.80119         4.32835
     2019.28815        -1.97764         4.33502
     2019.29089        -2.68447         4.35167
     2019.29363        -2.92030         4.36250
     2019.29637        -2.38613         4.48243
     2019.29911         0.92504         4.39665
     2019.30184        -1.50379         4.35251
     2019.30458        -8.31962         4.35584
     2019.30732         0.97855         4.39665
     2019.31006         1.08672         4.43996
     2019.31279        -6.99710         4.45911
     2019.31553         3.49207         4.38665
     2019.31827        -3.82876         4.38249
     2019.32101        -2.87859         4.34168
     2019.32375        -7.31942         4.39998
     2019.32648        -4.08325         4.37749
     2019.32922        -2.29908         4.38665
     2019.33196        -3.04591         4.43413
     2019.33470        -4.34874         4.43246
     2019.33744        -0.45457         4.34751
     2019.34017        -4.38440         4.39248
     2019.34291         1.48777         4.36084
     2019.34565        -0.49106         4.46328
     2019.34839        -8.35988         4.40831
     2019.35112        -3.90471         4.35251
     2019.35386        -1.31654         4.36583
     2019.35660         0.01463         4.39498
     2019.35934         3.73780         4.36750
     2019.36208         0.46497         4.36000
     2019.36481         1.96614         4.40997
     2019.36755        -1.59669         4.38832
     2019.37029        -1.16652         4.37250
     2019.37303         5.83965         4.38915
     2019.37577         0.75282         4.47244
     2019.37850         1.44599         4.33169
     2019.38124         0.77516         4.42413
     2019.38398         3.59634         4.42830
     2019.38672         1.72951         4.40914
     2019.38945        -6.39332         4.35001
     2019.39219         6.22685         4.38082
     2019.39493         2.02302         4.34418
     2019.39767        -0.93181         4.38832
     2019.40041         4.48036         4.36500
     2019.40314         4.55953         4.35417
     2019.40588         5.65470         4.32086
     2019.40862         1.77687         4.34418
     2019.41136         5.04604         4.37833
     2019.41410         2.46621         4.41331
     2019.41683         6.52838         4.38332
     2019.41957         4.75656         4.36750
     2019.42231        -0.55027         4.57988
     2019.42505         4.58190         4.43329
     2019.42778         4.93307         4.51991
     2019.43052         4.42724         4.38999
     2019.43326         2.70741         4.38166
     2019.43600         0.02358         4.38999
     2019.43874         0.16275         4.47910
     2019.44147        -8.26808         4.43746
     2019.44421        -1.69591         4.45661
     2019.44695        -2.85374         4.49076
     2019.44969         2.58743         4.40914
     2019.45243         0.86560         4.43163
     2019.45516         1.60878         4.41414
     2019.45790        -2.48005         4.45828
     2019.46064        -1.55288         4.47327
     2019.46338         1.80529         4.63318
     2019.46611         4.64546         4.63818
     2019.46885         7.63463         4.55656
     2019.47159         4.88180         4.45745
     2019.47433         6.32897         4.45078
     2019.47707         4.39314         4.45162
     2019.47980         1.25831         4.45661
     2019.48254         1.53648         4.48826
     2019.48528        -2.01035         4.43912
     2019.48802        -0.66318         4.47161
     2019.49076        -0.80700         4.36583
     2019.49349        -0.15983         4.31919
     2019.49623         0.79734         4.37083
     2019.49897        -4.21449         4.40748
     2019.50171         1.38468         4.39332
     2019.50444         1.63585         4.37166
     2019.50718        -1.03798         4.39998
     2019.50992        -0.92681         4.34584
     2019.51266        -0.19464         4.39165
     2019.51540         2.68653         4.35001
     2019.51813         0.62870         4.38582
     2019.52087        -2.91713         4.39498
     2019.52361         0.05304         4.38999
     2019.52635        -2.00478         4.39748
     2019.52908        -1.69361         4.62568
     2019.53182        -4.80344         4.47993
     2019.53456        -2.57727         4.46994
     2019.53730        -1.66410         4.49326
     2019.54004         8.61607         4.54490
     2019.54277         6.57624         4.48493
     2019.54551         3.10441         4.64651
     2019.54825         2.72758         4.35750
     2019.55099         2.04075         4.42580
     2019.55373         4.26392         4.59820
     2019.55646         1.57409         4.49576
     2019.55920        -0.78374         4.56072
     2019.56194         1.25544         4.37000
     2019.56468        -4.59239         4.47993
     2019.56741        -4.49022         4.46827
     2019.57015        -4.72305         4.37583
     2019.57289         4.99012         4.46078
     2019.57563         6.32029         4.39082
     2019.57837         1.33846         4.45162
     2019.58110         4.10963         4.38999
     2019.58384         0.26880         4.60903
     2019.58658        -3.44903         4.38249
     2019.58932         3.08514         4.38249
     2019.59206         4.08431         4.40581
     2019.59479        -0.10652         4.37250
     2019.59753         2.96966         4.57488
     2019.60027         6.49783         4.56738
     2019.60301         2.35700         4.40831
     2019.60574         7.02417         4.54740
     2019.60848         5.25234         4.60486
     2019.61122         2.93651         4.43579
     2019.61396        -2.83632         4.50575
     2019.61670         4.98585         4.40248
     2019.61943         3.82602         4.36667
     2019.62217         8.38619         4.54406
     2019.62491         3.04636         4.33169
     2019.62765         3.83953         4.45162
     2019.63039        10.42370         4.42330
     2019.63312         0.29288         4.38082
     2019.63586        18.39205         4.79892
     2019.63860         5.10922         4.40831
     2019.64134         4.74139         4.52907
     2019.64407         5.05956         4.48243
     2019.64681         2.64173         4.42163
     2019.64955         0.41890         4.38832
     2019.65229         7.77307         4.37083
     2019.65503         0.03424         4.40914
     2019.65776        -0.82259         4.54157
     2019.66050         4.80758         4.53490
     2019.66324         4.95675         4.48327
     2019.66598        -0.65108         4.43163
     2019.66872         5.22110         4.38249
     2019.67145        -1.96473         4.40581
     2019.67419         0.75244         4.44246
     2019.67693        -1.94939         4.48576
     2019.67967        -0.79922         4.51575
     2019.68240         1.00095         4.42080
     2019.68514         6.59612         4.45162
     2019.68788         0.22029         4.51575
     2019.69062         3.66846         4.44329
     2019.69336        -2.71437         4.36916
     2019.69609         0.82480         4.52408
     2019.69883         3.51097         4.51658
     2019.70157        -2.23886         4.54989
     2019.70431         3.56932         4.52741
     2019.70705         2.54049         4.42746
     2019.70978         5.95366         4.62568
     2019.71252        -8.30717         4.38749
     2019.71526        -4.18300         4.35501
     2019.71800         0.69617         4.60819
     2019.72073         3.43634         4.65234
     2019.72347         3.16751         4.52907
     2019.72621        -1.28232         4.40414
     2019.72895         1.78785         4.41497
     2019.73169         4.30302         4.41164
     2019.73442         3.14819         4.63068
     2019.73716         1.61836         4.41664
     2019.73990         2.54154         4.52657
     2019.74264        -0.39529         4.42080
     2019.74538         0.26588         4.36084
     2019.74811        -1.48395         4.50492
     2019.75085        -0.71478         4.50325
     2019.75359         2.37839         4.63734
     2019.75633         1.06756         4.49326
     2019.75906         2.61573         4.36750
     2019.76180        -2.59510         4.36833
     2019.76454         0.77707         4.43496
     2019.76728         5.05324         4.52991
     2019.77002        -2.24959         4.46911
     2019.77275        -1.42042         4.51075
     2019.77549         0.20576         4.44662
     2019.77823         5.04593         4.51658
     2019.78097         1.11310         4.49909
     2019.78371         2.74027         4.51825
     2019.78644         0.72544         4.52741
     2019.78918         8.50561         4.64484
     2019.79192         8.06178         4.63068
     2019.79466         6.20595         4.53657
     2019.79739         0.60712         4.43579
     2019.80013         6.61329         4.51408
     2019.80287         5.06846         4.48743
     2019.80561        12.91263         4.82640
     2019.80835        -3.85420         4.51325
     2019.81108         0.00398         4.60403
     2019.81382         2.17415         4.63651
     2019.81656         1.27232         4.46328
     2019.81930         0.94049         4.45412
     2019.82203        -1.85534         4.47993
     2019.82477        -0.92017         4.50076
     2019.82751         1.02200         4.47744
     2019.83025         0.61617         4.60153
     2019.83299        -1.94066         4.52408
     2019.83572        -1.16949         4.50076
     2019.83846         6.29868         4.47660
     2019.84120         3.12285         4.48077
     2019.84395         2.50401         4.59653
     2019.84668        -4.79180         4.44912
     2019.84941        -3.61263         4.46661
     2019.85215        -1.42146         4.47744
     2019.85489        -1.76229         4.52907
     2019.85763        -2.64612         4.40748
     2019.86036        -0.02995         4.51825
     2019.86310        -4.83278         4.46328
     2019.86584         5.80839         4.56738
     2019.86858         3.43256         4.51825
     2019.87132         5.87773         4.66066
     2019.87405         3.73490         4.44329
     2019.87679         3.99007         4.71480
     2019.87953        -0.42476         4.51408
     2019.88227        13.32742         4.50575
     2019.88501         5.91659         4.46161
     2019.88774         3.31776         4.61069
     2019.89048         5.67893         4.50575
     2019.89322         8.24110         4.47744
     2019.89596        -4.88973         4.54989
     2019.89869         1.50444         4.44246
     2019.90143         3.99861         4.43996
     2019.90417         2.31278         4.43579
     2019.90691         2.89995         4.41331
     2019.90965        -0.30988         4.43746
     2019.91238         1.50129         4.41747
     2019.91512         5.24446         4.42830
     2019.91786        12.18964         4.45495
     2019.92060         3.43581         4.44912
     2019.92607         2.30515         4.41664
     2019.92881         4.77432         4.45911
     2019.93155         1.26949         4.42996
     2019.93429         3.27066         4.45495
     2019.93702         0.96383         4.44162
     2019.93976        -2.98400         4.49409
     2019.94250        -3.53283         4.41580
     2019.94524        -5.76466         4.47161
     2019.94798        -2.63649         4.53157
     2019.95071        -1.50932         4.68398
     2019.95345         0.69686         4.45078
     2019.95619         2.78403         4.44662
     2019.95893        -2.43880         4.42830
     2019.96167         0.66137         4.50242
     2019.96440         1.04854         4.55323
     2019.96714         0.38671         4.56988
     2019.96988        -1.75812         4.50409
     2019.97262        -2.22495         4.42163
     2019.97535        -5.09478         4.42247
     2019.97809        -5.82761         4.40748
     2019.98083        -1.08744         4.44329
     2019.98357        -4.69827         4.48243
     2019.98631        -2.49510         4.43080
     2019.98904        -4.72592         4.44995
     2019.99178        -5.62575         4.43329
     2019.99452        -1.39758         4.50742
     2019.99726         5.31159         4.52074
     2020.00000        10.72676         4.48160
     2020.00273        -1.07307         4.48160
     2020.00547        -3.07290         4.73396
     2020.00821        -1.24573         4.52574
     2020.01095         0.07344         4.53324
     2020.01368        -3.68739         4.54573
     2020.01642        -1.06122         4.57988
     2020.01916        -5.55205         4.51575
     2020.02190        -5.27688         4.51242
     2020.02464        -6.07870         4.57405
     2020.02737        -5.86653         4.51325
     2020.03011        -8.69736         4.51075
     2020.03285       -10.56019         4.44579
     2020.03559       -13.47002         4.34834
     2020.03833        -1.48685         4.39498
     2020.04106       -12.08168         5.82833
     2020.04380       -16.41351         4.48243
     2020.04592        -3.69970         6.19145
     2020.06679        -6.43127         9.75108
     2020.06844        -2.78597         4.83223
     2020.07118        -4.80980         6.95602
     2020.07392         4.34337         7.18588
     2020.07666        -3.93346         4.48910
     2020.07939        -6.86529         4.38665
     2020.08213        -7.97012         4.42247
     2020.08487        -5.08895         9.67446
     2020.08761        -5.58778         4.41914
     2020.09034        -5.99161         4.38416
     2020.09308        -2.94244         4.37833
     2020.09582        -1.74126         4.33252
     2020.09856        -1.67209         4.40081
     2020.10130        -6.90192         4.41580
     2020.10403        -4.54775         7.77805
     2020.10677        -6.62558         4.39998
     2020.10951       -10.25041         4.35501
     2020.11225        -2.49724         4.36583
     2020.11498        -3.68507         4.35501
     2020.11772        -7.25390         4.60819
     2020.12046        -4.63073         4.55489
     2020.12320        -3.96756         4.36916
     2020.12594        -7.71039         4.36333
     2020.12867       -10.71122         4.37749
     2020.13141        -5.99904         4.36000
     2020.13415        -5.43387         4.37250
     2020.13689        -4.88970         4.43996
     2020.13963        -3.32353         4.41580
     2020.14236        -1.80136         4.41580
     2020.14510        -1.18019         4.43746
     2020.14784        -5.10602         4.43329
     2020.15058        -7.34685         4.41414
     2020.15331        -6.22868         4.36250
     2020.15605        -7.37351         4.35584
     2020.15879        -3.63534         4.37083
     2020.16153        -3.09517         4.39582
     2020.16427        -0.75900         4.38332
     2020.16700        -0.31982         4.40165
     2020.16974         0.44235         4.41830
     2020.17248        -3.74748         4.42497
     2020.17522        -2.38431         4.38499
     2020.17796        -1.25214         4.37916
     2020.18069       -12.64797         4.40748
     2020.18343        -3.36880         4.32835
     2020.18617        -5.24263         4.34501
     2020.18891        -5.33346         4.45828
     2020.19164        -4.43529         4.43413
     2020.19438        -5.20212         4.44745
     2020.19712        -4.48895         4.42413
     2020.19986        -5.80078         4.42580
     2020.20260        -6.13060         4.42580
     2020.20533        -2.54743         4.43080
     2020.20807        -1.94926         4.45245
     2020.21081        -3.44509         4.43080
     2020.21355        -4.61892         4.85305
     2020.21629        -2.57075         4.62402
     2020.21902        -6.90258         4.49409
     2020.22176        -7.02241         4.42497
     2020.22450         0.81076         4.46411
     2020.22724        -0.00207         4.46744
     2020.22997        -0.71990         4.42580
     2020.23271        -5.17473         4.44662
     2020.23545        -0.90956         4.41331
     2020.23819        -2.80838         4.40914
     2020.24093        -2.70321         4.45578
     2020.24366        -2.79704         4.51491
     2020.24640        -4.86887         4.45328
     2020.24914       -10.77170         4.46244
     2020.25188        -7.31253         4.41664
     2020.25462        -4.95636         4.45245
     2020.25735        -1.37819         4.41747
     2020.26009         5.75798         4.41830
     2020.26283         2.10715         4.41580
     2020.26557        -6.34368         4.44662
     2020.26830        -3.68551         4.46911
     2020.27104        -4.34434         4.44329
     2020.27378        -0.74616         4.45328
     2020.27652         3.40501         4.43579
     2020.27926        -0.91082         4.50659
     2020.28199        -0.72765         4.52408
     2020.28473        -4.02648         4.49742
     2020.28747        -1.12331         4.50325
     2020.29021        -3.43614         4.43996
     2020.29295        -5.01797         4.41830
     2020.29568         0.80620         4.40831
     2020.29842         2.95337         4.41497
     2020.30116         2.38354         4.44495
     2020.30390         0.68571         4.46244
     2020.41341         1.34254         4.39582
     2020.41615        -4.37228         4.35417
     2020.41889        -4.48211         4.38665
     2020.42162        -6.72594         4.38082
     2020.42436        -2.48677         4.56072
     2020.42710         0.83840         4.64151
     2020.42984        -4.11543         4.41914
     2020.43258         1.81474         4.49076
     2020.43531         0.97591         4.46911
     2020.43805        -2.97292         4.52491
     2020.44079        -1.68675         4.47494
     2020.44353        -1.73058         4.53574
     2020.44626        -2.36341         4.42330
     2020.44900         1.00376         4.41414
     2020.45174         1.19494         4.38166
     2020.45448         2.76711         4.44662
     2020.45722        -0.67172         4.37499
     2020.45995         1.16245         4.34751
     2020.46269        -2.75738         4.39665
     2020.46543        -2.05621         4.39415
     2020.46817         4.98696         4.46661
     2020.47091         2.03313         4.37333
     2020.47364        -4.23470         4.40331
     2020.47638        -0.62153         4.37499
     2020.47912        -1.83736         4.40664
     2020.48186        -1.50019         4.38915
     2020.48459         1.65798         4.60070
     2020.48733         6.74116         4.52074
     2020.49007         2.17033         4.49326
     2020.49281         1.31150         4.44829
     2020.49555         0.44967         4.44745
     2020.49828         1.36684         4.37749
     2020.50102        -1.18899         4.37250
     2020.50376        -0.49182         4.39915
     2020.50650        -4.21965         4.33918
     2020.50924        -3.96448         4.37333
     2020.51197        -3.18131         4.37000
     2020.51471         0.51686         4.36417
     2020.51745        -2.02997         4.34085
     2020.52019         5.65320         4.50242
     2020.52292         2.89038         4.46244
     2020.52566        -1.98145         4.50575
     2020.52840         5.36472         4.46661
     2020.53114         0.05389         4.46161
     2020.53388         2.18506         4.46161
     2020.53661        -3.12977         4.52158
     2020.53935         2.59640         4.52741
     2020.54209        -1.83143         4.47993
     2020.54483        -1.77826         4.45911
     2020.54757         4.43591         4.45245
     2020.55030         0.99908         4.46661
     2020.55304        -1.44575         4.54323
     2020.55578        -0.09858         4.45412
     2020.55852         7.53360         4.44912
     2020.56125         6.25177         4.49659
     2020.56399         2.80094         4.44995
     2020.56673         1.03711         4.44495
     2020.56947         2.89528         4.43996
     2020.57221         1.42545         4.75311
     2020.57494         4.97062         4.54823
     2020.57768        -0.44521         4.49493
     2020.58042        -2.46304         4.60736
     2020.58316        -3.13087         4.59320
     2020.58590        -0.41470         4.49659
     2020.58863        -2.18153         4.50992
     2020.59137         3.30564         4.45995
     2020.59411         9.80382         4.50575
     2020.59685         1.36899         4.79059
     2020.59958         0.41416         4.55156
     2020.60232         3.54333         4.49243
     2020.60506         2.27450         4.53990
     2020.60780        -1.02333         4.55822
     2020.61054         2.62584         4.53407
     2020.61327         3.56801         4.48327
     2020.61601         3.62818         4.47993
     2020.61875        -1.28965         4.48243
     2020.62149        -2.13748         4.48826
     2020.62423         6.95169         4.55489
     2020.62696         1.43986         4.60903
     2020.62970         1.19204         4.49909
     2020.63244         2.32221         4.51242
     2020.63518         2.71138         4.66400
     2020.63791        -3.15945         4.91635
     2020.64065         0.16572         4.54406
     2020.64339        -4.65811         4.51242
     2020.64613         1.47306         4.48743
     2020.64887         3.80923         4.49493
     2020.65160         1.28640         4.45911
     2020.65434        -0.23343         4.50575
     2020.65708         4.02574         4.54323
     2020.65982         2.21591         4.55822
     2020.66256         4.95408         4.43496
     2020.66529         6.42226         4.56988
     2020.66803         4.59343         4.55656
     2020.67077        10.01660         4.76311
     2020.67351         2.58177         4.46911
     2020.67624         2.66194         4.44329
     2020.67898        -1.94489         4.53740
     2020.68172        -0.01972         4.55156
     2020.68446         0.80945         4.55073
     2020.68720        -1.84538         4.52741
     2020.68993         3.16679         4.45245
     2020.69267         5.02096         4.53157
     2020.69541         7.21613         4.69148
     2020.69815         2.70730         4.55239
     2020.70089        -1.49752         4.43163
     2020.70362         0.36065         4.49826
     2020.70636         0.95682         4.74562
     2020.70910        -0.68901         4.84889
     2020.71184         9.89116         4.73979
     2020.71457         3.73833         4.73729
     2020.71731        -2.99550         4.58404
     2020.72005        -2.41533         4.55906
     2020.72279         1.55984         4.53990
     2020.72553        10.66501         4.68815
     2020.72826         6.75418         4.95466
     2020.73100         4.82035         4.74145
     2020.73374        10.39452         4.64651
     2020.73648         6.20070         4.53407
     2020.73921         1.45987         4.58404
     2020.74195         0.72304         4.47077
     2020.74469        -0.52979         4.46411
     2020.74743         0.89138         4.48243
     2020.75017         3.30955         4.50076
     2020.75290         8.37072         4.58737
     2020.75564         1.14889         4.46078
     2020.75838         3.53206         4.62319
     2020.76112         2.95223         4.46411
     2020.76386        -2.81360         4.46578
     2020.76659         1.43457         4.42913
     2020.76933         7.87974         4.60236
     2020.77207         1.94492         4.45578
     2020.77481         6.32609         4.54740
     2020.77754        10.12326         4.54323
     2020.78028         0.53843         4.51991
     2020.78302         7.44860         4.62319
     2020.78576         3.75477         4.53240
     2020.78850        -4.31506         4.46744
     2020.79123        -1.67489         4.54073
     2020.79397         1.67928         4.53157
     2020.79671         0.02745         4.54656
     2020.79945         0.17062         4.51991
     2020.80219         0.66179         4.60819
     2020.80492        -1.06404         4.49659
     2020.80766        -0.79786         4.49659
     2020.81040         2.25131         4.51325
     2020.81314         3.53548         4.46994
     2020.81587        -0.36635         4.45162
     2020.81861         5.97182         4.50659
     2020.82135        -0.70201         4.40997
     2020.82409         3.94416         4.45661
     2020.82683        -1.23267         4.53407
     2020.82956         5.27750         4.68565
     2020.83230         1.68467         4.58821
     2020.83504        -1.58516         4.58821
     2020.83778         2.56901         4.49243
     2020.84052         9.13918         4.67232
     2020.84325         4.74236         4.74728
     2020.84599        -1.36247         4.76894
     2020.84873         4.87470         4.46411
     2020.85147        -2.08513         4.45661
     2020.85420         8.34604         4.44745
     2020.85694        10.62521         4.54906
     2020.85968         6.21438         4.46578
     2020.86242         8.35255         4.48660
     2020.86516         5.39272         4.56988
     2020.86789        12.23289         4.66983
     2020.87063        14.13206         4.52991
     2020.87337        13.19423         4.63318
     2020.87611         8.33040         4.71647
     2020.87885        12.33157         4.70980
     2020.88158         7.49975         4.58238
     2020.88432        11.16092         4.52408
     2020.88706         4.36309         4.69648
     2020.88980         1.06726         4.61819
     2020.89253         2.20843         4.59070
     2020.89527         8.47960         4.69148
     2020.89801         6.11177         4.71397
     2020.90075         4.98694         4.55572
     2020.90349         5.47811         4.52574
     2020.90622         3.30828         4.51575
     2020.90896         0.11145         4.73562
     2020.91170         1.52562         4.73645
     2020.91444         3.81079         4.68565
     2020.91718         1.27197         4.51075
     2020.91991        -4.86786         4.53240
     2020.92265        -6.66169         4.76727
     2020.92539        -0.40052         4.51075
     2020.92813       -11.68135         4.53240
     2020.93086        -2.08318         4.57072
     2020.93360        -0.16001         4.52574
     2020.93634        -2.59184         4.53240
     2020.93908        -4.43767         4.54073
     2020.94182        -7.16550         4.48493
     2020.94455        -1.11233         4.49742
     2020.94729        -7.58716         4.43746
     2020.95003        -6.08399         4.54823
     2020.95277        -8.25881         4.53157
     2020.95551        -3.60464         4.52824
     2020.95824        -3.93747         4.50409
     2020.96098        -5.22330         4.51825
     2020.96372        -7.88413         4.50409
     2020.96646        -8.29496         4.54490
     2020.96919        -2.92179         4.64817
     2020.97193        -4.53462         4.45828
     2020.97467        -3.66445         4.52991
     2020.97741       -12.86928         4.53074
     2020.98015        -6.33511         4.62568
     2020.98288        -2.14094         4.69398
     2020.98562         1.98623         4.50242
     2020.98836         5.67141         4.51075
     2020.99110        -0.75842         4.40997
     2020.99384        -2.33825         4.42247
     2020.99657        -0.49508         4.46411
     2020.99931        -0.04691         4.40914
     2021.00205        -3.05474         4.50575
     2021.00479         4.63543         4.40914
     2021.00752         3.25860         4.46994
     2021.01026         2.52177         4.46578
     2021.01300        -1.79506         4.46328
     2021.01574         0.34711         4.49659
     2021.01848        -6.33072         4.43829
     2021.02121        -8.05355         4.49493
     2021.02395        -5.50237         4.43080
     2021.02669       -12.91120         4.51408
     2021.02943        -3.95703         4.52158
     2021.03216        -0.57386         4.49992
     2021.03490         5.37231         4.50825
     2021.03764        -9.57852         4.43413
     2021.04038        -6.46035         4.55572
     2021.04312        -7.44018         4.45495
     2021.04585         0.74199         4.42663
     2021.04859        -4.71584         4.43163
     2021.05133        -9.76167         4.47327
     2021.05407        -1.46850         4.73729
     2021.05681        -2.41333         4.55739
     2021.05954        -7.74315         4.46244
     2021.06228        -7.73698         4.43496
     2021.06502        -3.10081         4.42497
     2021.06776         3.14136         4.46661
     2021.07049        -4.16647         4.44079
     2021.07323        -5.52230         4.45078
     2021.07597        -8.22413         4.42746
     2021.07871        -3.80796         4.45745
     2021.08145        -1.47479         4.47660
     2021.08418       -10.03662         4.44829
     2021.08692        -9.80345         4.46078
     2021.08966        -1.88928         4.45661
     2021.09240       -10.83211         4.41247
     2021.09514       -11.52993         4.52241
     2021.09787        -5.16876         4.58737
     2021.10061        -2.65359         4.47494
     2021.10335        -7.15742         4.48993
     2021.10609        -7.78425         4.42996
     2021.10882        -6.92808         4.40081
     2021.11156       -11.45791         4.43746
     2021.11430        -9.72874         4.47660
     2021.11704        -5.90357         4.46827
     2021.11978        -4.91740         4.42080
     2021.12251        -5.67723         4.40498
     2021.12525        -5.55806         4.40748
     2021.12799       -12.19689         4.42996
     2021.13073        -8.47071         4.48327
     2021.13347        -7.88254         4.55073
     2021.13620        -6.04837         4.55156
     2021.13894        -6.21320         4.48243
     2021.14168        -9.91103         4.41747
     2021.14442        -2.83786         4.49076
     2021.14715        -9.43369         4.51575
     2021.14989       -10.91352         4.42996
     2021.15263        -8.67735         4.57155
     2021.15537        -7.93718         4.52158
     2021.15811        -7.60601         4.67399
     2021.16084        -7.24384         4.53657
     2021.16358        -6.02867         4.58154
     2021.16632        -0.47449         4.56239
     2021.16906        -3.98732         4.42413
     2021.17180        -5.73715         4.47910
     2021.17453        -4.68698         4.58404
     2021.17727        -9.68881         4.62485
     2021.18001        -5.68864         4.55323
     2021.18275       -14.42547         4.65067
     2021.18548       -10.34930         4.43246
     2021.18822        -9.43213         4.42330
     2021.19096        -7.78996         4.43663
     2021.19370        -8.71979         4.52074
     2021.19644       -10.85962         4.42247
     2021.19917        -7.98045         4.46328
     2021.20191        -9.48627         4.39831
     2021.20465        -3.41110         4.42913
     2021.20739        -4.81793         4.46494
     2021.21013        -4.79776         4.52241
     2021.21286        -2.62359         4.58737
     2021.21560        -5.79942         4.40331
     2021.21834        -8.80325         4.41664
     2021.22108        -7.53808         4.42913
     2021.22381       -13.47391         4.39082
     2021.22655        -8.89874         4.44495
     2021.22929        -2.63957         4.39665
     2021.23203        -3.41740         4.44412
     2021.23477       -11.25223         4.42580
     2021.23750        -5.64205         4.44329
     2021.24024        -9.35688         4.44329
     2021.24298        -5.70371         4.38249
     2021.24572       -10.68354         4.41331
     2021.24846        -7.98037         4.55989
     2021.25119        -5.21820         4.40498
     2021.25393        -2.90103         4.43413
     2021.25667        -8.27586         4.44579
     2021.25941        -6.94269         4.42330
     2021.26214        -6.38152         4.41580
     2021.26488        -2.71435         4.43579
     2021.26762        -5.93418         4.51408
     2021.27036        -4.27301         4.49992
     2021.27310        -5.96283         4.45995
     2021.27583        -7.69766         4.42247
     2021.27857        -3.29549         4.56572
     2021.28131        -5.43732         4.49326
     2021.28405        -3.55715         4.49493
     2021.28679        -3.62498         4.58154
     2021.28952        -1.51881         4.52574
     2021.29226        -4.68064         4.55572
     2021.29500         2.11753         4.49742
     2021.29774        -3.29830         4.59154
     2021.30047        -1.87813         4.48826
     2021.30446        27.25976        21.13873
     2021.30595        10.82821         4.67649
     2021.30869        14.19939         4.64317
     2021.31143         7.04556         4.42996
     2021.31416         8.52773         4.39582
     2021.31690         7.77090         4.40997
     2021.31964         4.19807         4.54823
     2021.32238         2.39924         4.56822
     2021.32512         2.51041         4.46078
     2021.32785         5.79358         4.56738
     2021.33059        10.26575         4.39915
     2021.33333         8.14992         4.44662
     2021.33607         6.41609         4.44412
     2021.33880         0.44726         4.43996
     2021.34154        -2.11657         4.42580
     2021.34428         5.27061         4.60070
     2021.34702         0.56878         4.46911
     2021.34976         2.70195         4.47494
     2021.35249         2.89812         4.46578
     2021.35523        -0.89571         4.44579
     2021.35797        -0.76754         4.43080
     2021.36071         0.06463         4.44246
     2021.36344         0.56980         4.41331
     2021.36618        -6.75703         4.44162
     2021.36892         0.60214         4.45245
     2021.37166         2.88031         4.41247
     2021.37440         0.34048         4.44079
     2021.37713         0.27165         4.47910
     2021.37987        -0.09817         4.54989
     2021.38261        -0.22100         4.68981
     2021.38535         0.56117         4.58071
     2021.38809         2.36734         4.49992
     2021.39082         9.77651         4.58071
     2021.39356         3.45068         4.41081
     2021.39630         2.64685         4.44579
     2021.39904         3.96402         4.47327
     2021.40177         8.92519         4.53574
     2021.40451         1.70636         4.55323
     2021.40725        -0.56947         4.46078
     2021.40999         2.56570         4.49992
     2021.41273         4.21587         4.51491
     2021.41546         3.59905         4.44995
     2021.41820         2.41922         4.48743
     2021.42094         6.91339         4.51908
     2021.42368         3.39956         4.42497
     2021.42642        -0.36827         4.46244
     2021.42915         7.74090         4.43329
     2021.43189         9.40507         4.44495
     2021.43463        -2.38976         4.41497
     2021.43737         0.13441         4.43579
     2021.44010         3.98858         4.55323
     2021.44284         1.06075         4.52824
     2021.44558         3.27592         4.53740
     2021.44832         7.13909         4.62902
     2021.45106         6.68427         4.55073
     2021.45379        10.10644         4.52074
     2021.45653         6.37461         4.52741
     2021.45927         5.66878         4.46744
     2021.46201         5.92195         4.46911
     2021.46475         4.39912         4.42913
     2021.46748         7.51329         4.43163
     2021.47022         7.07146         4.50409
     2021.47296         1.70663         4.56905
     2021.47570         5.53380         4.52657
     2021.47843         5.52897         4.48327
     2021.48117        -2.48086         4.46661
     2021.48391         0.53431         4.44079
     2022.05984        -9.58884         8.30108
     2022.06160        -4.51565         4.62152
     2022.06433        -3.55848         4.70397
     2022.06707        -3.80131         4.58571
     2022.06981         0.23986         4.55906
     2022.07255        -9.99297         4.51158
     2022.07529         0.96120         4.54823
     2022.07802         2.20837         4.55906
     2022.08076         2.98954         4.57571
     2022.08350         1.01671         4.53823
     2022.08624        -0.00112         4.53157
     2022.08898         3.07805         4.54823
     2022.09171        -0.24077         4.53157
     2022.09445        -0.85060         4.57405
     2022.09719        -4.06043         4.51075
     2022.09993        -6.20626         4.66983
     2022.10266         5.61891         4.88637
     2022.10540         3.63708         4.61486
     2022.10814         7.32625         4.64068
     2022.11088         6.69842         4.54323
     2022.11362         2.47759         4.51575
     2022.11635         4.74276         4.51825
     2022.11909         4.11893         4.52324
     2022.12183         8.24410         4.59487
     2022.12457         1.54527         4.66316
     2022.12731         1.06045         4.51908
     2022.13004        -2.82638         4.54323
     2022.13278        -0.52421         4.51075
     2022.13552         3.50796         4.52408
     2022.13826         5.82913         4.51325
     2022.14099         3.41830         4.51991
     2022.14373        -5.80853         4.51242
     2022.14647         3.12364         4.53240
     2022.14921         6.78981         4.68815
     2022.15195         2.43698         4.67815
     2022.15468         4.28115         4.51242
     2022.15742         3.25132         4.55323
     2022.16016         5.01649         4.56572
     2022.16290        -0.12733         4.59320
     2022.16564         2.36584         4.55073
     2022.16837         3.11901         4.50159
     2022.17111         1.52318         4.51825
     2022.17385         1.25935         4.53657
     2022.17659         3.62852         4.49909
     2022.17932        -2.07831         4.54406
     2022.18206         1.78486         4.53907
     2022.18480        -3.32197         4.50242
     2022.18754         3.78720         4.55906
     2022.19028        -2.10563         4.60236
     2022.19301         1.54054         4.65567
     2022.19575         9.95971         4.50575
     2022.19849         3.51089         4.55156
     2022.20123         7.86006         4.63068
     2022.20397         5.56223         4.55406
     2022.20670         2.92640         4.66816
     2022.20944         6.21557         4.65483
     2022.21218         2.47874         4.49159
     2022.21492        -1.18209         4.49659
     2022.21765         0.07308         4.51242
     2022.22039         0.79525         4.53657
     2022.22313         1.91542         4.70730
     2022.22587        -6.19941         4.59987
     2022.22861         2.49276         4.58404
     2022.23134         3.34293         4.53074
     2022.23408         9.39211         4.59237
     2022.23682         2.87928         4.71647
     2022.23956         0.36345         4.51242
     2022.24230        -2.22638         4.67899
     2022.24503         5.47679         4.51408
     2022.24777         1.54396         4.62319
     2022.25051        -1.07887         4.55906
     2022.25325         0.78230         4.52491
     2022.25598         6.52747         4.51575
     2022.25872         0.52964         4.54073
     2022.26146        -1.23519         4.50242
     2022.26420         3.74598         4.55989
     2022.26694        -9.19385         4.76810
     2022.26967        -1.27667         4.58487
     2022.27241         4.11350         4.52408
     2022.27515         3.10067         4.63651
     2022.27789        -1.96716         4.55239
     2022.28062        -1.90299         4.54240
     2022.28336         5.90118         4.53907
     2022.28610         4.22535         4.62235
     2022.28884        -2.34648         4.60736
     2022.29158        -3.00231         4.55156
     2022.29431         2.53086         4.53324
     2022.29705         2.58403         4.55572
     2022.29979         3.87120         4.53074
     2022.30253         2.30237         4.61402
     2022.30527         0.40255         4.59820
     2022.30800        -4.20328         4.49159
     2022.31074         0.70189         4.57738
     2022.31348        -2.24194         4.57571
     2022.31622        -3.23977         4.56738
     2022.31895       -14.57560         4.68149
     2022.32169        -2.25043         4.62069
     2022.32443         1.35974         4.50992
     2022.32717        -1.33609         4.60653
     2022.32991        -0.47892         4.48660
     2022.33264        -3.52175         4.58821
     2022.33538        -1.99758         4.66066
     2022.33812        -0.43141         4.75311
     2022.34086         1.01977         4.52657
     2022.34360        -2.44706         4.59320
     2022.34633         1.64911         4.54406
     2022.34907         2.06028         4.54240
     2022.35181         3.53845         4.56738
     2022.35455         3.09662         4.60403
     2022.35728         2.06979         4.57571
     2022.36002         0.11596         4.55656
     2022.36276         1.18013         4.55572
     2022.36550         0.98030         4.47744
     2022.36824        -2.38653         4.56239
     2022.37097        -4.64136         4.56405
     2022.37371        -7.58719         4.52408
     2022.37645        -3.87401         4.64817
     2022.37919         1.22916         4.68065
     2022.38193        -6.34267         4.64734
     2022.38466        -7.33650         4.48826
     2022.38740       -14.35833         4.53657
     2022.39014        -1.51816         4.54073
     2022.39288        -2.38099         4.54740
     2022.39561         1.61918         4.50575
     2022.39835        -1.70365         4.61153
     2022.40109        -3.08648         4.66983
     2022.40383         2.25069         4.46827
     2022.40657         3.59386         4.47993
     2022.40930        -9.13197         4.56405
     2022.41204         1.84621         4.59570
     2022.41478        -1.12862         4.52991
     2022.41752         2.40755         4.59570
     2022.42026        -2.49028         4.67649
     2022.42299        -2.62111         4.49409
     2022.42573        -4.95794         4.54406
     2022.42847        -0.28577         4.56322
     2022.43121         0.92740         4.60320
     2022.43394        12.51357         4.64984
     2022.43668        -3.68826         4.46411
     2022.43942         0.06991         4.52574
     2022.44216         5.70708         4.47494
     2022.44490         9.95825         4.61902
     2022.44763        11.32843         4.47077
     2022.45037         2.67560         4.45661
     2022.45311        -4.99323         4.47744
     2022.45585         2.38594         4.47577
     2022.45859       -14.78889         4.47577
     2022.46132        -2.39972         4.50575
     2022.46406        -2.56055         4.46994
     2022.46680        -3.76038         4.50492
     2022.46954        -2.83821         4.48077
     2022.47227       -10.11404         4.46411
     2022.47501         9.83613         4.48410
     2022.47775        -3.31370         4.58571
     2022.48049         0.32247         4.46494
     2022.48323        11.29065         4.43329
     2022.48596        11.96982         4.45995
     2022.48870         4.50499         4.52657
     2022.49144        -0.98984         4.47244
     2022.49418         1.47933         4.57571
     2022.49692         5.56650         4.44829
     2022.49965        -0.66233         4.46161
     2022.50513         0.31301         4.70231
     2022.50787        14.60618         4.70481
     2022.51060        -5.15065         4.54573
     2022.51334        -5.08148         4.44162
     2022.51608        -9.68631         4.44829
     2022.51882        -8.95613         4.47910
     2022.52156        -3.35396         4.47993
     2022.52429         0.55821         4.43912
     2022.52703         1.40738         4.47993
     2022.52977         7.58755         4.49159
     2022.53251        -1.97328         4.48910
     2022.53525        -2.86311         4.74645
     2022.53798        -3.44094         4.45995
     2022.54072        -5.09177         4.45578
     2022.54346        -0.63460         4.43080
     2022.54620        -8.41543         4.53324
     2022.54893        -0.08826         4.51825
     2022.55167        -1.89809         4.50325
     2022.55441        -1.75291         4.46244
     2022.55715         8.49926         4.46827
     2022.55989        -1.61357         4.44662
     2022.56262        -6.98140         4.48160
     2022.56536       -14.14823         4.47827
     2022.56810         0.04294         4.44995
     2022.57084         0.21711         4.40081
     2022.57357         4.05328         4.54323
     2022.57631        -9.25255         4.42746
     2022.57905        -7.23738         4.46661
     2022.58179         6.81879         4.54157
     2022.58453         7.67096         4.64151
     2022.58726        -5.02487         4.49493
     2022.59000         3.47131         4.59154
     2022.59274        -8.49652         4.43163
     2022.59548        -1.92135         4.44079
     2022.59822        -9.56818         4.45495
     2022.60095       -10.92001         4.43496
     2022.60369        -7.18084         4.53990
     2022.60643         0.80733         4.75478
     2022.60917         1.70650         4.54240
     2022.61190         9.23467         4.55156
     2022.61464         8.86384         4.43579
     2022.61738         5.96701         4.41331
     2022.62012         0.46418         4.41914
     2022.62286         0.64835         4.46494
     2022.62559        -1.87647         4.39498
     2022.62833         5.77670         4.43579
     2022.63107        10.21587         4.51325
     2022.63381        10.61204         4.41331
     2022.63655         3.06821         4.42830
     2022.63928         5.55138         4.43413
     2022.64202         8.31355         4.75394
     2022.64476         6.34672         4.80641
     2022.64750         6.95389         4.55989
     2022.65023         2.12006         4.62902
     2022.65297        14.71423         4.54656
     2022.65571         9.40840         4.55156
     2022.65845        11.28257         4.41164
     2022.66119         7.96875         4.40165
     2022.66392         6.78992         4.42413
     2022.66666         6.47409         4.35834
     2022.66940        10.49426         4.37666
     2022.67214        11.41443         4.41247
     2022.67488        15.05160         4.61652
     2022.67761        11.45377         4.39165
     2022.68035         6.32094         4.43163
     2022.68309        16.92611         4.61319
     2022.68583         5.98428         4.60819
     2022.68856        10.79945         4.48826
     2022.69130        10.11462         4.44495
     2022.69404        13.93479         4.55822
     2022.69678        10.04397         4.58571
     2022.69952         3.28814         4.49493
     2022.70225        11.36831         4.58071
     2022.70499         3.43848         4.55822
     2022.70773        10.29765         4.48493
     2022.71047         6.46582         4.40248
     2022.71321        12.19799         4.44079
     2022.71594        13.16316         4.37916
     2022.71868        10.04733         4.40081
     2022.72142        14.40150         4.35834
     2022.72416         6.09367         4.41414
     2022.72689        14.71584         4.49909
     2022.72963        12.98501         4.43746
     2022.73237         8.07119         4.41914
     2022.73511         5.47236         4.39498
     2022.73785         7.53453         4.38582
     2022.74058        17.73670         4.70147
     2022.74332        17.42187         4.62652
     2022.74606        11.95504         4.47077
     2022.74880         7.07321         4.37250
