# ================= DQRFIT RESULTS ================
# INPUT FILE: series/PALO.rad
# OUTPUT: LDETRENDED
# FILTER FUNCTION: f(t)
# f(t)=+line(t)
# line(t)=+P 1+P 2*t
# heav(t)=(t<0?0:1)
# TOTAL OBSERVATIONS MTOT=  497
# INITIAL TIME INTERVAL= 2018.6940 - 2004.2300 = 14.4641
# TOTAL OBSERVATIONS AFTER PREFILTER M=  495
# TIME-SPAN=    0.0000 -    0.0000 =  0.0000
# OBSERVATIONS: USED M=   495 REJECTED MTOT-M=     2 %USED=   99.5976
# N=  2 PARAMETERS
# MAXSIG= 175.00000
# MAXRES=  14.40852
# SCALE FACTOR FOR LENGTHS: SCL=  10.00000
# SCALE FACTOR FOR SIGMAS: SCLSIG=   1.00000
# CHI^2=    400.469 DOF=   493 CHI^2/DOF=   0.81231
# RMS=      5.162 SDEV=      5.167 MEAN=    0.03440
#  P #       PARAMETER +-    SIGMA %error PARAMETER NAME
# P 1 =       801.65730 +-  102.658  12.81 YZERO                              
# P 2 =        -0.39697 +-    0.051  12.88 SLOPE                              
#       T            LDETRENDED       SIG_OBS
     2004.22998         1.91948         5.53027
     2004.23272         9.56656         5.48701
     2004.23546         0.66865         5.49151
     2004.23820        -3.17726         5.49602
     2004.24094        -4.44918         5.65104
     2004.24367        -0.59609         5.42662
     2004.24641         4.56600         5.21392
     2004.24915        -0.59292         5.36714
     2004.25189        -1.95083         5.24546
     2004.25462         2.65626         5.26529
     2004.25736         2.68034         5.25448
     2004.26010         0.04743         5.24276
     2004.42163        -1.59844         5.15263
     2004.42437         0.23364         5.14632
     2004.42711        -1.26427         5.10937
     2004.42985         3.50282         5.11928
     2004.43259         2.69290         5.14903
     2004.43532         1.23099         5.18237
     2004.43806         9.76608         5.20581
     2004.44080         7.90616         5.21843
     2004.44354         5.24325         5.18778
     2004.44627         3.83734         5.19409
     2004.44901         1.77242         5.24006
     2004.45175        -3.63749         5.39958
     2004.45449         0.97660         5.31847
     2004.45723        -0.19532         5.26980
     2004.45996        -4.84923         5.35272
     2004.46270        -6.61014         5.37885
     2004.46544        -3.21706         5.22113
     2004.46818         3.97903         5.26710
     2004.47092        -2.31288         5.28873
     2004.47365         7.31921         5.19860
     2004.47639        -6.07971         5.24276
     2004.47913        -3.26962         5.21031
     2004.48187         4.15947         5.46267
     2004.48460        -5.04145         5.29413
     2004.48734         0.15564         5.27160
     2004.49008        -2.80927         5.24096
     2004.49282        -7.79219         5.36443
     2004.49556        -8.42410         5.23285
     2004.49829         0.23199         5.20130
     2004.50103        -3.91993         5.22924
     2004.50377        -2.01684         5.22383
     2004.50651        -3.97475         5.24006
     2004.50924        -2.08567         5.21843
     2004.68994        -2.90593         5.16795
     2004.69268        -1.77285         5.18418
     2004.69542         2.21624         5.14813
     2004.69816         5.25433         5.15534
     2004.70089        10.80141         5.30855
     2004.70363         5.98550         5.17336
     2004.70637         4.82359         5.15083
     2004.70911         1.38467         5.09315
     2004.71185        -0.21524         5.13731
     2004.71458         8.07485         5.19139
     2004.71732         1.00893         5.11838
     2004.72006         1.85702         5.08594
     2004.72280        -5.99789         5.07332
     2004.72554        -3.79980         5.07873
     2004.72827        -3.73372         5.06521
     2004.73101        -0.07363         5.13551
     2004.73375        -5.67954         5.05800
     2004.73649        -0.54346         5.09946
     2004.73922         5.56263         5.10847
     2004.74196         1.90672         5.10036
     2004.74470        -0.11720         5.07602
     2004.74744        -1.94111         5.09765
     2004.75018        -6.10502         5.14001
     2004.75291        -2.70694         5.11027
     2004.75565         2.01615         5.06881
     2004.75839         0.58424         5.05800
     2004.76113        -4.76768         5.13731
     2004.76387        -2.63459         5.08864
     2004.76660        -0.91750         5.08684
     2004.76934         0.99858         5.28061
     2004.77208         6.28467         5.28692
     2004.77482         0.53476         5.18328
     2004.77755         3.05985         5.22383
     2004.78029         4.42493         5.22744
     2004.78303         0.76202         5.23735
     2004.78577        -0.22889         5.09765
     2004.78851         3.15819         5.17877
     2004.79124         3.74328         5.07332
     2004.79398         6.66937         5.17967
     2004.79672        -0.95455         5.17156
     2005.19097        -7.11604         5.17066
     2005.19371        -6.24395         5.17156
     2005.19645        -8.12187         5.18778
     2005.19918        -3.53978         5.17066
     2005.20192        -4.21669         5.21302
     2005.20466        -2.33261         5.27791
     2005.20740         6.74248         5.24817
     2005.21013        -2.57143         5.16795
     2005.21287        -4.02735         5.13551
     2005.21561        -2.36226         5.17516
     2005.21835        -2.90617         5.16976
     2005.22109        -5.46609         5.18147
     2005.22382        -6.05800         5.28963
     2005.22656        -6.20391         5.16615
     2005.22930        -4.24482         5.13911
     2005.23204        -2.07674         5.13551
     2005.23478        -1.03765         5.17246
     2005.23751         3.71644         5.15984
     2005.24025         8.45652         5.35812
     2005.24299         6.20361         5.13821
     2005.24573         1.27570         5.31486
     2005.24846        -0.90622         5.19049
     2005.25120        -2.61313         5.20491
     2005.25394         7.53896         5.42031
     2005.25668         5.32504         5.47709
     2005.25942         3.60113         5.22924
     2005.26215        -7.52578         5.33559
     2005.26489         4.13630         5.31937
     2005.26763        -0.85461         5.33289
     2005.27037        -0.53952         5.26169
     2005.27311        -1.00244         5.23375
     2005.27584        -2.84635         5.26439
     2005.27858        -0.12826         5.26169
     2005.28132         2.12783         5.34461
     2005.28406        -3.39909         5.35272
     2005.28679        -1.60800         5.25988
     2005.28953         1.66009         5.20130
     2005.29227         0.93617         5.20491
     2005.29501         5.35626         5.16976
     2005.29775         5.26235         5.21302
     2005.30048         3.37943         5.16345
     2005.30322        -2.61748         5.17336
     2005.30596         0.30561         5.14903
     2005.30870         2.58069         5.24366
     2005.31144         4.52578         5.18508
     2005.31417         0.63387         5.17156
     2005.31691        -3.65705         5.16165
     2005.31965        -3.37596         5.16255
     2005.32239        -2.31587         5.35001
     2005.32512         0.49521         5.21843
     2005.32786        -3.76870         5.23465
     2005.33060        -1.79661         5.15624
     2005.33334         3.45048         5.19950
     2005.33608         0.30856         5.29053
     2005.33881         2.92465         5.20310
     2005.34155        -2.41726         5.18147
     2005.34429        -4.02118         5.13551
     2005.34703        -5.06109         5.11478
     2005.34977        -3.03200         5.11207
     2005.35250        -3.93892         5.26169
     2005.35524         0.33217         5.32838
     2005.35776         1.12717         5.98812
     2005.62903        -0.96815         5.23735
     2005.63176        -0.61506         5.23375
     2005.63450        -1.08397         5.22564
     2005.63724        -1.90688         5.32568
     2005.63998        -2.15280         5.23014
     2005.64272         0.08729         5.22383
     2005.64545        -4.15062         5.20671
     2005.64819        -1.49154         5.24006
     2005.65093         0.17855         5.23916
     2005.65367        -2.48736         5.27070
     2005.65640        -5.07628         5.25087
     2005.65914         0.64081         5.22113
     2005.66188         2.39990         5.21482
     2005.66462        -0.05702         5.22023
     2005.66736         0.30807         5.15624
     2005.67009         2.86216         5.18418
     2005.67283         4.49424         5.18868
     2005.67557         5.55233         5.18418
     2005.67831        -3.11458         5.17967
     2005.68105        -4.88050         5.15624
     2005.68378        -3.18141         5.24546
     2005.68652        -4.75732         5.29233
     2005.68926        -0.33223         5.22473
     2005.69200        -1.49015         5.26710
     2005.69473        -5.04306         5.24907
     2005.69747        -1.48197         5.25718
     2005.70021         4.14511         5.44465
     2005.70295         0.68320         5.43203
     2005.70569        -1.35771         5.40139
     2005.70842         0.16237         5.37615
     2005.71116        -2.16754         5.22924
     2005.71390         2.49255         5.20761
     2005.71664        -1.70337         5.33469
     2005.71938        -4.20428         5.23916
     2005.72211        -7.30919         5.36533
     2005.72485        -2.24911         5.16165
     2005.72759        -4.49302         5.15894
     2005.73033        -2.68593         5.35993
     2005.73306         2.45715         5.32027
     2005.73580         2.37424         5.27250
     2005.73854        -0.28667         5.36083
     2005.74128        -2.34758         5.29233
     2005.74402         4.85150         5.24096
     2005.74675         4.46959         5.19409
     2005.74949         5.87068         5.17967
     2005.75223         8.35576         5.27070
     2005.75497         1.31885         5.26710
     2005.75770         2.28594         5.20581
     2005.76044         3.14602         5.15624
     2005.76318         5.35011         5.19770
     2005.76866         6.52728         5.86194
     2005.77413         5.62246         5.91602
     2005.77961         6.55063         6.41623
     2005.79056         2.51798         6.02868
     2005.80151         5.94633         5.60778
     2006.13005        -1.21225         5.06160
     2006.13279        -2.03617         5.07062
     2006.13553         0.57092         5.04358
     2006.13827         3.67401         5.04808
     2006.14100         4.78310         5.09405
     2006.14374         2.43818         5.06791
     2006.14648         3.26127         5.08504
     2006.14922        -1.98964         5.07062
     2006.15196        -2.96356         5.03727
     2006.15469        -6.45447         5.05800
     2006.15743         0.66562         5.08954
     2006.16017         9.06470         5.18508
     2006.16291        -1.43121         5.23465
     2006.16564        -1.21312         5.01924
     2006.16838         2.99296         5.19680
     2006.17112         1.84605         5.04898
     2006.17386         1.19514         5.05529
     2006.17660        -5.16378         5.05529
     2006.17933         0.22031         5.06791
     2006.18207         2.17940         5.02014
     2006.18481        14.18548         5.06521
     2006.18755         8.34657         5.06791
     2006.19029         5.36566         5.14272
     2006.19302        -2.38025         5.15353
     2006.19576         1.96483         5.14182
     2006.19850         3.94392         5.16165
     2006.20124        -1.64199         5.19589
     2006.20397        -8.50691         5.30495
     2006.20671        -1.81482         5.29413
     2006.21219       -16.79765         5.18147
     2006.21493         2.48944         5.14632
     2006.21766         4.56053         5.15984
     2006.22040        -2.06039         5.20130
     2006.22314        -2.39230         5.24727
     2006.22588        -0.28321         5.25538
     2006.22862         7.48887         5.29594
     2006.23135         4.48896         5.27431
     2006.23409         3.52505         5.24637
     2006.23683        -2.42787         5.12830
     2006.23957         5.70822         5.10937
     2006.24230        -2.89669         5.06881
     2006.24504        -0.78860         5.02465
     2006.24778         7.96648         5.11478
     2006.25052        -3.08443         5.09225
     2006.25326         7.09766         5.06701
     2006.25599         5.31074         5.12289
     2006.25873         1.46383         5.12199
     2006.26147         8.71192         5.24456
     2006.26421         2.39800         5.28332
     2006.26695         3.98009         5.16705
     2006.26968         3.51018         5.08323
     2006.27242         5.82526         5.12830
     2006.27516         3.83135         5.27611
     2006.27790         5.46844         5.31937
     2006.28063         1.55852         5.09135
     2006.28337         4.91461         5.10667
     2006.28611         6.64370         5.19139
     2006.28885         7.43478         5.15804
     2006.29159         0.55487         5.13190
     2006.29432         4.02696         5.11478
     2006.29706         1.98505         5.11027
     2006.29980         4.22613         5.16886
     2006.30254         2.52322         5.12289
     2006.30528         4.39631         5.13821
     2006.30801         1.72139         5.13280
     2006.31075        -1.08452         5.12740
     2006.31349         1.32157         5.24186
     2006.31623         7.85965         5.12830
     2006.32170        -0.89217         5.16615
     2006.32444        -1.26809         5.13010
     2006.32718         4.11800         5.15263
     2006.32992        -0.07691         5.11658
     2006.33265         0.54117         5.12920
     2006.33539         3.51026         5.15624
     2006.33813         5.02535         5.12199
     2006.34087         3.04543         5.14272
     2006.34361         4.93552         5.10757
     2006.34634         4.91061         5.17246
     2006.34908        -1.35330         5.19049
     2006.35182        -0.25122         5.24456
     2006.35456        -1.09313         5.14542
     2006.35729         1.09696         5.16255
     2006.36003        -0.88696         5.16795
     2006.36277        -0.02487         5.14452
     2006.36551        -1.50678         5.12650
     2006.36825        -0.35970         5.15353
     2006.37098         2.49839         5.28061
     2006.37372        -1.96752         5.26529
     2006.37646         4.11356         5.19049
     2006.37920         3.86965         5.38336
     2006.38193         9.56074         5.34551
     2006.38467         6.81482         5.25538
     2006.38741         0.52891         5.33830
     2006.39015        -0.37900         5.20941
     2006.85558        13.37776         5.54199
     2006.85832         5.01085         5.43744
     2006.86106         0.63894         5.47079
     2006.86380        -2.80998         5.51134
     2006.86653        -0.72189         5.63932
     2006.87201         1.88028         5.20310
     2006.88022         2.67954         5.54289
     2006.88296        -0.10337         5.59606
     2006.89665        -0.20694         6.10439
     2006.89939         3.60715         5.58074
     2006.90213         2.53524         5.56902
     2007.85764        -1.89445         5.09135
     2007.86037        -4.42637         5.17516
     2007.86311        -0.12228         5.17066
     2007.86585         4.22181         5.13911
     2007.86859        -2.98910         5.09765
     2007.87133        -5.75102         5.10486
     2007.87406        -1.13093         5.18598
     2007.87680        -0.53784         5.21482
     2007.87954        -3.60576         5.15714
     2007.88228        -1.09467         5.13010
     2007.88502         1.14142         5.11928
     2007.88775        -3.25550         5.20761
     2007.89049        -3.77241         5.21392
     2007.89323         0.41168         5.25718
     2007.89597         2.87176         5.23465
     2007.89870         0.00985         5.13190
     2007.90144        -4.07806         5.15083
     2007.90418        -1.83298         5.23195
     2007.90692        -0.55489         5.18328
     2007.90966        -5.67580         5.22023
     2007.91239         0.76728         5.16795
     2007.91513         1.23937         5.19319
     2007.91787        -4.22854         5.17877
     2007.92061       -12.84845         5.31126
     2007.92334        -6.70537         5.27701
     2007.92608         2.89472         5.26529
     2007.92882        -2.76119         5.22744
     2007.93430        -4.98802         5.23014
     2007.93703        -3.74993         5.22654
     2007.94525        -1.00067         6.01426
     2007.94799        -3.44259         6.21164
     2007.95072        -0.72550         5.30315
     2007.95346         4.04859         5.31576
     2007.95620        -0.61933         5.29684
     2007.95894         6.12676         5.33018
     2009.59891         5.23178         5.08864
     2009.60165        -3.43913         5.09405
     2009.60439        -6.36504         5.09856
     2009.60712        -2.70196         5.13010
     2009.60986        -3.44087         5.08053
     2009.61260        -6.04578         5.07242
     2009.61534        -3.65170         5.07873
     2009.61807        -0.76461         5.16435
     2009.62081        -3.40152         5.13010
     2009.62355        -6.66344         5.12109
     2009.62629        -3.41335         5.05529
     2009.62903        -2.10626         5.11117
     2009.63176        -4.74118         5.06431
     2009.63450        -7.74909         5.10667
     2009.63724        -5.79700         5.21482
     2009.63998        -9.49291         5.14362
     2009.64272        -8.14283         5.17607
     2009.64518        -5.86585         5.68169
     2011.39768        -7.97616         5.05980
     2011.40042        -3.73907         5.03997
     2011.40315        -4.04499         5.15173
     2011.40589        -9.21390         5.28422
     2011.40863       -10.62481         5.05439
     2011.41137        -7.60772         5.03186
     2011.41410        -8.72364         5.00482
     2011.41684        -9.07455         4.98950
     2011.41958        -6.00046         4.99040
     2011.42232       -12.77238         4.99491
     2011.42506        -8.91229         5.01654
     2011.42779        -9.01120         5.01383
     2011.43053       -11.78712         4.97147
     2011.43327       -12.83203         5.02826
     2011.43601        -9.26594         5.02735
     2011.43875       -13.88986         5.06431
     2011.44148        -9.37677         5.06160
     2011.44422        -7.50068         5.06160
     2011.44696       -12.29760         5.03366
     2011.44970       -13.02651         5.03817
     2011.45243       -14.18742         5.04898
     2011.45517       -14.57934         5.06160
     2011.45791       -12.45325         5.09495
     2011.46065       -12.71916         5.00482
     2011.46339       -13.73907         5.11478
     2011.46612        -7.23799         5.03186
     2011.46886        -4.27390         5.00122
     2011.47160       -11.78981         5.05259
     2011.47434        -7.96473         5.14001
     2011.47708       -11.85064         5.06881
     2011.47981        -6.61755         5.00843
     2011.48255        -8.53047         5.03997
     2011.48494       -17.06052         5.88537
     2012.87064         5.25756         5.06611
     2012.87338         7.19465         5.11298
     2012.87612         7.71074         5.08413
     2012.87885         7.43183         5.02735
     2012.88159        11.62791         5.01203
     2012.88433        10.22700         4.99671
     2012.88707         7.62009         5.12920
     2012.88981        12.22817         5.12289
     2012.89254         7.90226         5.03456
     2012.89528         4.65635         5.02195
     2012.89802         9.15643         4.99491
     2012.90076        14.40852         5.10757
     2012.90350        11.62261         5.03186
     2012.90623         9.33869         4.95435
     2012.90897        10.22578         5.03186
     2012.91171         7.84787         5.37705
     2014.71869        -3.64681         5.12469
     2014.72143        -3.40873         5.21933
     2014.72417         6.13336         5.10216
     2014.72690         4.49445         5.10486
     2014.72964         8.78053         5.09585
     2014.73238        11.26362         5.15804
     2014.73512         4.75771         5.21933
     2014.73786        10.01379         5.16795
     2014.74059         2.07788         5.12289
     2014.74333         2.82797         5.09225
     2014.74607         4.01905         5.14362
     2014.74881         4.65814         5.12469
     2014.75154         2.20623         5.16976
     2014.75428         3.94432         5.05800
     2014.75702        -2.48060         5.10036
     2014.75976         1.02949         5.08233
     2014.76250         3.73958         5.09675
     2014.76523         2.25866         5.05620
     2014.76797         0.66275         5.06250
     2014.77071        -1.62716         5.10937
     2014.77345        -0.04208         5.06881
     2014.77619         3.73201         5.13551
     2014.77892         1.03410         5.12559
     2014.78166         6.18218         5.05620
     2014.78440         8.38527         5.09675
     2014.78714        10.86236         5.10306
     2014.78987         2.16144         5.09675
     2014.79261         3.18853         5.08323
     2014.79535         5.53562         5.08323
     2014.79809         6.45170         5.20040
     2014.80083         1.92979         5.09856
     2014.80356         9.28888         5.23285
     2014.80904         1.74305         5.27701
     2018.55168        -1.42723         5.01293
     2018.55442        -4.70814         5.09946
     2018.55714        -5.65306         5.02826
     2018.55990        -9.65297         5.12650
     2018.56263        -2.71288         5.03096
     2018.56537        -0.31479         5.10036
     2018.56811        -3.65171         5.11748
     2018.57085        -1.61362         5.02285
     2018.57358         2.41547         5.15624
     2018.57632         0.57755         5.19409
     2018.57906        -1.90936         5.21031
     2018.58180         2.59473         5.40139
     2018.58454         2.96181         5.17426
     2018.58727         3.70990         5.07963
     2018.59001        -1.30401         5.02195
     2018.59275         0.30007         5.22473
     2018.59549         2.95416         5.03456
     2018.59823        -1.28575         4.94534
     2018.60096        -0.31367         4.96156
     2018.60370         1.10642         5.10757
     2018.60644        -6.05649         5.09585
     2018.60918         1.23060         5.16705
     2018.61191         4.21768         5.27971
     2018.61464         1.27076         5.09856
     2018.61739         0.88586         5.22023
     2018.62011        -2.31006         5.02735
     2018.62287         9.10803         5.72224
     2018.62559         2.47611         5.17967
     2018.62835        -5.56679         5.28242
     2018.63108         1.76429         4.98950
     2018.63380         2.26937         5.63302
     2018.63656        -1.19953         5.37705
     2018.63929         4.50155         5.81417
     2018.64202        -5.16337         5.23916
     2018.64477         1.49873         5.05169
     2018.64751        -0.69619         5.40950
     2018.65024         7.93890         5.38066
     2018.65297         2.64198         5.02826
     2018.65572         2.06907         5.01113
     2018.65846        -2.54284         4.94894
     2018.66120         6.86125         5.22383
     2018.66393         2.23533         5.10036
     2018.66667         0.11042         5.08323
     2018.66941         2.82451         4.92190
     2018.67215         0.26459         5.20851
     2018.67488         0.04668         5.18328
     2018.67762        -1.00623         4.94083
     2018.68036        -6.73415         5.16165
     2018.68310        -2.40206         5.43023
     2018.68584        -1.40297         5.21482
     2018.68857         3.93011         5.38156
     2018.69131         2.95420         5.49422
     2018.69405         1.85929         5.27701
