# ================= DQRFIT RESULTS ================
# INPUT FILE: series/PCSO.rad
# OUTPUT: LDETRENDED
# FILTER FUNCTION: f(t)
# f(t)=+line(t)+annual(t)+jumps(t)
# line(t)=+P 1+P 2*t
# annual(t)=+P 3*sin(2*pi*t+P 4)
# jumps(t)=+P 5*heav(t-2013.4629  )+P 6*heav(t-2015.0771  )
# heav(t)=(t<0?0:1)
# TOTAL OBSERVATIONS MTOT= 2789
# INITIAL TIME INTERVAL= 2015.2991 - 2007.0034 =  8.2957
# TOTAL OBSERVATIONS AFTER PREFILTER M= 2670
# TIME-SPAN= 2015.2991 - 2007.0034 =  8.2957
# OBSERVATIONS: USED M=  2670 REJECTED MTOT-M=   119 %USED=   95.7332
# N=  6 PARAMETERS
# MAXSIG= 175.00000
# MAXRES=  22.63584
# SCALE FACTOR FOR LENGTHS: SCL=  10.00000
# SCALE FACTOR FOR SIGMAS: SCLSIG=   1.00000
# CHI^2=   2467.585 DOF=  2664 CHI^2/DOF=   0.92627
# RMS=      5.555 SDEV=      5.556 MEAN=    0.07901
#  P #       PARAMETER +-    SIGMA %error PARAMETER NAME
# P 1 =       566.71060 +-  141.833  25.03 YZERO                              
# P 2 =        -0.38836 +-    0.071  18.17 SLOPE                              
# P 3 =         3.30632 +-    0.154   4.65 ANNUAL AMPLITUDE                   
# P 4 =        -2.98335 +-    0.065   2.18 ANNUAL PHASE                       
# P 5 =        14.76405 +-    0.393   2.66 OFFSET 2013.4629                   
# P 6 =       205.77183 +-    0.750   0.36 OFFSET 2015.0771                   
#       T            LDETRENDED       SIG_OBS
     2007.00336       -21.32912         6.38380
     2007.00702         6.39130         9.42219
     2007.00889        -7.90198         5.69085
     2007.01140        -0.78000         6.40593
     2007.02498       -10.73473         6.66001
     2007.08555        -1.08920         5.29433
     2007.08795        -2.27527         6.43769
     2007.23653        -8.94057         6.62440
     2007.23887        -3.06366         5.34822
     2007.24161        -9.08860         5.37036
     2007.24435         1.14647         5.30491
     2007.24709        -0.52347         5.28566
     2007.24982        -0.19041         5.28278
     2007.25256       -10.41434         5.42233
     2007.27446         9.36916         5.24813
     2007.27720        -0.87977         5.50606
     2007.27994         0.18329         5.30202
     2007.28268         8.07535         5.72838
     2007.28542         6.74141         5.26930
     2007.28815        -0.12152         5.61000
     2007.29089         2.46554         5.50991
     2007.29363        -3.43240         5.43388
     2007.29637         0.06267         5.37806
     2007.29911         0.61073         5.39346
     2007.30184        11.53879         5.23658
     2007.30458         1.25186         5.44928
     2007.30732         1.53492         5.36170
     2007.31006         1.74298         5.48007
     2007.31279        -5.48795         5.41559
     2007.31553        -0.69789         5.31165
     2007.31827         6.06017         5.62155
     2007.32101         4.78924         5.43580
     2007.32375         0.32730         5.37902
     2007.32648         3.92736         5.29817
     2007.32922         0.06443         5.36458
     2007.33196        -1.13151         5.50221
     2007.33470         2.03855         5.58209
     2007.33744        -0.22038         5.29914
     2007.34017        -3.81432         5.37036
     2007.34291       -13.96126         5.40693
     2007.34565        -6.71319         5.30299
     2007.34839        -1.44413         5.46949
     2007.35112         5.50393         5.38961
     2007.35386        -4.18700         5.87082
     2007.35660        -7.04694         5.70625
     2007.35934        -3.07588         5.36170
     2007.36208         0.06519         5.37902
     2007.36481        -3.19375         5.42425
     2007.36756        -4.99969         5.45024
     2007.37029       -10.40862         5.64561
     2007.37303        -0.51356         5.56381
     2007.37577        -4.55150         5.60808
     2007.37850       -13.23543         5.56092
     2007.38124       -10.41337         5.46179
     2007.38398        -4.88431         5.57920
     2007.38672         0.43176         5.37806
     2007.38945        -4.89218         5.36651
     2007.39219        -9.58812         5.66967
     2007.39493        -0.77205         5.36362
     2007.39767        -9.66999         5.42425
     2007.40041        -2.17693         5.32031
     2007.40314        -4.09286         5.30684
     2007.40588        -1.54480         5.37228
     2007.40862        -7.96174         5.44350
     2007.41136       -11.30267         5.30202
     2007.41410        -4.44361         5.38576
     2007.41683        -7.14355         5.32801
     2007.41957        -0.24248         5.60711
     2007.42231         3.80758         5.58979
     2007.42505        -2.34036         5.55803
     2007.42778        -1.12830         5.41944
     2007.43052         7.58377         5.30395
     2007.43326         5.59883         5.35400
     2007.43600       -10.21511         5.79479
     2007.43874        -8.52804         5.57824
     2007.44147        -6.35398         5.67160
     2007.44421        -3.90692         5.39923
     2007.44695        -7.84185         5.47911
     2007.44969        -3.87079         5.35015
     2007.45243        -1.75373         5.39057
     2007.45516        -6.15766         5.42522
     2007.45790         0.08840         5.29817
     2007.46064         2.17446         5.32127
     2007.46338         2.01053         5.28374
     2007.46611        -3.07841         5.32512
     2007.46885         2.10565         5.32416
     2007.47159        -2.44328         5.29433
     2007.47433        -1.27822         5.30491
     2007.47707        -4.05116         5.55418
     2007.47980       -13.26309         5.31454
     2007.48254        -5.92503         5.33090
     2007.48528        -5.54297         5.40885
     2007.48802        -6.49390         5.53301
     2007.49075        -0.17084         6.00267
     2007.49349        -4.11278         5.35785
     2007.49623        -1.73971         5.37998
     2007.49897         6.12735         5.43965
     2007.50171        -4.08059         5.37998
     2007.50444         0.81448         5.32127
     2007.50718        -4.59546         5.38768
     2007.50992        -2.38140         5.39057
     2007.51266        -3.47133         5.36843
     2007.51522         8.69566         5.81019
     2007.51910         8.42417        10.30666
     2007.52087         5.04086         5.35111
     2007.52361        -0.38608         5.39827
     2007.52593         2.32682         6.42326
     2007.52908         1.35405         5.48007
     2007.53182         4.91111         5.54359
     2007.53456        -1.52283         5.61963
     2007.53730         1.92324         5.67256
     2007.54004         3.38030         5.42233
     2007.54277         2.24836         5.43965
     2007.54551         4.84343         5.33282
     2007.54825         3.91449         5.34533
     2007.55099        -6.44745         5.50702
     2007.55373         2.94862         5.65331
     2007.55646         6.92868         5.42714
     2007.55920        10.71274         5.38576
     2007.56194         5.86680         5.37324
     2007.56468         7.59687         5.28951
     2007.56741         1.60093         6.22981
     2007.57015         3.86999         5.40308
     2007.57289         1.91406         5.51857
     2007.57563         6.69512         5.34245
     2007.57814         6.23110         5.83906
     2007.58093         1.28218         5.73608
     2007.58384         6.43831         5.46949
     2007.58658         0.44037         5.41944
     2007.58932         4.17644         5.36073
     2007.59206         6.91250         5.34148
     2007.59457         6.91648         5.94108
     2007.59753         0.20063         5.51376
     2007.60027         1.26169         5.52050
     2007.60301         8.24875         5.34726
     2007.60574         3.30882         5.34533
     2007.60848         8.19588         5.30684
     2007.61122        16.71894         5.34630
     2007.61396        -0.15299         5.35496
     2007.61670        -2.56993         5.87467
     2007.61943        10.63313         5.77939
     2007.62217         6.18620         6.15185
     2007.62491         7.80726         5.69470
     2007.62765         2.56432         5.85927
     2007.63039        11.08539         5.64754
     2007.63312         8.59145         5.54648
     2007.63586         1.80551         5.48874
     2007.63843         7.70151         5.83906
     2007.64134        11.16564         5.37998
     2007.64407        10.79470         5.71394
     2007.64681         4.99277         5.64561
     2007.64955        11.09383         5.78228
     2007.65229         6.55189         5.64850
     2007.65503        10.89896         5.51761
     2007.65776        17.44702         5.48681
     2007.66050         7.80608         5.65524
     2007.66324         0.67715         5.75148
     2007.66598        15.36421         5.60038
     2007.66872         9.82527         5.61096
     2007.67145        -2.08466         5.72549
     2007.67419        -1.53860         6.07101
     2007.67693        15.19846         5.65235
     2007.67967         7.17953         5.72549
     2007.68240        13.71659         5.68603
     2007.68514        12.61265         5.63984
     2007.68788        19.58472         5.67160
     2007.69062        12.44078         5.55707
     2007.69336        15.64984         5.61193
     2007.69609        11.73291         5.64176
     2007.69883        14.30797         5.61000
     2007.70140        10.76997         5.96321
     2007.70763        15.04238         7.47327
     2007.70978        10.58922         5.70721
     2007.71252         8.91028         5.57824
     2007.71526        16.36335         5.40019
     2007.71800         7.70241         5.48007
     2007.72073        14.00747         5.45409
     2007.72347        19.42354         5.41944
     2007.72621        10.88560         5.41463
     2007.72895         8.87566         5.42137
     2007.73169         7.21373         5.47045
     2007.73442         7.82179         5.41463
     2007.73716         9.05685         5.58690
     2007.73990        15.06492         5.58113
     2007.74264        12.05998         5.56669
     2007.74538         8.03104         5.42425
     2007.74811        10.66711         5.59749
     2007.75085         5.73817         5.77169
     2007.75359        10.44923         5.90547
     2007.75633         4.56230         5.54552
     2007.75906        11.09036         5.41848
     2007.76180         8.12742         5.49836
     2007.76454        -3.68451         5.46852
     2007.76728        10.09355         5.96033
     2007.77002         5.73761         5.91605
     2007.77275         8.04468         5.71106
     2007.77543         1.71272         5.57439
     2007.77806         9.14674         5.73223
     2007.77988        13.04645        11.42789
     2007.78976         9.31728         7.56662
     2007.79192         3.29812         5.54552
     2007.79466        11.97318         5.89392
     2007.79739         6.56925         5.81596
     2007.80013        12.02431         5.54263
     2007.80276         2.75333         5.71202
     2007.80561         1.96244         5.39057
     2007.80835         2.55950         5.51472
     2007.81108         5.74056         5.61000
     2007.81382         2.46663         5.54263
     2007.81656         5.80269         5.55803
     2007.81930         2.14875         5.50991
     2007.82203        -1.55118         5.44446
     2007.82477         1.44288         5.56477
     2007.82751        -1.50606         5.52916
     2007.83025         2.29901         5.57054
     2007.83299        -4.10593         5.63984
     2007.83572        -1.65387         5.34630
     2007.83846        -5.89781         5.43292
     2007.84120         1.54726         5.34341
     2007.84394        -3.42368         5.40693
     2007.84668        -3.94262         5.43676
     2007.84941        -2.33355         5.46275
     2007.85135        -0.94680         8.22396
     2007.85529        -0.37627         7.17684
     2007.85763         0.69564         5.88718
     2007.86036        -3.40630         5.57054
     2007.86310        -1.91424         5.57535
     2007.86584         1.64883         5.50510
     2007.86858        -8.12411         5.47045
     2007.87132        13.28595         5.53397
     2007.87405         6.63902         5.77746
     2007.87679        13.08608         5.55707
     2007.87953         1.08714         5.41270
     2007.88227         0.23721         5.45890
     2007.88501         5.56127         5.41078
     2007.88774       -11.50867         5.38864
     2007.89048        -3.07960         5.47334
     2007.89322        -3.45354         5.57824
     2007.89596         8.02952         5.50798
     2007.89869         1.10359         5.40404
     2007.90143        -4.43135         5.53686
     2007.90417        -5.65329         5.74474
     2007.90691        -6.42622         5.54744
     2007.90965        -0.85616         5.45698
     2007.91238         5.59090         5.41655
     2007.91512         6.77697         5.43773
     2007.91786         3.45503         5.79286
     2007.92060        -4.18291         5.54359
     2007.92334        -4.65584         5.80538
     2007.92607        -3.23778         5.44735
     2007.92881        -1.26772         5.58979
     2007.93155         6.14435         5.58498
     2007.93429       -10.03759         5.50702
     2007.93702        -8.95853         5.56284
     2007.93976        -6.10446         5.60615
     2007.94250        -4.13040         5.50702
     2007.94524        -0.54434         5.72646
     2007.94798        -1.31227         5.58017
     2007.95071        -3.25121         5.52435
     2007.95345        -1.21015         5.66679
     2007.95619        -0.97008         5.71298
     2007.95893        13.65998         5.65139
     2007.96167        10.85504         5.62348
     2007.96440        10.63311         5.68122
     2007.96714         1.93317         5.57439
     2007.96988        -4.62477         5.53012
     2007.97262        -8.39470         5.71876
     2007.97535        -2.35564         5.71779
     2007.97809         4.83442         5.61193
     2007.98083        -0.94952         5.61866
     2007.98357       -12.38745         5.63406
     2007.98631         7.23961         5.58209
     2007.98904         4.02667         5.70721
     2007.99178         0.83074         5.64176
     2007.99452        -2.69020         5.75052
     2007.99726         1.81586         5.49259
     2008.00000        -9.58407         5.47719
     2008.00273        -6.14001         5.55611
     2008.00547         3.16305         5.40404
     2008.00821         5.29012         5.49547
     2008.01095         9.54718         5.45505
     2008.01368        -2.32576         5.40404
     2008.01642       -14.59769         5.42233
     2008.01916        -2.74963         5.53205
     2008.02190         2.02643         5.48296
     2008.02464         3.12350         5.45890
     2008.02737        -4.53444         5.44158
     2008.03011        -2.26738         5.47141
     2008.03285        -8.39031         5.41463
     2008.03559       -11.91925         5.46083
     2008.03833       -11.28119         5.43580
     2008.04106        -7.72912         5.54167
     2008.04380       -11.78106         5.49066
     2008.04654       -11.05200         5.50702
     2008.04928        -8.50493         5.59268
     2008.05201        -8.28287         5.35303
     2008.05475        -5.72581         5.35496
     2008.05749        -3.39874         5.37228
     2008.06023         0.40232         5.39538
     2008.06297         6.84538         5.35592
     2008.06570         3.04445         5.29914
     2008.06844        -2.08349         5.33475
     2008.07118         6.53457         5.32801
     2008.07392         5.69064         5.34245
     2008.07666        -2.04930         5.72838
     2008.07939       -22.45024         5.62636
     2008.08213        -3.59717         5.43484
     2008.08487       -10.70211         5.42810
     2008.08761       -10.62805         5.38864
     2008.09034        -2.37298         5.38287
     2008.09308        -1.97192         5.35881
     2008.09582        -0.91786         5.71298
     2008.09856        -2.41679         5.59268
     2008.10130        -5.14773         5.60134
     2008.10403       -11.02567         5.39923
     2008.10677        -6.57460         5.42233
     2008.10951        -1.82854         5.46756
     2008.11225        -5.23048         5.34437
     2008.11498       -17.70242         5.46083
     2008.11772         1.02765         5.46468
     2008.12046        -2.11929         5.37324
     2008.12320        -4.53523         5.49547
     2008.12594         5.50984         5.58594
     2008.12867         0.21290         5.34726
     2008.13141         3.49496         5.34822
     2008.13415        -6.72897         5.50221
     2008.13689         8.69109         5.40115
     2008.13963         0.74415         5.37517
     2008.14236         2.46822         5.36554
     2008.14510         1.39528         5.36170
     2008.14784         9.91134         5.32127
     2008.15058         2.24241         5.36266
     2008.15331        -3.65053         5.39731
     2008.15605        -5.18547         5.47045
     2008.15879        -3.08440         5.39346
     2008.16153        -9.16634         5.41270
     2008.16427        -0.71228         5.47430
     2008.16700        -4.01721         5.37421
     2008.16974        -5.66115         5.53397
     2008.17248        -3.15709         5.35015
     2008.17522        -1.18802         5.39923
     2008.17796        -5.98796         5.40693
     2008.18069       -10.08490         5.37902
     2008.18343         2.23617         5.40115
     2008.18617        -8.95077         5.32801
     2008.18891        -3.67571         5.50606
     2008.19164        -8.02564         5.49259
     2008.19438         0.83442         5.34918
     2008.19712        -0.98752         5.41752
     2008.19986         0.78355         5.38961
     2008.20260         0.72261         5.34245
     2008.20533         3.32567         5.47911
     2008.20807        -1.28126         5.52723
     2008.21081        -5.91220         5.76688
     2008.21355         0.86186         5.45313
     2008.21629        -2.49007         5.47815
     2008.21902        -5.36001         5.52723
     2008.22176        -8.14295         5.42618
     2008.22450        -2.65188         5.49259
     2008.22724        -5.31382         5.44639
     2008.22997         2.29924         5.47526
     2008.23271         0.26031         5.61578
     2008.23545         5.14537         5.59845
     2008.23819        -2.07757         5.52723
     2008.24093        -1.49950         5.36266
     2008.24366        -9.19044         5.43869
     2008.24640         3.75062         5.35207
     2008.24917         4.67170         5.38576
     2008.25188         2.80675         5.40789
     2008.25462         4.47281         5.29433
     2008.25735        -4.93513         5.45120
     2008.26009         2.95094         5.33186
     2008.26283         0.94900         5.30876
     2008.26557        -1.64694         5.37517
     2008.26830        -4.10487         5.30972
     2008.27104        -0.58381         5.32512
     2008.27378        -1.80875         5.71491
     2008.27652        -3.61468         5.36073
     2008.27926         1.27238         5.49451
     2008.28199         3.17344         5.39731
     2008.28473         6.92751         5.41174
     2008.28747         9.31957         5.43869
     2008.29021        -0.37737         5.53782
     2008.29295         0.47370         5.33475
     2008.29568         4.04376         5.36458
     2008.29842         0.90782         5.39827
     2008.30116         1.96189         5.33763
     2008.30390        -2.35105         5.33571
     2008.30663         0.24001         5.39731
     2008.30937        -8.47492         5.51087
     2008.31211        -6.72786         5.44158
     2008.31485        -5.21880         5.35592
     2008.31759        -7.44373         5.48489
     2008.32032        -3.67767         5.43773
     2008.32306        -5.75561         5.52435
     2008.32580         1.30646         5.64080
     2008.32848         0.39450         5.50895
     2008.33128         0.24858         5.40500
     2008.33401        -1.74835         5.39346
     2008.33675        -2.54229         5.42810
     2008.33949        -1.41223         5.41559
     2008.34223        -2.39816         5.50606
     2008.34496         0.35490         5.35111
     2008.34770         4.18296         5.33571
     2008.35044         2.36003         5.32031
     2008.35318         3.33009         5.31357
     2008.35592        -2.86585         5.37228
     2008.35865         1.43522         5.29721
     2008.36139         1.00028         5.24428
     2008.36413         3.20934         5.29914
     2008.36687         1.26641         5.27411
     2008.36961        -8.94253         5.26930
     2008.37234        -1.35947         5.25102
     2008.37508        -2.73540         5.37709
     2008.37782        -8.81034         5.53878
     2008.38056         0.49172         5.35881
     2008.38329        -3.93721         5.51183
     2008.38603         5.51785         5.29625
     2008.38877        -0.21909         5.37806
     2008.39151        -0.65203         5.38576
     2008.39425        -2.82096         5.27700
     2008.39698         1.03210         5.29529
     2008.39972         6.76616         5.25198
     2008.40246         1.85223         5.26545
     2008.40520         3.05529         5.25198
     2008.40794         2.10935         5.38768
     2008.41067         4.46542         5.22022
     2008.41341         0.75548         5.32609
     2008.41615         0.91754         5.27219
     2008.41889        -0.21139         5.24332
     2008.42162        -1.34833         5.38768
     2008.42436         0.80873         5.28470
     2008.42710        -3.70420         5.43676
     2008.42984        -5.97014         5.35881
     2008.43258         3.93392         5.41367
     2008.43531        -5.09101         5.40789
     2008.43805         1.82605         5.44543
     2008.44079         0.94511         5.33667
     2008.44353        -9.98382         5.26641
     2008.44626        -3.68476         5.28566
     2008.44900       -10.78770         5.30587
     2008.45174        -4.01563         5.48874
     2008.45448        -0.86257         5.44158
     2008.45722        -0.00451         5.28181
     2008.45995        -9.73044         5.34245
     2008.46269        -4.66838         5.26353
     2008.46543        -1.20232         5.27508
     2008.46817        -4.92725         5.37806
     2008.47091        -7.49419         5.41367
     2008.47364        -4.78113         5.36073
     2008.47638        -3.65406         5.28181
     2008.47912        -4.29100         5.31261
     2008.48186        -1.36194         5.33282
     2008.48459        -3.01787         5.37036
     2008.48733        -2.05181         5.30491
     2008.49007        -1.82075         5.28278
     2008.49281         5.35632         5.50895
     2008.49555        -0.49762         5.49836
     2008.49828        -2.96756         5.47334
     2008.50102        -0.48249         5.50510
     2008.50376         8.15757         5.48489
     2008.50650         0.55063         5.42907
     2008.50924        -9.90230         5.41270
     2008.51197        -0.68724         5.32512
     2008.51471        -3.85318         5.32801
     2008.51745         2.24289         5.37613
     2008.52019         8.93895         5.38961
     2008.52292        -1.63999         5.63406
     2008.52566         5.44507         5.52242
     2008.52840         2.40214         5.31454
     2008.53114         6.06920         5.35688
     2008.53388         5.74026         5.37806
     2008.53661         1.24833         5.30876
     2008.53935         3.10439         5.35015
     2008.54209         4.61145         5.28181
     2008.54483         3.50352         5.58209
     2008.54757         9.45858         5.34822
     2008.55030         0.50464         5.42233
     2008.55304         7.85771         5.50125
     2008.55578         3.97377         5.38287
     2008.55852         1.96083         5.36266
     2008.56125        -0.50810         5.25679
     2008.56399         1.78096         5.33763
     2008.56673        11.87902         5.33378
     2008.56947         6.10009         5.35496
     2008.57221        11.33115         5.56284
     2008.57494        13.36521         5.52627
     2008.57768         4.74528         5.48200
     2008.58042         1.07934         5.43965
     2008.58316        -1.91660         5.36073
     2008.58590        13.68247         5.36554
     2008.58863        10.16053         5.43292
     2008.59137         5.97359         5.27411
     2008.59411         6.83966         5.29817
     2008.59685         9.45772         5.44831
     2008.59958         6.48478         5.57439
     2008.60232         8.50985         5.63406
     2008.60506         0.51991         5.71106
     2008.60780         1.14797         5.37613
     2008.61054         3.50704         5.41463
     2008.61327         4.60510         5.40885
     2008.61601        17.21116         5.46756
     2008.61875        12.81023         5.39346
     2008.62149         9.75629         5.40885
     2008.62343        12.45304         8.42030
     2008.63626         9.78502        12.93409
     2008.63791         1.94967         5.50029
     2008.64065        11.94573         5.35977
     2008.64339         7.18980         5.41463
     2008.64613        13.81486         5.65427
     2008.64887        -2.05108         5.77169
     2008.65160        10.04299         5.34822
     2008.65434         6.51905         5.75437
     2008.65708         9.63311         5.69855
     2008.65982         6.82118         5.41559
     2008.66256        11.58224         5.62636
     2008.66529         5.11130         5.40885
     2008.66803        -1.59664         5.47045
     2008.67077        -0.75757         5.48681
     2008.67351         1.89149         5.48296
     2008.67624         4.69155         5.92087
     2008.67898         5.20562         5.51183
     2008.68172         3.45268         5.38672
     2008.68446         6.26374         5.43580
     2008.68720         6.79181         5.42714
     2008.68993         6.46687         5.51568
     2008.69267        -0.90007         5.45505
     2008.69541        11.93600         5.33956
     2008.69815        11.66606         5.48777
     2008.70089         8.89312         5.50606
     2008.70362         8.61519         5.37613
     2008.70636        11.16825         5.34533
     2008.70910         9.31231         5.45601
     2008.71184         5.83738         5.55322
     2008.71457         0.75544         5.45024
     2008.71731         4.44750         5.31357
     2008.72005         6.46457         5.34918
     2008.72279         8.11363         5.39442
     2008.72553        -3.22731         5.50798
     2008.72826         3.66676         5.39827
     2008.73100        -1.19118         5.67737
     2008.73374         4.06588         5.56573
     2008.73648         5.10695         5.33378
     2008.73921         0.31801         5.35496
     2008.74469         4.43714         5.37902
     2008.74743         2.46620         5.37228
     2008.75017         8.36826         5.38479
     2008.75290         9.73333         5.48489
     2008.75564         6.07339         5.47237
     2008.75838         9.26445         5.59942
     2008.76112         2.97552         5.37324
     2008.76386         2.13158         5.43195
     2008.76659        10.00964         6.07486
     2008.76933        -2.71529         5.44735
     2008.77207        -4.32023         5.32609
     2008.77481        -5.31617         5.29336
     2008.77754        -0.08910         5.31069
     2008.78028         0.25796         5.32224
     2008.78302         1.82502         5.33667
     2008.78576        -4.05691         5.28566
     2008.78850        -8.67385         5.40500
     2008.79123        -0.43079         5.51761
     2008.79397        -5.35972         5.28181
     2008.79671        -0.31966         5.59557
     2008.79945        -2.43960         5.35592
     2008.80219         8.69646         5.66967
     2008.80492        -1.53747         5.31454
     2008.80766        -4.53841         5.32994
     2008.81040        -1.97035         5.61674
     2008.81314         0.79972         8.42703
     2008.81587        -0.40322         5.42907
     2008.81861        -0.01916         5.33475
     2008.82135        -2.45209         5.33571
     2008.82409        -5.11603         5.44928
     2008.82683        -0.31997         5.43195
     2008.82956         6.11410         5.34148
     2008.83230         2.61916         5.37806
     2008.83504         2.20322         5.40115
     2008.83778         3.46629         5.60423
     2008.84052        11.10735         5.51280
     2008.84325         4.61241         5.41367
     2008.84599         2.39448         5.38094
     2008.84873        -8.35846         5.45601
     2008.85147        -9.73740         5.40115
     2008.85420        -8.76233         5.74474
     2008.85694         1.46073         5.49547
     2008.85968         4.64779         5.37228
     2008.86242        -3.16214         5.42522
     2008.86516         5.64192         5.50606
     2008.86789         0.19498         5.40308
     2008.87063        -8.99995         5.49066
     2008.87337        -9.46189         5.38576
     2008.87611        -2.65183         5.36843
     2008.87885        -3.47576         5.33475
     2008.88158       -11.94870         5.32224
     2008.88432         0.22136         5.40597
     2008.88706       -11.15057         5.60327
     2008.88980         2.29449         5.54071
     2008.89253         1.43055         5.45216
     2008.89527       -10.71238         5.46852
     2008.89801        -2.46832         5.45601
     2008.90075         0.76974         5.41848
     2008.90349        -5.14419         5.47526
     2008.90622        -9.77713         5.53974
     2008.90896         3.11693         5.40500
     2008.91170        -6.60800         5.40019
     2008.91444        -3.31894         5.35977
     2008.91718         3.93012         5.51087
     2008.91991         3.72919         5.53782
     2008.92265        -9.84675         5.40019
     2008.92539       -16.01469         5.49547
     2008.92813         2.04038         5.40308
     2008.93086        -4.11456         5.43676
     2008.93360        -3.50250         5.57632
     2008.93634        -1.13443         5.43869
     2008.93908       -11.21537         5.38191
     2008.94182        -9.57931         5.46179
     2008.94455        -0.00525         5.49066
     2008.94729        -1.28318         5.52146
     2008.95003        -8.72512         5.41752
     2008.95277         0.51994         5.30972
     2008.95551         0.14901         5.30780
     2008.95824        -3.91793         5.31839
     2008.96098        -9.79187         5.41752
     2008.96372        -2.68280         5.36170
     2008.96646        -7.23974         5.50895
     2008.96919        -7.50668         5.32127
     2008.97193       -18.49061         5.47045
     2008.97741        -4.89749         5.49644
     2008.98015         6.61158         5.57535
     2008.98562        -1.95630         5.35400
     2008.98836        -0.08723         5.38672
     2008.99110        -1.63617         5.47141
     2008.99384        -1.02011         5.42618
     2008.99657        -3.28704         5.28278
     2008.99931        -4.96998         5.50895
     2009.00479        -0.30885         5.43965
     2009.00752         2.75121         5.29914
     2009.01026        -1.53673         5.27026
     2009.01300         4.55334         5.36073
     2009.01574        -7.62360         5.39923
     2009.01848        -0.06054         5.50221
     2009.02121         6.05053         5.49451
     2009.02395        -6.21241         5.41752
     2009.02669       -14.76435         5.33090
     2009.02943        -8.75428         5.36939
     2009.03216       -12.90522         5.30876
     2009.03490       -13.54416         5.28759
     2009.03764        -9.34109         5.30491
     2009.04038        -8.35703         5.30587
     2009.04312        -9.90397         5.27700
     2009.04585       -10.35490         5.33186
     2009.04859        -8.89584         5.30876
     2009.05133        -6.42078         5.35207
     2009.05407        -5.69371         5.29914
     2009.05681        -2.32765         5.30684
     2009.05954        -2.03759         5.35111
     2009.06228        -6.66252         5.65427
     2009.06502        -9.23446         5.36458
     2009.06776        -3.23740         5.38864
     2009.07049        -3.95233         5.29914
     2009.07323        -3.05727         5.40500
     2009.07597        -5.61521         5.29240
     2009.07871        -8.22415         5.33667
     2009.08145        -6.78308         5.34630
     2009.08418        -7.86302         5.43773
     2009.08692        -6.29196         5.31069
     2009.08966        -8.86289         5.34341
     2009.09240        -6.54083         5.31646
     2009.09514        -3.02177         5.30491
     2009.09787        -5.85370         5.34341
     2009.10061         5.53736         5.32224
     2009.10335        -2.34958         5.33667
     2009.10609        -2.70451         5.31839
     2009.10882        -3.85245         5.33186
     2009.11156       -12.70439         5.39153
     2009.11430        -7.73032         5.46275
     2009.11704        -0.60126         5.42040
     2009.11978         0.59980         5.26834
     2009.12251        -2.20113         5.28855
     2009.12525        -6.32707         5.25679
     2009.12799        -0.13201         5.29625
     2009.13073         2.54906         5.34052
     2009.13347         0.02612         5.29433
     2009.13620        -7.14282         5.30395
     2009.13894        -6.51875         5.30299
     2009.14168        -7.22669         5.29433
     2009.14442        -0.96863         5.35688
     2009.14715        -7.49956         5.62540
     2009.14989        -0.76450         5.41559
     2009.15263        -3.32844         5.33956
     2009.15537        -6.96237         5.49451
     2009.15811        -7.57931         5.40404
     2009.16084        -4.12025         5.35496
     2009.16358         1.49682         5.41078
     2009.16632         6.59788         5.40597
     2009.16906         3.18594         5.45890
     2009.17180        -0.47699         5.32512
     2009.17453        -9.13593         5.30876
     2009.17727         3.66113         5.41848
     2009.18001         2.80920         5.33090
     2009.18275        -9.09874         5.39346
     2009.18548        -5.42668         5.33186
     2009.18822       -13.14661         5.32512
     2009.19096        -8.30055         5.34341
     2009.19370        -0.41449         5.27604
     2009.19644        -5.24442         5.33475
     2009.19917        -0.11736         5.36458
     2009.20191        -3.80930         5.40789
     2009.20465        -3.89023         5.42137
     2009.20739         1.81883         5.42714
     2009.21013        -9.17211         5.30587
     2009.21286        -4.39404         5.27026
     2009.21560         0.87702         5.27893
     2009.21834        -1.06892         5.32320
     2009.22108         5.34514         5.34245
     2009.22381        -4.55579         5.27893
     2009.22655        -0.84273         5.31935
     2009.22929        -5.57967         5.26160
     2009.23203        -2.66460         5.37421
     2009.23477        -5.94454         5.40019
     2009.23750         4.66052         5.37709
     2009.24024        -6.49941         5.53590
     2009.24298        -0.10935         5.33860
     2009.24572         2.99671         5.40597
     2009.24846        -2.08622         5.45890
     2009.25119         4.11184         5.55611
     2009.25393        -5.22710         5.55322
     2009.25667        -5.47303         5.35207
     2009.25941        -7.82997         5.34822
     2009.26214         0.55809         5.59749
     2009.26488        -6.73084         5.37324
     2009.26762         1.63522         5.36651
     2009.27036         0.12428         5.37613
     2009.27310        -6.90065         5.36073
     2009.27583        -0.06759         5.40212
     2009.27857        -4.05153         5.39538
     2009.28131         0.62854         5.54071
     2009.28405        -2.29740         5.43195
     2009.28679        -1.64534         5.43292
     2009.28952        -9.42827         5.50413
     2009.29226       -12.40321         5.52820
     2009.29500       -10.65715         5.63887
     2009.29774        -8.52808         5.44350
     2009.30047        -7.48102         5.37806
     2009.30321        -9.92496         5.40500
     2009.30595        -9.16289         5.53301
     2009.30869        -6.07983         5.44543
     2009.31143        -3.66277         5.35977
     2009.31416        -0.43470         5.38576
     2009.31690        -8.65364         5.36458
     2009.31964        -1.10358         5.42714
     2009.32238         1.06749         5.37324
     2009.32512        -8.88245         5.49355
     2009.32785        -5.94339         5.50702
     2009.33059        -7.70532         5.37806
     2009.33333        -2.01226         5.56381
     2009.33607        -3.67120         5.44639
     2009.33880        -7.25213         5.41463
     2009.34154         6.46893         5.69470
     2009.34428        -9.49401         5.59845
     2009.34702        -9.22594         5.46275
     2009.34976       -10.53888         5.40019
     2009.35249       -17.00882         5.51953
     2009.35523       -11.21276         5.41752
     2009.35797       -10.33769         5.53397
     2009.36071       -12.13663         5.57728
     2009.36344        -8.87957         5.40693
     2009.36618         0.84950         5.53108
     2009.36892        -7.94744         5.41078
     2009.37166       -11.62538         5.42425
     2009.37440       -10.15731         5.34437
     2009.37713       -13.01025         5.40212
     2009.37987       -13.25819         5.73127
     2009.38261        -5.52412         5.40019
     2009.38535        -9.27106         5.37421
     2009.38809       -10.35300         5.38287
     2009.39082        -9.94893         5.40115
     2009.39356       -10.81587         5.40789
     2009.39630       -12.93681         5.38383
     2009.39904        -3.43874         5.40212
     2009.40177        -7.82768         5.44735
     2009.40451        -3.76862         5.41559
     2009.40725        -0.92255         5.44254
     2009.40999       -10.21149         5.44735
     2009.41273       -11.47743         5.37902
     2009.41546         3.56064         5.37228
     2009.41820        -5.73230         5.40982
     2009.42094        -5.35124         5.41078
     2009.42368        -3.14417         5.57247
     2009.42642        -4.77111         5.54456
     2009.42915        -2.37105         5.46179
     2009.43189        -2.33998         5.41848
     2009.43463         0.23408         5.53397
     2009.43737        -2.84186         5.41559
     2009.44010         0.05321         5.36362
     2009.44284        -2.09973         5.30202
     2009.44558        -5.41967         5.36843
     2009.44832         1.57540         5.40404
     2009.45106        -4.11754         5.40982
     2009.45379        -3.80048         5.37132
     2009.45653        -2.41841         5.39634
     2009.45927        -8.90935         5.42618
     2009.46201         1.25171         5.37709
     2009.46475         2.64678         5.46660
     2009.46748         0.93584         5.41848
     2009.47022         1.25290         5.46468
     2009.47296       -10.02903         5.36747
     2009.47570        -3.60597         5.37324
     2009.47843         0.97709         5.58690
     2009.48117        -4.16684         5.37613
     2009.48391        -0.09978         5.39923
     2009.48665        -3.48172         5.43773
     2009.48933         1.26932         5.67833
     2009.49224         2.63745         5.68122
     2009.49486        -4.35553         5.42907
     2009.49760        -0.36747         5.35592
     2009.50034         3.51660         5.33090
     2009.50308         4.13466         5.39057
     2009.50581         1.00472         5.34822
     2009.50855        -6.07521         5.58979
     2009.51129        -2.87515         5.42810
     2009.51403         4.98691         5.30684
     2009.51676         4.77998         5.32994
     2009.51950        -7.58396         5.35592
     2009.52224        -1.51590         5.41848
     2009.52498         1.05317         5.41078
     2009.52772        -0.33977         5.38383
     2009.53045        -4.95771         5.33956
     2009.53319        -3.99164         5.33571
     2009.53593         0.27342         5.36073
     2009.53867        -1.33752         5.35207
     2009.54141        -0.84745         5.36170
     2009.54414         1.41861         5.35688
     2009.54688         1.95267         5.34341
     2009.54962         4.43674         5.35688
     2009.55236         1.52180         5.43580
     2009.55509         8.44686         5.41752
     2009.55783         6.26993         5.37036
     2009.56057         7.15099         5.62444
     2009.56331        -1.21395         5.61674
     2009.56605         6.46712         5.57247
     2009.56878         4.93218         5.34245
     2009.57152         6.46624         5.56862
     2009.57426         6.31231         5.49259
     2009.57700         5.78137         5.66582
     2009.57974         2.85743         5.42522
     2009.58247         5.13350         5.51183
     2009.58521         6.51156         5.56573
     2009.58795         8.12362         5.44446
     2009.59069        -2.31231         5.45601
     2009.59342        -1.55125         5.48296
     2009.59616         3.99181         5.47045
     2009.59890        -1.41612         5.53301
     2009.60164        -9.17506         5.51857
     2009.60438        -1.30600         5.72068
     2009.60711        -0.78093         5.38864
     2009.60985        -5.20787         5.43195
     2009.61259        -4.13481         5.79190
     2009.61533        -3.52274         5.57247
     2009.61807         7.58432         5.36651
     2009.62080         5.36338         5.39249
     2009.62354         2.32145         5.40212
     2009.62628         4.62451         5.70336
     2009.62902         8.47757         5.39153
     2009.63175        11.12663         5.40115
     2009.63449        -2.65230         5.58209
     2009.63729        -0.58722         5.52916
     2009.63997        -4.69418         5.42040
     2009.64271        -1.48311         5.47141
     2009.64544         5.08095         5.43965
     2009.64824        -3.52996         6.05561
     2009.65092        -1.34392         5.45505
     2009.65366         1.28614         5.54552
     2009.65639        -1.79880         5.52723
     2009.65913        -5.93773         5.35015
     2009.66187         2.27833         5.34533
     2009.66461         1.51439         5.37806
     2009.66735         2.45346         5.81019
     2009.67008        -1.08748         5.46756
     2009.67282        -0.35342         5.64465
     2009.67556         6.89465         5.34918
     2009.67830        -5.92129         5.82847
     2009.68104        -1.21323         5.85446
     2009.68377        -9.68516         5.47237
     2009.68651         3.51390         5.45505
     2009.68925        -1.08104         5.45505
     2009.69199         5.16303         5.58594
     2009.69472         7.70409         5.47334
     2009.69746         6.11915         5.36939
     2009.70020         4.17422         5.65139
     2009.70294        -0.59072         5.64272
     2009.70568         1.62534         5.51280
     2009.70841         9.40141         5.61385
     2009.71115         0.02147         5.62251
     2009.71389         0.10653         5.56188
     2009.71663       -12.58340         5.69277
     2009.71937        -3.75334         5.57343
     2009.72210         0.99272         5.41944
     2009.72484         6.07779         5.56284
     2009.72758        -1.62915         5.44061
     2009.73032         7.78891         5.56092
     2009.73305         4.55198         5.44831
     2009.73579        -1.14096         5.53493
     2009.73853         4.80810         5.39538
     2009.74127         5.46217         5.51665
     2009.74401         0.01823         5.74089
     2009.74674         3.69129         5.42907
     2009.74948        -0.09664         5.38287
     2009.75222        -5.05358         5.44350
     2009.75496        -2.96952         5.50317
     2009.75770         2.61855         5.41367
     2009.76043        -0.18739         5.38094
     2009.76317        -1.34033         5.40982
     2009.76591         2.61674         5.41752
     2009.76865        -6.39620         5.53301
     2009.77138        -4.84014         5.45120
     2009.77412        -2.24108         5.39634
     2009.77686         1.76399         5.45024
     2009.77960         1.90205         5.40212
     2009.78234         8.57711         5.45794
     2009.78507        11.62118         5.73031
     2009.78781        -3.20676         5.66582
     2009.79055       -10.83470         5.83521
     2009.79329         0.90337         6.03347
     2009.79603        -3.29057         5.61963
     2009.79876         0.26549         5.61385
     2009.80150        -4.70944         5.52627
     2009.80424         7.23562         5.80153
     2009.80698        -1.10532         5.55611
     2009.80971         0.60275         5.65909
     2009.81245         3.81281         5.67545
     2009.81519         0.22087         5.59653
     2009.81793        -2.96006         5.85927
     2009.82067         7.17900         5.61578
     2009.82340         2.38406         5.52050
     2009.82614         7.23413         5.53301
     2009.82888         5.19419         5.47141
     2009.83162         0.18325         5.99690
     2009.83436        -8.46468         5.44543
     2009.83709        -6.51962         5.54167
     2009.83983        -3.60656         5.53590
     2009.84257         1.92151         5.69566
     2009.84536        -5.16941         5.89392
     2009.84804        13.60063         5.94589
     2009.85078         4.81470         5.58787
     2009.85352         8.37976         5.62251
     2009.85626         3.25982         5.66294
     2009.85900        -6.91211         5.81404
     2009.86173         7.15695         5.71587
     2009.86441         5.49099         6.08352
     2009.86721        -2.27892         5.78709
     2009.86995         0.25114         5.61866
     2009.87269         9.67320         5.60808
     2009.87542         2.37427         5.68122
     2009.87816        11.60733         5.75148
     2009.88084         2.67937         6.49351
     2009.88364         8.22046         5.58690
     2009.88637        14.47952         5.59268
     2009.88911         7.87958         5.51665
     2009.89185        -5.44135         5.78516
     2009.89459        -8.60329         5.60134
     2009.89733        -6.35423         5.58113
     2009.90006        -4.85716         5.48777
     2009.90280        -2.55610         5.45601
     2009.90554         0.73396         5.76495
     2009.90828       -13.73998         5.51472
     2009.91102       -10.77591         5.41270
     2009.91375        -2.90385         5.34630
     2009.91649         1.50021         5.48007
     2009.91923         0.08728         5.36170
     2009.92197        -3.21966         5.54552
     2009.92470        -9.08160         5.48104
     2009.92744        -4.06453         5.41463
     2009.93018         2.75653         5.51568
     2009.93292         3.68459         5.33763
     2009.93566         0.81266         5.34437
     2009.93839        -1.37628         5.54841
     2009.94113        -0.29322         5.43965
     2009.94387        -2.31515         5.52146
     2009.94661        -1.67609         5.52627
     2009.94935         5.67097         5.35207
     2009.95208         0.30704         5.84291
     2009.95482        -6.05890         5.48970
     2009.95756        -7.30684         5.69951
     2009.96030         0.55523         5.43099
     2009.96303         1.00729         5.38094
     2009.96577        -3.58165         5.52531
     2009.96851        -9.43458         5.63310
     2009.97125        -4.42052         5.61000
     2009.97399         0.17054         5.44446
     2009.97672        -2.84839         5.32512
     2009.97946       -10.00933         5.25679
     2009.98220        -3.90027         5.27026
     2009.98494         1.54780         5.30587
     2009.98767        -0.65214         5.34437
     2009.99041        -0.32208         5.31165
     2009.99315        -3.85401         5.34630
     2009.99863        -4.89189         5.48681
     2010.00410        -6.85376         5.38576
     2010.00684        -7.37370         5.40597
     2010.00958        -7.00563         5.43773
     2010.01232        -1.41757         5.54648
     2010.01505        -4.96551         5.37228
     2010.01779        -0.09744         5.46660
     2010.02053        -0.02538         5.49259
     2010.02327        -0.16032         6.07486
     2010.02600       -13.66225         5.47622
     2010.02874        -2.67519         5.54648
     2010.03148         9.41287         5.40982
     2010.03422        -6.77606         5.53108
     2010.03696        -2.52300         5.75918
     2010.03969        -5.68694         5.55803
     2010.04243        -0.08888         5.33667
     2010.04517         4.08919         5.44446
     2010.04791         9.18025         5.97380
     2010.05065         9.96831         5.52820
     2010.05338         3.89538         5.63599
     2010.05612         6.27644         5.47526
     2010.05886         5.15050         5.30972
     2010.06160        -0.52243         5.36939
     2010.06433        -5.26737         5.37036
     2010.06707        -4.68331         5.45120
     2010.06981        -5.66924         5.45216
     2010.07255        -8.22118         5.74089
     2010.07529        -9.68912         5.45409
     2010.07802        -6.05805         5.37324
     2010.08076        -5.07799         5.34148
     2010.08350         3.20407         5.27411
     2010.08624        -0.20186         5.39923
     2010.08898         6.70620         5.57247
     2010.09171        14.36926         5.32320
     2010.09445         6.17333         5.46179
     2010.09719         8.43139         5.71779
     2010.09993        -1.45055         5.32416
     2010.10266         5.60352         5.34052
     2010.10540         0.02458         5.38383
     2010.10814         3.31864         5.45505
     2010.11088        -0.89229         5.51953
     2010.11362        -0.40123         5.51761
     2010.11635         9.19683         5.57632
     2010.11909         6.75690         5.42233
     2010.12194        -1.77100         5.62829
     2010.12457         1.44802         5.31742
     2010.12731         1.63609         5.48681
     2010.13004        -3.63885         5.41848
     2010.13278         1.32021         5.37902
     2010.13552         0.46828         5.34918
     2010.13826         1.66534         5.28181
     2010.14099         0.43640         5.26930
     2010.14368         3.92944         5.65235
     2010.14647        -5.33947         5.68507
     2010.14921         0.82959         5.40212
     2010.15177         1.14359         5.63406
     2010.15468         4.92872         5.26834
     2010.15748         2.00580         5.50991
     2010.16016        -4.74315         5.33090
     2010.16290        -0.47009         5.33186
     2010.16564        -7.32603         5.33860
     2010.16837         2.18304         5.29336
     2010.17111         2.26310         5.66101
     2010.17385        -4.24984         5.40308
     2010.17659        -4.04577         5.27123
     2010.17932         4.64929         5.30684
     2010.18206         3.81635         5.27893
     2010.18480         4.67441         5.31165
     2010.18754         4.63148         5.29721
     2010.19028         1.41154         5.32320
     2010.19301         9.88060         5.45601
     2010.19575         1.92967         5.39057
     2010.19849        -0.68727         5.25102
     2010.20128        -0.52518         5.45120
     2010.20397        -1.50114         5.48489
     2010.20670        -5.23508         5.47141
     2010.20853        -4.58037         9.72343
     2010.22907        -1.72839         6.95933
     2010.23134        -4.99151         5.51376
     2010.23408        -5.73345         5.69566
     2010.23956        -0.65432         5.68507
     2010.24230         3.72874         5.68218
     2010.24503        -2.55319         5.54841
     2010.24777        -1.87613         5.61578
     2010.25051         8.58593         5.66005
     2010.25325        -0.18700         5.51665
     2010.25598        -2.44294         5.49644
     2010.25872        -1.45388         5.50413
     2010.26146         8.92319         5.86408
     2010.26420         5.77325         5.55514
     2010.26694        -1.45169         5.63406
     2010.26967        -1.24362         5.53205
     2010.27241         2.98444         5.47622
     2010.27515         2.94950         5.36747
     2010.27789         1.47657         5.55996
     2010.28062         6.96263         5.64080
     2010.28336        -4.19331         5.50029
     2010.28610        -5.85924         5.49932
     2010.28884        -3.88918         5.31742
     2010.29158         1.50488         5.45698
     2010.29431        -5.39505         5.49644
     2010.29705        -0.03099         5.51568
     2010.29979         0.38807         5.43292
     2010.30264         9.31618         5.70817
     2010.30527        11.14820         6.83325
     2010.30800         0.82326         5.38961
     2010.31074        -1.24367         5.48489
     2010.31348        -2.00861         5.33475
     2010.31622         7.77145         5.41270
     2010.31895        -0.36449         5.54744
     2010.32169         7.70358         5.36554
     2010.32443         4.73564         5.41944
     2010.32717        12.12670         5.29529
     2010.32996         3.11579         5.93242
     2010.33264         7.95283         5.35111
     2010.33538        12.10989         5.61481
     2010.33812        -1.62304         5.35303
     2010.34086         2.49602         5.30684
     2010.34360        -1.31992         5.26353
     2010.34633        -0.01185         5.37709
     2010.34907        -5.28379         5.32705
     2010.35181         0.81627         5.89681
     2010.35455        -0.26566         5.27796
     2010.35728         1.83740         5.31454
     2010.36002         2.58846         5.37709
     2010.36276        -2.01547         5.32416
     2010.36550        -0.10841         5.52916
     2010.36824         0.79965         5.49836
     2010.37097        -4.04428         5.51087
     2010.37365        -1.50424         5.85927
     2010.37645         3.37484         5.45505
     2010.37919         1.41891         5.89296
     2010.38193        -5.92503         5.69566
     2010.38466         0.27103         5.40212
     2010.38740         5.72310         5.38961
     2010.39014         5.92116         5.35015
     2010.39288        -5.64878         5.34052
     2010.39561        -5.06571         5.66294
     2010.39835        -1.21465         5.43580
     2010.40109        -3.92759         5.30587
     2010.40383        -3.71052         5.29144
     2010.40657         0.48354         5.30972
     2010.40930         0.31660         5.29721
     2010.41204        -3.74733         5.30010
     2010.41478         1.98373         5.27411
     2010.41746        13.56777         5.92953
     2010.42026         1.30486         5.33860
     2010.42299        10.88992         5.23080
     2010.42573        -6.37102         5.26064
     2010.42847        -7.58095         5.41463
     2010.43121         2.02011         5.23273
     2010.43394         0.00317         5.38576
     2010.43668       -14.49576         5.32994
     2010.43942         1.51930         5.24043
     2010.44216        -3.21764         5.26545
     2010.44490         0.10243         5.23947
     2010.44763        -1.11151         5.33282
     2010.45037         2.12955         5.25487
     2010.45311         1.17662         5.26834
     2010.45585        -1.51032         5.25294
     2010.45859         1.01074         5.33571
     2010.46132        -8.23120         6.48678
     2010.46406        -2.56313         5.23273
     2010.46680        -6.64207         5.23850
     2010.46954        -0.84501         5.33282
     2010.47227        -3.16494         5.24620
     2010.47501        -8.00888         5.26449
     2010.47775        -2.85382         5.42137
     2010.48049        -5.23475         5.44928
     2010.48323        -2.04369         5.95070
     2010.48596         2.34337         5.25487
     2010.48870         4.48944         5.25198
     2010.49144         3.46550         5.34630
     2010.49418         1.77656         5.24043
     2010.49692        -0.42637         5.34341
     2010.49965         1.33769         5.25487
     2010.50239         2.73075         5.31454
     2010.50513         1.00982         6.25194
     2010.50787         0.81488         5.22022
     2010.51060         1.69794         5.19519
     2010.51334         6.76901         5.22888
     2010.51608         2.54107         5.38094
     2010.51882        -1.15087         5.35496
     2010.52156         6.87720         5.34052
     2010.52429         0.77926         5.66101
     2010.52703         8.19932         5.36554
     2010.52977        -0.88761         5.31069
     2010.53251        -0.84555         5.24909
     2010.53525         0.32151         5.21733
     2010.53798        -4.05542         5.22118
     2010.54072        -2.11536         5.26641
     2010.54346        -2.80030         5.59749
     2010.54620        -1.68523         5.27796
     2010.54893         2.39383         5.21733
     2010.55167        -2.86111         5.22503
     2010.55441         0.42396         5.35496
     2010.55715         5.92402         5.23177
     2010.55989         5.54108         5.77458
     2010.56262         0.84415         5.28855
     2010.56536        -0.24879         5.36843
     2010.56810         1.78827         5.25005
     2010.57084         5.56534         5.29529
     2010.57357        -2.41060         5.41559
     2010.57631        -5.18854         5.45409
     2010.57905        -7.91947         5.39538
     2010.58179        -4.88441         5.29529
     2010.58453        -1.80135         5.31742
     2010.58726        -2.80128         5.31069
     2010.59000        -2.01622         5.35881
     2010.59274        -2.46416         5.26257
     2010.59548         4.86090         5.76784
     2010.59822         5.94097         5.34726
     2010.60095         6.57903         5.27219
     2010.60369         3.30309         5.26930
     2010.60643         0.63516         5.24717
     2010.60917         2.36822         5.23947
     2010.61190        -1.88772         5.61866
     2010.61464        -0.67465         5.26353
     2010.61738         5.61541         5.21829
     2010.62012        -0.66553         5.22407
     2010.62286        -0.94646         5.21156
     2010.62559         5.69860         5.31261
     2010.62833         0.25466         5.39153
     2010.63101         2.65471         5.78035
     2010.63381         2.47679         5.26641
     2010.63655         7.19885         5.27700
     2010.63928        -0.84608         5.26834
     2010.64202         0.27998         5.33090
     2010.64476        -1.47496         5.38287
     2010.64750        -0.09789         5.25968
     2010.65023        -7.99383         5.98727
     2010.65297         1.78723         5.46275
     2010.65571         2.03630         5.29625
     2010.65845         8.90936         5.19327
     2010.66119         7.20142         5.28470
     2010.66392         6.80949         5.27989
     2010.66666         7.23355         5.22792
     2010.66940         8.42661         5.21156
     2010.67214         3.80968         5.24524
     2010.67488        10.01874         5.31839
     2010.67761         6.19980         5.18365
     2010.68035         1.24287         5.21444
     2010.68309         9.19793         5.30395
     2010.68583        16.29899         5.40789
     2010.68856         3.24606         5.20867
     2010.69130         4.49112         5.18268
     2010.69404        -3.19982         5.31935
     2010.69678        -3.50975         5.23177
     2010.69952         3.45031         5.20674
     2010.70225         3.38237         5.70817
     2010.70499        -0.75456         5.27989
     2010.70773         8.78150         5.30972
     2010.71047         4.05956         5.26449
     2010.71321         2.76163         5.34726
     2010.71594         5.09369         5.61770
     2010.71868         5.55275         5.22311
     2010.72142        -2.13318         5.77169
     2010.72416         7.85388         5.35015
     2010.72689         8.09394         5.42040
     2010.72963         0.70601         5.27700
     2010.73237        -3.44293         5.35400
     2010.73511        -3.37587         5.48392
     2010.73785         6.15119         5.66582
     2010.74058         3.70526         5.37324
     2010.74332         1.52132         5.28855
     2010.74606         7.45238         5.30587
     2010.74914        -2.66042         6.37513
     2010.75154         6.17051         5.27508
     2010.75427         1.67257         5.76880
     2010.75701         0.34664         5.49740
     2010.75975         3.51670         5.20386
     2010.76249         1.31376         5.23080
     2010.76522         6.66883         5.23562
     2010.76796        -4.06211         5.54937
     2010.77070         5.59695         5.31839
     2010.77344         1.41602         5.40308
     2010.77618        -3.84792         5.22311
     2010.77891        -1.35386         5.22214
     2010.78165        -0.86179         5.19135
     2010.78439        -3.89373         5.28470
     2010.78713         4.46133         5.71491
     2010.78987         1.87440         5.29433
     2010.79260        -0.23254         5.16247
     2010.79534        -2.97648         5.15959
     2010.79808         5.21159         5.18365
     2010.80082         0.05965         5.15670
     2010.80355         5.18171         5.23562
     2010.80624         3.53275         5.63599
     2010.80903         4.87084         5.33282
     2010.81177         5.52790         5.61866
     2010.81439         3.63992         5.53974
     2010.81726         6.83604         5.48681
     2010.81998        10.19709         5.39923
     2010.82272         8.89816         5.50413
     2010.82546         7.56122         5.18653
     2010.82820         7.90528         5.30106
     2010.83093        10.41035         5.49547
     2010.83367        13.09841         5.59749
     2010.83641         7.34147         5.33667
     2010.83915         0.81554         5.28278
     2010.84188         1.00960         5.61385
     2010.84462         3.26066         5.24139
     2010.84736         8.43073         5.33090
     2010.85010         4.54679         5.42810
     2010.85284         6.67285         5.45216
     2010.85557         3.35792         5.26353
     2010.85831         6.33398         5.18268
     2010.86105        -6.36396         5.57824
     2010.86379        -5.35389         5.23947
     2010.86653        -6.34983         5.27411
     2010.86926        -9.39577         5.19616
     2010.87200       -11.36671         5.26545
     2010.87474       -10.52364         5.46468
     2010.87748        -1.93758         5.35881
     2010.88021         5.55948         5.49644
     2010.88295         1.00955         5.56284
     2010.88569         1.36161         5.20289
     2010.88843        -0.46833         5.40019
     2010.89117         4.14774         5.47815
     2010.89390         5.02480         5.31454
     2010.89664         1.24086         5.20578
     2010.89938         1.26493         5.32320
     2010.90212         0.38699         5.25294
     2010.90485        -0.07495         5.22599
     2010.90759         7.50012         5.23754
     2010.91033         8.59018         5.20867
     2010.91307        -3.54176         5.18846
     2010.91581         9.84631         5.26449
     2010.91854        -1.33263         5.96706
     2010.92128        -5.66057         5.61289
     2010.92402         3.90950         5.23850
     2010.92676         9.06756         5.18076
     2010.92950         2.06962         5.23658
     2010.93223        -0.86331         5.23465
     2010.93497         7.58075         5.34533
     2010.93771         0.90981         5.48392
     2010.94045         5.05788         5.34341
     2010.94318         4.88194         5.19038
     2010.94592         1.99700         5.44639
     2010.94866         6.79307         5.52723
     2010.95140        14.73913         5.56092
     2010.95414         1.65919         5.84387
     2010.95687        -0.01574         5.20674
     2010.95961        -3.13868         5.29625
     2010.96235         2.06138         5.31742
     2010.96509         0.47145         5.41174
     2010.96783         0.17151         5.30395
     2010.97056         0.83957         5.30684
     2010.97330         0.66464         5.35015
     2010.97604         1.86370         5.27604
     2010.97878        -4.60124         5.26738
     2010.98151         1.97683         5.31069
     2010.98425         1.33889         5.39731
     2010.98699         5.17695         5.31742
     2010.98967         6.09699         5.53686
     2010.99247         1.87008         5.53686
     2010.99520        -0.25286         5.40019
     2010.99794        -3.82379         5.23562
     2011.00342         2.31233         5.24043
     2011.00616         3.86640         5.12590
     2011.00889         2.70346         5.26064
     2011.01163         0.78152         5.17210
     2011.01437        -1.17742         5.22503
     2011.01711        -6.86735         5.38672
     2011.01984        -4.52729         5.30106
     2011.02258        -4.89823         5.17498
     2011.02532        -1.43116         5.34918
     2011.02806        -1.10810         5.49836
     2011.03353        -1.35997         5.24235
     2011.03627        -2.32491         5.31839
     2011.03901       -10.38385         5.17498
     2011.04175        -2.43078         5.31550
     2011.04449         1.58328         5.26834
     2011.04722       -10.86466         5.26930
     2011.04996        -2.49859         5.25390
     2011.05270        -8.69053         5.12109
     2011.05544        -1.76447         5.16247
     2011.05817         0.49960         5.25583
     2011.06091        -6.26334         5.15285
     2011.06365         2.56872         5.88429
     2011.06639        -9.93221         5.17787
     2011.06913       -11.92815         5.55418
     2011.07186        -5.73709         5.16825
     2011.07460        -7.25602         5.25005
     2011.07734        -0.38796         5.22311
     2011.08008        -4.21090         5.11820
     2011.08282        -6.80383         5.18846
     2011.08555        -4.16377         5.13360
     2011.08829        -4.09671         5.19231
     2011.09103       -12.19864         5.18557
     2011.09377        -0.14158         5.26160
     2011.09650        -0.20652         5.17787
     2011.09924        -3.37545         5.23947
     2011.10198         0.86361         5.57054
     2011.10472        -1.81333         5.22792
     2011.10746        -6.24826         5.64465
     2011.11019        -5.46620         5.94108
     2011.11293       -10.90214         5.70047
     2011.11567         2.02293         5.53012
     2011.11841        -1.47901         5.87275
     2011.12115         1.83006         5.96321
     2011.12388         5.70011         5.95840
     2011.12662         2.59218         6.27215
     2011.12936         1.17324         5.76784
     2011.13210        -0.77169         5.80730
     2011.13483        -7.15263         5.25102
     2011.13757        -1.70457         5.48104
     2011.14031         2.07950         5.73512
     2011.14304         1.29956         5.67641
     2011.14599       -21.17130         8.85050
     2011.15229         0.21515        10.75708
     2011.15400         5.71881         5.17980
     2011.15674         1.99188         5.21733
     2011.15948        -0.97406         5.22696
     2011.16221         5.47600         5.15477
     2011.16495        -8.16094         5.28759
     2011.16769        -3.23387         5.37613
     2011.17043        -8.43481         5.29721
     2011.17316       -13.61475         5.23754
     2011.17590        -9.42768         5.25294
     2011.17864        -1.55362         5.25294
     2011.18138        -2.07456         5.31165
     2011.18412        -3.55349         5.35207
     2011.18685         3.73057         5.35592
     2011.18959        -4.77537         5.29240
     2011.19233        -6.65630         5.24428
     2011.19507         0.49776         5.25005
     2011.19769         8.22478         5.65139
     2011.20158       -14.62371        11.44425
     2011.20328         3.88095         5.40115
     2011.20602         1.50701         5.33571
     2011.20876        -2.93292         5.25005
     2011.21149        -4.99286         5.24717
     2011.21423        -4.19880         5.19231
     2011.21697        -0.44873         5.33763
     2011.21971        -1.87467         5.30684
     2011.22245        -7.59561         5.21733
     2011.22518         5.16346         5.33090
     2011.22792        -4.23348         5.27893
     2011.23066         4.29058         5.22407
     2011.23340         0.16765         5.29433
     2011.23613         2.96071         5.22696
     2011.23887         0.71477         5.19904
     2011.24161        -1.48916         5.31839
     2011.24435         1.25690         5.36651
     2011.24709        -2.77804         5.17595
     2011.24982        -1.01397         5.39346
     2011.25256         2.57509         5.17113
     2011.25530        -0.63785         5.65139
     2011.25804        -1.83978         5.57150
     2011.26078         4.66628         5.34726
     2011.26351         3.76334         5.19616
     2011.26625        -3.65659         5.16151
     2011.26899         1.90547         5.20963
     2011.27173        -4.35747         5.35977
     2011.27446         6.10160         5.73608
     2011.27720        -1.88634         5.34630
     2011.27994        -9.99428         5.22696
     2011.28268         4.51679         5.29433
     2011.28542         0.36885         5.20386
     2011.28815        -9.67509         5.20482
     2011.29089         2.64497         5.26353
     2011.29363         1.93004         5.19038
     2011.29637        -2.98490         5.15670
     2011.29911        -0.38684         5.17402
     2011.30184         4.97523         5.34822
     2011.30458        -1.59971         5.19519
     2011.30732         3.26935         5.24620
     2011.31006         3.33042         5.17787
     2011.31279        -0.91452         5.36554
     2011.31553        -0.15246         5.23273
     2011.31827         1.43161         5.13649
     2011.32101        -0.15333         5.23465
     2011.32375        -4.24027         5.22118
     2011.32648        -2.73520         5.16825
     2011.32922        -6.62714         5.45698
     2011.33196        -5.21008         5.26449
     2011.33470        -7.67201         5.24139
     2011.33744        -3.49695         5.20674
     2011.34017        -6.92889         5.52050
     2011.34291         3.02318         5.34148
     2011.34565         5.45624         5.39827
     2011.34839        -4.40170         5.40404
     2011.35112        -0.64063         5.24235
     2011.35386        -8.84557         5.27026
     2011.35660        -4.86751         5.20578
     2011.35934        -8.94844         5.17402
     2011.36208       -13.27938         5.20001
     2011.36481        -3.75032         5.42425
     2011.36755         0.31475         5.28470
     2011.37029        -6.20719         5.42714
     2011.37303         2.47787         5.25005
     2011.37577         3.76594         5.32416
     2011.37850        -7.84800         5.30202
     2011.38124        -7.49394         5.40885
     2011.38398        -4.04187         5.28855
     2011.38672        -5.50281         5.25102
     2011.38945        -5.67575         5.30106
     2011.39219        -3.45268         5.28951
     2011.39493        -2.63862         5.31454
     2011.39767        -4.60356         5.49451
     2011.40041       -12.82049         5.52916
     2011.40314        -9.59443         5.34918
     2011.40588         1.25963         5.28663
     2011.40862        -2.18430         5.31839
     2011.41136        -0.38624         5.31839
     2011.41410       -11.32418         5.77939
     2011.41683        -9.63511         5.32320
     2011.41957        -8.80205         5.30202
     2011.42231        -8.65899         5.28181
     2011.42505        -3.85693         5.34437
     2011.42778        -9.84486         5.37709
     2011.43052        -9.00180         5.62636
     2011.43320        -8.89576         5.77073
     2011.43600        -8.78267         5.28374
     2011.43874       -16.68261         5.34341
     2011.44147       -11.43955         5.31935
     2011.44421        -7.22348         5.33571
     2011.44695       -11.05042         5.33763
     2011.44969        -9.55436         6.81689
     2011.45243       -11.10129         5.36266
     2011.45516       -10.27123         5.25775
     2011.45790        -6.82517         5.28951
     2011.46064        -5.58510         5.35881
     2011.46338       -14.12004         5.42425
     2011.46611        -3.39498         5.29721
     2011.46885        -4.31191         5.33667
     2011.47165        -8.77583         5.49932
     2011.47433        -4.05779         5.29817
     2011.47707        -2.53872         5.32127
     2011.47980         2.13734         5.33667
     2011.48254        -1.94060         5.35881
     2011.48528        -6.46053         5.41078
     2011.48802        -1.18247         5.37517
     2011.49081        -2.22938         5.46949
     2011.49349        -6.75134         5.33282
     2011.49623         1.93772         5.35303
     2011.49897        -1.09022         5.31839
     2011.50171        -3.41715         5.45120
     2011.50444        -3.36509         5.32801
     2011.50718        -3.52903         5.35111
     2011.50992        -0.38596         5.34245
     2011.51266         4.87610         5.36362
     2011.51540         3.91616         5.31742
     2011.51813         1.81123         5.64080
     2011.52087         2.01729         5.33667
     2011.52361         0.98935         5.29144
     2011.52635         0.48242         5.31935
     2011.52908         2.28248         5.38864
     2011.53182        -2.61146         5.30684
     2011.53456        -2.95439         5.41078
     2011.53730         0.16567         5.36747
     2011.54004         4.40173         5.30010
     2011.54277        -1.21620         5.50702
     2011.54551        -1.86514         5.33860
     2011.54825        -3.50508         5.28951
     2011.55099        -2.86201         5.36651
     2011.55373        -2.39195         5.45024
     2011.55646        -3.90789         5.29433
     2011.55920        -5.54482         6.14511
     2011.56194         1.12524         5.45024
     2011.56468         3.95730         5.25102
     2011.56741         3.60236         5.28181
     2011.57015        -2.01157         5.45313
     2011.57289        -4.33051         5.38094
     2011.57563        -0.57945         5.31454
     2011.57837        -1.38738         5.46468
     2011.58110        -5.53832         5.37036
     2011.58384        -3.17526         5.48489
     2011.58658        -4.72619         5.51761
     2011.58932        -2.43813         5.32320
     2011.59206        -1.48607         5.35496
     2011.59479         7.68900         5.48007
     2011.59753         5.01206         5.44639
     2011.60027         1.63912         5.44928
     2011.60301         0.73219         5.29144
     2011.60574        -0.23975         5.34052
     2011.60848         6.53531         5.65812
     2011.61128         3.97740         5.76784
     2011.61396         1.41644         5.41367
     2011.61670         7.20050         5.44735
     2011.61943        -3.77743         5.53397
     2011.62217         2.58363         5.42810
     2011.62516         4.63279         6.07871
     2011.62765         8.54176         5.38961
     2011.63039        -0.73318         5.40308
     2011.63312         3.51188         5.38768
     2011.63586         3.88295         5.36458
     2011.63860         4.14301         5.48489
     2011.64134         1.33607         6.07582
     2011.64407         1.84814         5.49355
     2011.64676         2.31118        12.27001
     2011.64961         2.01628         5.69181
     2011.65229        -1.78767         5.44831
     2011.65503        -4.52961         5.48681
     2011.65776        -2.82255         5.48392
     2011.66050         7.48552         5.69373
     2011.66324        11.04558         5.37806
     2011.66598         1.77364         5.58305
     2011.66872         0.59671         5.64369
     2011.67145        10.86977         5.33667
     2011.67419         4.25583         5.30106
     2011.67693         4.19790         5.33282
     2011.67967         2.85696         5.29625
     2011.68240         4.50102         5.48296
     2011.68509         4.65806         5.68026
     2011.68771        16.14008        18.82224
     2011.69068        11.63823         5.89296
     2011.69336         4.68928         5.44446
     2011.69609        -5.10966         5.45024
     2011.69889         2.63342         5.51280
     2011.70157         2.94646         5.36554
     2011.70431         8.92553         5.43003
     2011.70705        -2.34441         5.50510
     2011.70978        -7.95835         5.63695
     2011.71252        -3.53528         5.54744
     2011.71526        -5.12322         5.55803
     2011.71800         8.92284         5.44446
     2011.72073         5.50991         5.35111
     2011.72347         0.79297         5.64176
     2011.72621         5.64503         5.46371
     2011.72895         7.05410         5.44061
     2011.73169        10.15816         5.86793
     2011.73442        13.19222         5.35592
     2011.73716        13.79529         5.40982
     2011.73990         0.32035         5.33090
     2011.74264         0.10841         5.32127
     2011.74538        -0.86252         5.67064
     2011.74811         3.67354         5.64465
     2011.75085        13.68160         5.55996
     2011.75359        12.08367         5.48777
     2011.75633         1.30573         5.44446
     2011.75906        11.98679         5.40597
     2011.76180         5.40586         5.41463
     2011.76454         3.44492         5.48777
     2011.76728         1.57498         5.38672
     2011.77002         7.68305         5.53686
     2011.77275        12.09911         5.85638
     2011.77549        16.35617         5.73127
     2011.77766        14.60101         7.26923
     2011.78476        19.83877        12.22189
     2011.78644        12.51243         5.33763
     2011.78918         2.54449         5.35881
     2011.79192        -1.49045         5.36266
     2011.79466         1.33362         5.38864
     2011.79739         8.86668         5.40885
     2011.80013         8.48574         5.54359
     2011.80287         3.86381         5.35785
     2011.80561        -1.09313         5.36747
     2011.80835         0.72493         5.33763
     2011.81108         5.95400         5.48970
     2011.81382        -1.10494         5.33090
     2011.81656         2.85012         5.48104
     2011.81930         4.35919         5.30299
     2011.82203        -3.94475         5.43965
     2011.82477         6.61331         5.40982
     2011.82751        -1.24062         5.39249
     2011.83025        -3.99956         5.49066
     2011.83299        -1.81650         5.66582
     2011.83572        -1.50744         5.30780
     2011.83846        -1.49137         5.37421
     2011.84120        14.11169         5.36554
     2011.84394         3.34175         5.29433
     2011.84668         6.41182         5.30587
     2011.84941        -1.31512         5.35303
     2011.85215        -5.48006         5.31839
     2011.85489         4.24601         5.42233
     2011.85763         0.56707         5.46083
     2011.86036         5.18313         5.28278
     2011.86310         6.84520         5.47719
     2011.86584         9.82326         5.44928
     2011.86858        14.46432         5.31069
     2011.87132         3.52939         5.27508
     2011.87405         0.62845         5.34726
     2011.87679         8.76651         5.53108
     2011.87953         8.89058         5.39153
     2011.88227         5.66464         5.33571
     2011.88501         1.88770         5.28278
     2011.88774         2.86277         5.36939
     2011.89048         9.37083         5.39538
     2011.89322         7.20189         5.45120
     2011.89596         2.33396         5.36073
     2011.89869         5.37502         5.48681
     2011.90143        -6.53692         5.34726
     2011.90417        -5.31485         5.37902
     2011.90691         7.33121         5.31069
     2011.90965        -2.61273         5.32512
     2011.91238         7.21634         5.44831
     2011.91512        -4.22060         5.28759
     2011.91786         3.97146         5.54071
     2011.92060        -2.39247         5.30587
     2011.92334        -6.29041         5.39731
     2011.92606        -3.87535         5.40885
     2011.92883        -2.43628         5.65716
     2011.93155        -1.37022         5.55514
     2011.93429         3.29984         5.39057
     2011.93702         2.86691         5.38576
     2011.93976         0.89097         5.39538
     2011.94250         7.22403         5.44831
     2011.94524         5.23110         5.36843
     2011.94798         9.70816         5.38576
     2011.95071         5.61422         5.52820
     2011.95716        -2.21527         9.82737
     2011.95893         2.18741         5.24139
     2011.96167        -3.96452         5.65235
     2011.96440         3.65654         5.24139
     2011.96714         1.96360         5.29144
     2011.96988         3.13367         5.26641
     2011.97262        -0.16727         5.25679
     2011.97535        -5.79521         5.27219
     2011.97809        -7.79415         5.29240
     2011.98083         6.56092         5.37709
     2011.98357         0.83998         5.27893
     2011.98631         5.65904         5.30780
     2011.98904         4.51311         5.33956
     2011.99178         0.20917         5.45409
     2011.99452         6.89523         5.73704
     2011.99726         8.10330         5.21156
     2012.00273        -0.37458         5.36554
     2012.00547         5.45049         5.29336
     2012.00821         2.46955         5.29625
     2012.01095         9.52161         5.66101
     2012.01368         7.18368         5.19712
     2012.01642         8.73474         5.20001
     2012.01916         2.71580         5.21059
     2012.02190         1.91687         5.23658
     2012.02464         7.09893         5.23658
     2012.02737         7.65099         5.18268
     2012.03011         4.71906         5.18846
     2012.03285        -0.98388         5.19616
     2012.03559         3.91618         5.27026
     2012.03833         1.18425         5.29625
     2012.04106         4.17531         5.22118
     2012.04380       -13.76363         5.28374
     2012.04654         7.38244         5.25390
     2012.05201         8.35556         5.27315
     2012.05475        15.48263         5.34822
     2012.05749         6.80069         5.29433
     2012.06023         7.45175         5.31165
     2012.06297         4.73582         5.26545
     2012.06570        -6.31012         5.49066
     2012.06844        -1.52606         5.37421
     2012.07118        -3.43499         5.20097
     2012.07392        -1.31093         5.21156
     2012.07666         2.53713         5.27893
     2012.07939         9.75120         5.26449
     2012.08213         4.20726         5.24909
     2012.08487         4.97532         5.23369
     2012.08761        -4.16461         5.25198
     2012.09034         5.62445         5.23177
     2012.09308         0.87151         5.34726
     2012.09582         1.50158         5.21541
     2012.09856         4.60964         5.20097
     2012.10130         2.49370         5.33475
     2012.10403         5.04177         5.27604
     2012.10677         6.74883         5.38576
     2012.10951         3.10089         5.50221
     2012.11225        -2.45405         5.36266
     2012.11498        -0.86598         5.37806
     2012.11772        11.68608         5.26160
     2012.12046         5.07814         5.36939
     2012.12320        -4.95979         5.26449
     2012.12594        -7.32473         5.38094
     2012.12867        -3.01467         5.36747
     2012.13141        -3.59560         5.51183
     2012.13415         7.07146         5.31742
     2012.13689         4.59352         5.31069
     2012.13963         1.53359         5.64176
     2012.14236        -1.01835         5.70336
     2012.14510         3.28671         5.37228
     2012.14784        -3.91322         5.24428
     2012.15058        -9.22316         5.32512
     2012.15331        -4.31210         5.22984
     2012.15605        -1.45803         5.69277
     2012.15879        -1.18197         5.42522
     2012.16159        -9.24088         5.54648
     2012.16427        -1.37884         5.37998
     2012.16700         1.23422         5.43676
     2012.16974        -4.48272         5.28085
     2012.17248        -4.15765         5.28278
     2012.17522        -3.26859         5.39923
     2012.17796        -4.30153         5.34052
     2012.18069        -5.98746         5.28566
     2012.18344        -8.17540         5.31646
     2012.18617        -1.34434         5.33378
     2012.18891        -3.44527         5.55611
     2012.19159        -0.92023         5.68411
     2012.19330         1.16443        11.29604
     2012.19712        -3.55408         5.30491
     2012.19986         5.81398         5.30395
     2012.20260         4.78804         5.34630
     2012.20533         9.71811         5.38383
     2012.20807         4.46817         5.35400
     2012.21081         1.92323         5.23465
     2012.21355        -2.75770         5.25583
     2012.21629        11.65236         5.45890
     2012.21902       -18.85158         5.35400
     2012.22176        -9.79051         5.29817
     2012.22450        -8.90545         5.27219
     2012.22724        -1.35239         5.27508
     2012.22997        -0.63232         5.22503
     2012.23271         2.99374         5.52050
     2012.23545         4.35380         5.31742
     2012.23819         3.00087         5.37998
     2012.24093         2.62093         5.30684
     2012.24366        11.39799         5.33186
     2012.24640         3.88306         5.25775
     2012.24914         3.16412         5.48489
     2012.25188        -3.06882         5.28663
     2012.25462        -4.86276         5.32897
     2012.25735        -3.49569         5.26449
     2012.26009        -1.37163         5.17980
     2012.26283        -1.47057         5.23369
     2012.26557        -8.00050         5.98342
     2012.26830        -6.87744         5.36073
     2012.27104        -6.47738         5.51472
     2012.27378         1.00169         5.40789
     2012.27646         0.66273         5.54359
     2012.27874        -3.33539         7.78028
     2012.28125         0.76359         9.57040
     2012.28473        -3.03806         5.28181
     2012.28747        -8.37300         5.22888
     2012.29021        -6.63293         5.31839
     2012.29295        -9.65887         5.41848
     2012.29568        -9.24381         5.23947
     2012.29842        -1.24874         5.45216
     2012.30116        -1.03068         5.34052
     2012.30390        -4.82562         5.20193
     2012.30663        -3.07155         5.22984
     2012.30937        -0.02549         5.23947
     2012.31211        -3.40643         5.35688
     2012.31485         2.76864         5.31069
     2012.31759        -0.86030         5.28759
     2012.32032        -1.42024         5.38191
     2012.32306        -3.42117         5.21541
     2012.32580         0.45289         5.34148
     2012.32854        -0.22805         5.38576
     2012.33128        -7.64598         5.36747
     2012.33401        -5.23792         5.37132
     2012.33675        -0.58486         5.25968
     2012.33949        -6.25879         5.21926
     2012.34223        -6.26573         5.93627
     2012.34496       -12.99267         5.39249
     2012.34770        -3.01360         5.30299
     2012.35044        -0.85354         5.44831
     2012.35306        -0.18552         5.75533
     2012.35517         1.42930         8.98043
     2012.35774        -0.21371        11.40190
     2012.36139        -5.05929         5.37421
     2012.36413        -2.36922         5.34918
     2012.36687        -1.07916         5.22407
     2012.36961         1.63990         5.21156
     2012.37234         4.73297         5.38672
     2012.37508        -2.05297         5.25775
     2012.37782        -4.12791         5.40500
     2012.38056        -8.93784         5.35881
     2012.38329        -3.36678         5.39249
     2012.38603        -0.07272         5.46852
     2012.38877        -7.41066         5.44350
     2012.39151         2.02441         5.48200
     2012.39425        -1.55053         5.37902
     2012.39698        -9.16947         5.34341
     2012.39972         0.84260         5.21637
     2012.40246        -6.85534         5.26545
     2012.40520        -8.02228         5.29144
     2012.40794        -7.90521         5.26738
     2012.41067        -2.56915         5.27411
     2012.41342        -4.86108         5.23465
     2012.41615         3.19398         5.30684
     2012.41889         1.94404         5.66101
     2012.42157         0.23808         5.50798
     2012.42442         1.24419         5.52723
     2012.42710        -0.81777         5.35881
     2012.42984         3.60029         5.14804
     2012.43258        -9.35364         5.29529
     2012.43531        -9.28358         5.27026
     2012.43805        -0.85052         5.24909
     2012.44079        -5.73445         5.21059
     2012.44353        -4.34139         5.17691
     2012.44626        -3.65733         5.42233
     2012.44900        -3.98426         5.22696
     2012.45174        -4.85420         6.03058
     2012.45448         4.32186         5.21541
     2012.45722        -2.50607         5.39538
     2012.45995        -3.77101         5.31550
     2012.46269        13.30305         5.90547
     2012.46543        -1.99288         5.27411
     2012.46817         3.94318         5.19904
     2012.47091         0.31524         5.22984
     2012.47364         1.65931         5.31550
     2012.47638         2.81437         5.30010
     2012.47912        -1.23757         5.28566
     2012.48186         1.82650         5.25198
     2012.48459         2.17356         5.32127
     2012.48625         9.60520        13.38740
     2012.49387        19.86716        11.56648
     2012.49555        -0.69719         5.24428
     2012.49828         2.23388         5.20674
     2012.50102         3.17794         5.18268
     2012.50376         2.16800         5.20578
     2012.50650         0.41207         5.20771
     2012.50924         0.06113         5.30780
     2012.51197         0.34419         5.34245
     2012.51471         1.45726         5.20001
     2012.51745        -3.22768         5.30972
     2012.52024        -7.90160         5.28759
     2012.52292        -8.96855         5.22503
     2012.52566        -1.44549         5.27989
     2012.52840         5.36757         5.28663
     2012.53114        -1.52237         5.22792
     2012.53388         1.16670         6.39534
     2012.53661        -0.05424         5.28085
     2012.53935         4.41782         5.42618
     2012.54209         9.83489         5.27989
     2012.54483         3.75195         5.20386
     2012.54757         1.47301         5.27508
     2012.54996         6.65294         6.06812
     2012.56947         0.39352         5.23850
     2012.57221         1.41258         5.20963
     2012.57494         2.07065         5.20771
     2012.57768        -4.94529         5.19712
     2012.58042         5.02377         5.23369
     2012.58316        -5.38416         5.25198
     2012.58590         6.48990         5.26449
     2012.58863         3.75396         5.60615
     2012.59137        -2.85297         5.27700
     2012.59411         8.11309         5.21348
     2012.59685         2.48815         5.43195
     2012.59958         3.35822         5.37613
     2012.60232         4.50228         5.93723
     2012.60506         2.69734         5.18076
     2012.60780         0.52641         5.21637
     2012.61054         3.44047         5.16632
     2012.61327         1.96153         5.23658
     2012.61601        10.22460         5.24909
     2012.61875         6.90766         5.34245
     2012.62149         8.10972         5.25487
     2012.62423         9.39379         5.27893
     2012.62696         5.03085         5.33186
     2012.62970         5.36291         5.40212
     2012.63244         1.20698         5.39057
     2012.63517         0.70004         5.19712
     2012.63791         3.77410         5.22599
     2012.64065         1.95117         6.58976
     2012.64339         8.03923         5.35015
     2012.64613         3.86329         5.27315
     2012.64887         3.80636         5.18750
     2012.65160        11.33742         5.41848
     2012.65434         6.25948         7.86401
     2012.65714         9.43457         8.01704
     2012.65982         7.28061         6.43673
     2012.66256         7.38167         5.48007
     2012.66529         6.92473         5.22214
     2012.66803         4.39680         5.26545
     2012.67077         1.97486         5.24043
     2012.67351        10.51592         5.24235
     2012.67624         5.79599         5.24909
     2012.67898         4.72605         5.24043
     2012.68172         5.11411         5.28278
     2012.68446         0.24318         5.27026
     2012.68720         4.47224         5.37613
     2012.68993        14.52530         7.60608
     2012.69210         2.40615         8.39046
     2012.72553        25.94213       140.68892
     2012.73374         2.05732         5.95840
     2012.73648         7.08738         5.21541
     2012.73921         9.85344         5.30684
     2012.74195         7.25851         5.31839
     2012.74469         6.90857         5.29625
     2012.74669        10.13934         7.64554
     2012.75108        15.17505         9.67819
     2012.75290        12.10276         5.30491
     2012.75564         6.31082         5.23850
     2012.75838        10.05689         5.21059
     2012.76112         7.88395         5.22696
     2012.76386         6.16001         5.20001
     2012.76659        13.45808         5.30010
     2012.76933         5.40914         5.32320
     2012.77207         6.79520         5.24332
     2012.77481         4.16627         5.22696
     2012.77754         4.97533         5.26064
     2012.78028         7.07139         5.38576
     2012.78302        16.46946         5.37517
     2012.78576         1.03352         5.35785
     2012.78850        10.16258         5.33186
     2012.79123        14.24965         5.80634
     2012.79397         6.62471         5.24620
     2012.79671        10.65077         5.25198
     2012.79945        15.31084         5.81115
     2012.80219         6.24090         5.56092
     2012.80492         0.50896         5.35977
     2012.80766         3.85902         5.32416
     2012.81040        -1.31891         5.29433
     2012.81314        -1.53785         5.34341
     2012.81587        -4.98279         5.37132
     2012.81861        -3.92072         5.47430
     2012.82135        -2.55866         5.41944
     2012.82409         0.41740         6.24617
     2012.82683         5.30147         5.40693
     2012.82956         3.32553         5.43869
     2012.83230         0.95059         5.34918
     2012.83504         3.90966         5.66967
     2012.83778         8.34672         5.44158
     2012.84052        -2.62422         5.38383
     2012.84323         1.23784         7.46075
     2012.85694         5.60516         5.35207
     2012.85968         6.23223         5.30491
     2012.86242        -2.04971         5.28663
     2012.86516         0.37035         5.30491
     2012.86789        -7.98558         5.46660
     2012.87063         1.10448         5.26834
     2012.87337        -5.59146         5.30780
     2012.87611         0.08861         5.31165
     2012.87885        10.19367         5.31839
     2012.88158         5.62773         5.29433
     2012.88432         6.37980         5.29529
     2012.88706        10.67186         5.56669
     2012.88980        11.38792         5.51087
     2012.89253        -4.68501         5.28085
     2012.89527         0.10705         5.30684
     2012.89801        -2.65189         5.81789
     2012.90075         0.27818         5.30780
     2012.90349        -0.99376         5.27315
     2012.90622        -4.14570         5.35592
     2012.90896         7.94537         5.42137
     2012.91170         5.37143         5.36747
     2012.91409        12.81736         6.61574
     2012.93908       -12.74294         5.42810
     2012.94182       -10.23788         5.21829
     2012.94455         0.52919         5.23177
     2012.94729        -0.27375         5.31069
     2012.95003        -3.73969         5.29625
     2012.95277        -3.79462         5.24139
     2012.95551         4.57144         5.20674
     2012.95824         0.34350         5.27700
     2012.96098         7.65957         5.64946
     2012.96372        -9.19437         5.36554
     2012.96646         0.05469         5.23465
     2012.96919        -6.12324         5.39827
     2012.97193         0.29482         5.33571
     2012.97467         2.25788         5.22599
     2012.97741         2.09095         5.22888
     2012.98015        -4.61899         5.25968
     2012.98288        -7.70693         5.30972
     2012.98562        -4.80086         5.22407
     2012.98836        -0.61680         5.18557
     2012.99110        -3.16974         5.19423
     2012.99384       -11.17567         5.20482
     2012.99657         0.17039         5.20771
     2012.99931         0.48045         5.25968
     2013.00205        -3.47048         5.22696
     2013.00479         3.23258         5.30202
     2013.00752         4.06764         5.28374
     2013.01026        -9.54229         5.22599
     2013.01300        -8.98123         5.24620
     2013.01574         1.59883         5.25102
     2013.01848        -9.46310         5.26449
     2013.02121        -7.77004         5.29144
     2013.02395        -9.29598         5.34822
     2013.02669         1.62009         5.41752
     2013.02943        -0.61285         5.28566
     2013.03216        -2.58679         5.19712
     2013.03490        -4.58072         5.23562
     2013.03764        -7.59766         5.25005
     2013.04038       -17.55060         5.22792
     2013.04312        -4.28553         5.31839
     2013.04585        -4.97647         5.31069
     2013.04859        -7.83341         5.31550
     2013.05133        -2.78934         5.22503
     2013.05407        -5.09328         5.26257
     2013.05681         3.50978         5.20578
     2013.05954        -1.09815         5.24332
     2013.06228        -2.12809         5.38768
     2013.06502        -9.80403         5.42137
     2013.06776       -12.51996         5.38287
     2013.07049        -4.90590         5.34437
     2013.07323        -8.36884         5.22984
     2013.07597       -10.81277         5.20289
     2013.07871       -10.09871         5.21059
     2013.08145        -1.44965         5.23947
     2013.08418        -8.54659         5.24043
     2013.08692        -1.40252         5.23754
     2013.08966       -10.26646         5.20001
     2013.09240        -0.23340         5.19808
     2013.09514         0.65567         5.25294
     2013.09787         4.41273         5.52435
     2013.10061        -2.36821         5.67545
     2013.10335        -6.28614         5.32705
     2013.10609        -4.43608         5.20674
     2013.10882        -7.01602         5.18365
     2013.11156       -13.29495         5.38576
     2013.11430        -1.60289         5.26545
     2013.11704       -13.20883         5.39634
     2013.11978        -5.64676         5.43965
     2013.12251        -6.71670         5.18653
     2013.12525       -13.00464         5.28759
     2013.27383        -2.87993        20.75672
     2013.46475        12.12721         5.37517
     2013.46748        15.93427         5.32031
     2013.47022        13.42034         5.27508
     2013.47296        16.78140         5.31261
     2013.47570        12.88946         5.29433
     2013.47843        12.12053         5.34726
     2013.48117        10.59659         5.43484
     2013.48391        20.29465         5.29721
     2013.48665        14.68072         5.23465
     2013.48939        14.09078         5.31742
     2013.49486        13.35490         5.23947
     2013.49760        16.38597         5.40212
     2013.50034        13.64303         5.57343
     2013.50308        15.00609         5.29721
     2013.50581        14.87316         5.44446
     2013.50855        11.19322         5.24332
     2013.51129        18.14528         5.20289
     2013.51403        21.29635         5.28855
     2013.51676        19.78441         5.25968
     2013.51950        12.89547         5.26064
     2013.52224        17.74554         5.22792
     2013.52498        19.55760         5.40115
     2013.52772        12.15466         5.22599
     2013.53045         8.93373         5.22792
     2013.53319        10.32479         5.30972
     2013.53593        18.53485         5.32031
     2013.53867        15.93292         7.63303
     2013.54141        16.86798         5.32512
     2013.54414        13.94704         5.27796
     2013.54688        11.14211         5.30395
     2013.54962        18.73317         5.21829
     2013.55236        13.65523         5.39057
     2013.58247        20.98393         5.26160
     2013.58521        19.12699         5.20482
     2013.58795        15.60706         5.22503
     2013.59069        18.88712         5.26545
     2013.59342        19.69518         5.29625
     2013.59616        20.00625         5.27219
     2013.59890        23.71931         5.28374
     2013.60164        19.72037         5.34630
     2013.60438        25.05744         5.27411
     2013.60711        17.71050         5.45601
     2013.60985        22.44856         5.28470
     2013.61259        16.20363         5.22792
     2013.61533        25.18569         5.39731
     2013.61807        21.65775         5.48007
     2013.62080        23.93482         5.36651
     2013.62263        18.57452         9.04395
     2013.63275        35.42945        12.04866
     2013.63449        18.47813         5.44158
     2013.63723        23.63519         5.24332
     2013.63997        23.09726         6.27312
     2013.64271        16.92432         5.29336
     2013.64544        23.38838         5.38672
     2013.64818        14.59045         5.26834
     2013.65092        22.66951         5.38576
     2013.65366        21.65157         5.35881
     2013.65570        30.80337         7.49636
     2013.65913        11.73970         5.53590
     2013.66187        14.31976         5.37998
     2013.66461        18.57683         5.54167
     2013.66735        23.49389         5.35111
     2013.67008        17.75595         5.28663
     2013.67282        20.61102         5.41559
     2013.67555        22.94408         5.39346
     2013.67830        21.82014         5.30299
     2013.68104        28.61921         5.35785
     2013.68377        19.56627         5.25872
     2013.68651        18.15433         5.24524
     2013.68925        19.81940         5.26930
     2013.69199        21.95746         5.20963
     2013.69472        21.94952         5.24717
     2013.69746        16.80459         5.27026
     2013.70020        26.93665         5.25390
     2013.70294        20.74371         5.44639
     2013.70568        19.19478         5.29433
     2013.70819        20.71675         5.76110
     2013.72861        37.30068        12.04769
     2013.73032        22.18635         5.28663
     2013.73305        22.69841         5.18268
     2013.73579        14.86447         5.27219
     2013.73853        21.60554         5.28759
     2013.74127        23.52860         5.26641
     2013.74401        26.89366         5.60327
     2013.74674        23.63573         5.58787
     2013.74948        21.68079         5.56862
     2013.75222        17.66585         5.26160
     2013.75496        15.85392         5.32224
     2013.75770         8.88998         5.25487
     2013.77768         8.26874        10.11129
     2013.77960        17.24048         5.28278
     2013.78234         9.16755         5.24813
     2013.78507        14.10061         5.24717
     2013.78781        10.34167         5.26834
     2013.79055        10.75774         5.32127
     2013.79329        13.28280         5.23177
     2013.79603        15.00886         5.21348
     2013.79876        17.81493         5.24909
     2013.80150        22.86699         5.33763
     2013.80424        16.91905         5.32609
     2013.80698        15.55712         5.25487
     2013.80971        20.04318         5.20674
     2013.81245        23.75324         5.25198
     2013.81519        14.35931         5.25198
     2013.81793        11.63337         5.21637
     2013.82067        13.17743         5.63214
     2013.82340        23.15550         5.29336
     2013.82614        22.67856         5.36843
     2013.82888        21.73462         5.29240
     2013.83162        19.06169         5.30780
     2013.83436        14.86375         5.38383
     2013.83709        19.59781         5.56477
     2013.83983        24.49688         5.56092
     2013.84257        13.58894         5.28951
     2013.84531        15.45800         5.42522
     2013.84804        12.06307         5.31550
     2013.85078        13.57613         5.54167
     2013.85352        21.48319         5.33090
     2013.85626        11.08426         5.24332
     2013.85900        18.36932         5.28278
     2013.86173        10.81438         5.25294
     2013.86447        12.17645         5.39827
     2013.86721        11.34051         5.26353
     2013.86995        13.08757         5.27026
     2013.87269        20.89564         5.29625
     2013.87542        29.48970         5.38768
     2013.87816        19.83876         5.42714
     2013.88090        29.09683         5.44350
     2013.88364        25.40389         5.50798
     2013.88637        15.86995         5.25583
     2013.88911        14.32302         5.24813
     2013.89185        12.64108         5.26930
     2013.89459        10.00714         5.28663
     2013.89733        18.23221         5.58594
     2013.90006        14.90427         5.28085
     2013.90280         9.85033         5.30876
     2013.90554        12.54739         5.24332
     2013.90828        19.19346         5.26834
     2013.91102        20.63352         5.27893
     2013.91375         9.48558         5.28951
     2013.91649        16.87565         5.25390
     2013.91923        15.13371         5.58113
     2013.92197        14.14177         5.52146
     2013.92470        17.73684         5.28663
     2013.92744        14.60390         5.27411
     2013.93018        14.48096         5.16440
     2013.93292         9.12603         5.19904
     2013.93566         9.60109         5.24043
     2013.93839        11.60615         5.20867
     2013.94113        10.09922         5.21926
     2013.94387        12.42728         5.19038
     2013.94661        13.32634         5.43869
     2013.94935        11.44341         5.26930
     2013.95205        13.52946         5.48007
     2013.95486        16.98655        12.75989
     2013.95715        13.92944         6.41844
     2013.96308        17.62174         5.49355
     2013.96577        11.77479         5.28374
     2013.96851        15.91885         5.37324
     2013.97125        23.59091         5.24717
     2013.97399        16.61298         5.26545
     2013.97672         8.38404         5.27123
     2013.97946         7.53510         5.27508
     2013.98220        13.18817         5.27123
     2013.98494        13.25423         5.24524
     2013.98767         9.00129         5.18653
     2013.99041         5.79736         5.28759
     2013.99315         7.63442         5.26834
     2013.99589         3.51348         5.33378
     2013.99863         2.93955         5.29336
     2014.00410        12.04367         5.25487
     2014.00684         7.87374         5.86601
     2014.00958         9.55580         5.27700
     2014.01232         9.89086         5.36939
     2014.01505        11.47793         5.47141
     2014.01779        17.17299         5.34341
     2014.02053        18.71405         5.26449
     2014.02327        18.86812         5.51568
     2014.02600        14.12318         5.45698
     2014.02874        17.77924         5.48296
     2014.03148        17.24231         5.32705
     2014.03422        16.20137         5.27219
     2014.03696        13.54143         5.28470
     2014.03969        15.86450         5.43869
     2014.04243        12.96456         5.41752
     2014.04517        17.75462         5.40982
     2014.04791        15.56468         5.20771
     2014.05065        14.43575         5.25775
     2014.05338         8.59381         5.24813
     2014.05612         7.71387         5.27700
     2014.05886         8.29294         5.31742
     2014.06160        14.59400         5.37228
     2014.06433        15.03806         5.34437
     2014.06707        17.65313         5.40404
     2014.06981        13.60619         5.31454
     2014.07255        11.17825         5.29144
     2014.07529        13.21432         5.35207
     2014.07802        17.99838         5.41752
     2014.08076        16.43644         5.41078
     2014.08350        18.33951         5.31550
     2014.08624         6.50357         5.38094
     2014.08898         4.53263         5.46564
     2014.09171        11.45170         5.51087
     2014.09445        10.41676         5.22792
     2014.09719        11.99982         5.38094
     2014.09993        19.52289         5.31839
     2014.10266        13.97095         5.44735
     2014.10540        14.67801         5.28374
     2014.10814        24.58808         5.30780
     2014.11088        17.97614         5.46564
     2014.11362        18.07420         5.30491
     2014.11635        25.74027         5.30972
     2014.11903        18.42131         5.50413
     2014.12183        22.25039         5.43388
     2014.12457        15.68446         5.29048
     2014.12731        15.36152         5.34918
     2014.12959        28.95141         6.56473
     2014.13365        24.20598         9.21719
     2014.13552        14.58971         5.51857
     2014.13826        17.89177         5.27893
     2014.14099        18.15384         5.25968
     2014.14373        11.22590         5.25005
     2014.14647        12.28296         5.32224
     2014.14921        18.46003         5.30684
     2014.15195        15.00909         5.32224
     2014.15468        17.08915         5.29914
     2014.15742        21.27422         5.30876
     2014.16016        22.26428         5.39057
     2014.16290        13.66834         5.37132
     2014.16564        12.68141         5.33090
     2014.16837        12.93647         5.60423
     2014.17111         9.48953         5.46949
     2014.17385        14.42960         5.51087
     2014.17659        23.95366         5.53493
     2014.17932        18.15472         5.57439
     2014.18206        14.94678         5.39538
     2014.18469        15.08980         5.59749
     2014.18737        11.74885         5.78035
     2014.19028        12.02297         5.33956
     2014.19301        17.42004         5.27411
     2014.19569         9.56308         5.43773
     2014.19849        20.92916         5.43773
     2014.20123        11.51523         5.37613
     2014.20397        15.99429         5.41174
     2014.20670        15.71235         5.36747
     2014.20944        12.95342         5.28663
     2014.21218        16.06648         5.30202
     2014.21492        11.63554         5.39249
     2014.21765        14.27661         5.30395
     2014.22039        16.53567         5.26160
     2014.22313        10.25373         5.26834
     2014.22582         8.37478         5.47622
     2014.22850        14.28082         5.72068
     2014.23117        21.86286         5.76977
     2014.23384        11.29989         6.05176
     2014.23682        21.80405         5.37709
     2014.23956        19.98111         5.57535
     2014.24230        16.03218         5.45313
     2014.24503         5.18724         5.30106
     2014.24777        19.24430         5.51857
     2014.25051         6.92037         5.31261
     2014.25325         5.81643         5.30972
     2014.25598        15.15649         5.46179
     2014.25872         5.30256         5.33186
     2014.26146        18.55962         5.42329
     2014.26340         4.54937         8.80719
     2014.27070        23.98821        10.51454
     2014.27239         4.71587         5.52146
     2014.27515         4.89894         5.41848
     2014.27789         7.27500         5.35785
     2014.28062        12.28806         5.27989
     2014.28336        18.91413         5.29144
     2014.28610        13.97819         5.53590
     2014.28884         7.48925         6.01037
     2014.29158         9.91032         5.30299
     2014.29431         8.53038         5.35400
     2014.29705        17.04044         5.50317
     2014.29979         5.84251         5.29817
     2014.30249         6.11556         5.58883
     2014.30527         6.59263         5.37324
     2014.30800        10.17370         5.39057
     2014.31074        11.48976         5.51183
     2014.31348        15.57382         5.31646
     2014.31622        14.45889         5.28855
     2014.31895         6.81395         5.42714
     2014.32169        10.04801         5.42810
     2014.32443         2.25207         5.43965
     2014.32717         4.93614         5.52820
     2014.32991        15.07120         5.28181
     2014.33264        15.85626         5.36458
     2014.33538         5.16833         5.34437
     2014.33812         8.23139         5.55996
     2014.34086         6.79345         5.49355
     2014.34360         9.44052         5.25775
     2014.34633        12.53158         5.26064
     2014.34907        13.97264         5.56477
     2014.35181         2.34171         5.48970
     2014.35455        11.06677         5.34918
     2014.35728         3.13383         5.26930
     2014.36002         7.86290         5.33282
     2014.36276        11.65996         5.25968
     2014.36550        14.67102         5.41559
     2014.36824         3.78209         5.46949
     2014.37097        10.09415         5.69085
     2014.37371         6.86321         5.28855
     2014.37645        10.93828         5.33186
     2014.37919         8.66834         5.38191
     2014.38193         3.81040         5.34726
     2014.38466        12.58847         5.39827
     2014.38740         4.85053         5.32897
     2014.39014        10.32559         5.47622
     2014.39288         9.85466         5.34726
     2014.39561        15.60372         5.38479
     2014.39835         8.92278         5.65427
     2014.40109         7.77285         5.34822
     2014.40383         6.73091         5.39538
     2014.40657         7.85297         5.37998
     2014.40930         9.23204         5.37421
     2014.41204        11.57510         5.30876
     2014.41478         4.22616         5.51953
     2014.41752        10.88223         5.29914
     2014.42026        12.64529         5.30684
     2014.42299         9.47635         5.26160
     2014.42573        12.12142         5.33090
     2014.42847        11.60448         5.89681
     2014.43121        14.42854         5.32416
     2014.43394        16.92361         5.28855
     2014.43668         5.59167         5.34726
     2014.43942        10.14773         5.32416
     2014.44216        12.21280         5.32897
     2014.44490        18.25186         5.54648
     2014.44763        20.23792         5.43676
     2014.45037        10.27099         5.27700
     2014.45311        12.11505         5.31261
     2014.45585        14.41511         5.31935
     2014.45859        11.83417         5.28085
     2014.46132         7.23624         5.25872
     2014.46406        12.07030         5.34341
     2014.46680        10.00236         5.61866
     2014.46954         7.00143         5.31935
     2014.47227         7.62149         5.30202
     2014.47501        11.74755         5.30395
     2014.47775        14.38162         5.34052
     2014.48049        12.57768         5.31742
     2014.48323        10.91074         5.30395
     2014.48596        16.63081         5.52338
     2014.48870        15.22087         5.35977
     2014.49144        12.72793         5.23947
     2014.49418        14.66600         5.18461
     2014.49692        12.08706         5.43003
     2014.49965         8.73212         5.28855
     2014.50239         7.14819         5.28855
     2014.50513        16.90225         5.33860
     2014.50787         9.48631         5.26930
     2014.51060         7.15238         5.22503
     2014.51334        16.90744         5.24043
     2014.51608        16.56850         5.24813
     2014.51882         9.55457         5.34341
     2014.52156        15.77763         5.62733
     2014.52429        22.85169         5.23562
     2014.52703        13.61276         5.30010
     2014.52977         9.91982         5.45120
     2014.53251        12.79088         5.29625
     2014.53525        12.81795         5.25487
     2014.53798        15.24301         5.21156
     2014.54072        24.20107         5.50029
     2014.54346        19.75914         5.25583
     2014.54620        18.07120         5.38576
     2014.54893        24.44226         5.46468
     2014.55167        18.96133         5.34245
     2014.55441        15.98239         5.23369
     2014.55715        13.19545         5.44831
     2014.55989        21.14252         5.31261
     2014.56262        14.59758         5.27604
     2014.56536        10.93464         5.24909
     2014.56810        18.00071         5.25583
     2014.57084        16.60077         5.27508
     2014.57357        12.57583         5.24428
     2014.57631        17.54290         5.27796
     2014.57905        22.06696         5.33378
     2014.58179        20.91702         5.46852
     2014.58453        12.24109         5.41559
     2014.58726         9.43915         5.55322
     2014.59000        15.35521         5.35015
     2014.59274        18.81228         5.45505
     2014.59548         9.22434         5.40308
     2014.59822        15.35340         5.43965
     2014.60095        15.94746         5.44543
     2014.60369        16.05653         5.30491
     2014.60643        10.98059         5.39827
     2014.60917        20.69265         5.39731
     2014.61156        14.97058         6.35204
     2014.61562        16.98816        10.60116
     2014.61738        19.07984         5.48007
     2014.62012        19.40091         5.41752
     2014.62286        15.94997         5.33378
     2014.62559        18.99103         5.39923
     2014.62833        10.04910         5.32512
     2014.63107        20.10216         5.40308
     2014.63381        36.21622         6.24521
     2014.63655        15.29629         5.82559
     2014.63928         5.32535         5.36651
     2014.64202        11.30641         5.35015
     2014.64476        14.73548         5.42329
     2014.64750        15.19654         5.40597
     2014.65023        10.44660         5.31550
     2014.65263        20.07553         6.01903
     2014.65941        32.43517        10.89663
     2014.66119        21.41186         5.63503
     2014.66392        13.80392         5.29336
     2014.66666        23.42198         5.32994
     2014.66940        20.16205         5.28759
     2014.67214        16.60611         5.45890
     2014.67488        14.87817         5.36073
     2014.67761        13.43024         5.31165
     2014.68035        15.04030         5.26160
     2014.68306        12.61435         5.51087
     2014.68583        17.32743         5.63406
     2014.68856        16.55049         5.47334
     2014.69130        11.27655         5.31935
     2014.69404        19.15262         5.40885
     2014.69678        17.72768         5.29914
     2014.69952        20.60674         5.24717
     2014.70225        19.97181         5.29433
     2014.70499        13.94987         5.28470
     2014.70773        16.09493         5.27123
     2014.71047        29.59300         5.37036
     2014.71321        23.01406         5.28085
     2014.71594        18.87012         5.31261
     2014.71868        18.47419         5.25775
     2014.72142        20.19525         5.25679
     2014.72416        22.55731         5.31261
     2014.72689        22.93738         5.42329
     2014.72963        23.01944         5.33475
     2014.73237        19.69350         5.30202
     2014.73511        11.25656         5.27893
     2014.73785        17.39063         5.29336
     2014.74058        15.01369         5.31454
     2014.74332        26.80975         5.43099
     2014.74606        22.55282         5.37709
     2014.74880        10.90388         5.30491
     2014.75154        17.31494         5.47141
     2014.75427        17.87301         5.25005
     2014.75701        15.12507         5.30876
     2014.75975        25.62313         5.35977
     2014.76249        17.07220         5.29914
     2014.76522        18.81526         5.27796
     2014.76796        21.28032         5.32320
     2014.77070        15.63339         5.25679
     2014.77344        13.35945         5.31454
     2014.77618        26.41851         5.57054
     2014.77891        23.48858         5.27026
     2014.78165        21.35264         5.30299
     2014.78439        24.30770         5.35496
     2014.78713        29.84977         5.39249
     2014.78987        17.40683         5.29433
     2014.79260        22.02189         5.28470
     2014.79534        17.52096         5.28759
     2014.79808        22.71102         5.35785
     2014.80082        23.00808         5.37517
     2014.80355        10.69815         5.45505
     2014.80629        22.44321         5.36843
     2014.80903        27.87327         5.42425
     2014.81177        26.99634         5.24813
     2014.81451        29.02740         5.42040
     2014.81724        25.13846         5.39153
     2014.81998        19.10553         5.30106
     2014.82266        21.16757         5.71298
     2014.82905         7.11505         9.14597
     2014.83093        24.37678         5.35015
     2014.83367        21.27484         5.29625
     2014.83641        13.86891         5.40982
     2014.83915        15.46597         5.32512
     2014.84188        14.46603         5.55418
     2014.84462        12.26510         5.43388
     2014.84736        29.99016         5.67641
     2014.85010        16.20222         5.34726
     2014.85284        14.34629         5.31935
     2014.85557        23.53635         5.53012
     2014.85831        20.89941         5.36939
     2014.86105        16.35248         5.29625
     2014.86379        15.26954         5.40693
     2014.86654         1.93861         5.50413
     2014.86926         2.55567         5.40982
     2014.87200        12.95973         5.34052
     2014.87474        14.68279         5.32320
     2014.87748        16.10285         5.34533
     2014.88021        17.31692         5.62733
     2014.88295        15.58098         5.40308
     2014.88569        13.31904         5.52146
     2014.88843        18.85211         5.60808
     2014.89117        31.01317         5.84195
     2014.89390        12.08823         5.54167
     2014.89664        22.56530         5.88044
     2014.89938         9.78436         5.64272
     2014.90212         3.67242         5.47430
     2014.90485        19.54649         5.60327
     2014.90759        17.25855         5.62444
     2014.91033        17.06561         5.43195
     2014.91307        18.93468         5.26545
     2014.91581        18.55974         5.32705
     2014.91854        17.35480         5.33475
     2014.92128        15.82087         5.33571
     2014.92402        22.09593         5.37132
     2014.92676        13.49499         5.39442
     2014.92950         1.25406         5.42329
     2014.93223         4.87812         5.34533
     2014.93497        12.70618         5.48585
     2014.93771        12.34025         5.53108
     2014.94045         8.84731         5.47622
     2014.94318         9.89037         5.50125
     2014.94592        12.69944         5.31550
     2014.94866         8.31050         5.25487
     2014.95140        12.78756         5.17595
     2015.13483       212.78980         5.32416
     2015.13757       212.98487         5.32512
     2015.14031       217.32593         5.28181
     2015.14305       222.55899         5.26257
     2015.14579       216.88305         5.26641
     2015.14852       215.21012         5.30780
     2015.15126       217.69718         5.33090
     2015.15400       215.40524         5.29336
     2015.15674       221.65931         5.28759
     2015.15948       215.76437         5.25872
     2015.16221       218.86643         5.31069
     2015.16495       216.33150         5.38094
     2015.16769       219.31156         5.31454
     2015.17043       221.95662         5.26738
     2015.17316       218.04769         5.44254
     2015.17590       214.17675         5.41463
     2015.17864       216.28181         5.23754
     2015.18138       217.91288         5.24043
     2015.18412       225.97394         5.29144
     2015.18685       222.24000         5.26930
     2015.18959       224.12807         5.48104
     2015.19233       215.46813         5.50606
     2015.19507       217.11219         5.27315
     2015.19780       220.33126         5.30876
     2015.20054       221.31732         5.32416
     2015.20328       212.87338         5.25679
     2015.20608       210.06847         5.39057
     2015.20876       211.76751         5.51953
     2015.21149       210.96257         5.30299
     2015.21423       216.94964         5.70143
     2015.21697       221.85270         5.35977
     2015.21971       210.42676         5.29144
     2015.22245       214.03283         5.37998
     2015.22518       220.77489         5.39634
     2015.22792       218.86995         5.31935
     2015.23066       218.83202         5.26930
     2015.23340       217.77508         5.41559
     2015.23613       221.53314         5.62636
     2015.23887       210.45921         5.57824
     2015.24161       221.68327         5.53301
     2015.24435       218.59333         5.90739
     2015.24709       218.43740         5.41174
     2015.24982       210.89846         5.22118
     2015.25256       211.90952         5.23754
     2015.25530       215.43359         5.35977
     2015.25804       216.29965         5.26738
     2015.26078       221.31171         5.30684
     2015.26351       219.66178         5.28278
     2015.26625       207.42584         5.31550
     2015.26899       214.38590         5.27700
     2015.27173       226.38697         5.44831
     2015.27446       226.38803         5.43773
     2015.27720       221.82809         5.28181
     2015.27994       216.85916         5.33186
     2015.28268       215.71722         5.49740
     2015.28542       216.40628         5.41367
     2015.28815       212.22134         5.36651
     2015.29089       218.68941         5.25005
     2015.29363       217.49547         5.29817
     2015.29637       215.29853         5.25968
     2015.29911       223.02060         5.31742
