# ================= DQRFIT RESULTS ================
# INPUT FILE: series/PDXB.rad
# OUTPUT: LDETRENDED
# FILTER FUNCTION: f(t)
# f(t)=+line(t)
# line(t)=+P 1+P 2*t
# heav(t)=(t<0?0:1)
# TOTAL OBSERVATIONS MTOT=  512
# INITIAL TIME INTERVAL= 2008.8406 - 2007.3429 =  1.4976
# TOTAL OBSERVATIONS AFTER PREFILTER M=  512
# TIME-SPAN= 2008.8406 - 2007.3429 =  1.4976
# OBSERVATIONS: USED M=   512 REJECTED MTOT-M=     0 %USED=  100.0000
# N=  2 PARAMETERS
# MAXSIG= 175.00000
# MAXRES=  15.75677
# SCALE FACTOR FOR LENGTHS: SCL=  10.00000
# SCALE FACTOR FOR SIGMAS: SCLSIG=   1.00000
# CHI^2=    413.654 DOF=   510 CHI^2/DOF=   0.81109
# RMS=      5.247 SDEV=      5.252 MEAN=    0.06840
#  P #       PARAMETER +-    SIGMA %error PARAMETER NAME
# P 1 =     -5140.47545 +- 1066.562  20.75 YZERO                              
# P 2 =         2.55479 +-    0.531  20.79 SLOPE                              
#       T            LDETRENDED       SIG_OBS
     2007.34291        -3.40304         4.96053
     2007.34457         2.79274        10.93063
     2007.34839         4.04697         5.05329
     2007.35112         4.29298         5.03077
     2007.35386         1.10298         5.28925
     2007.36208        -1.52900         4.91099
     2007.36481        -2.66199         5.06950
     2007.36755         2.24901         5.15055
     2007.37029        -0.35698         5.03888
     2007.37303         2.34302         5.13344
     2007.37577        -0.72697         5.18027
     2007.37850         4.73803         5.00646
     2007.38124         3.11504         5.07850
     2007.38398         3.25904         5.10732
     2007.38672        -1.82695         5.05059
     2007.38945        -8.28695         5.18117
     2007.39219        -5.51394         5.29735
     2007.39493        -1.68494         5.11543
     2007.39767        -0.37493         5.08211
     2007.40041         5.21507         5.11633
     2007.40314        -0.45392         5.04248
     2007.40588         0.46509         5.07941
     2007.40862        -1.66291         5.13885
     2007.41126        -5.88765         5.32167
     2007.44421         1.35916         5.02177
     2007.44695        -5.42083         5.06950
     2007.44969        -2.07683         4.92810
     2007.45243         0.87918         5.04248
     2007.45516        -3.30282         4.91820
     2007.45790         2.57019         4.91640
     2007.46064        -0.06881         4.90559
     2007.47159         1.54121         4.96413
     2007.47433         1.30322         4.92630
     2007.47707        -1.40177         5.14605
     2007.47980        -3.03577         4.91820
     2007.48254        -9.15776         4.96683
     2007.48528        -3.93376         4.97403
     2007.48802        -5.20675         4.98394
     2007.49076         2.62025         5.25322
     2007.49454         1.90859        10.42089
     2007.49623       -12.08174        14.29438
     2007.49931         9.83639         7.85417
     2007.50172        -2.96575         6.49425
     2007.50537         7.75192        16.77014
     2007.50718        -2.96272         5.01636
     2007.50992         0.06929         4.95692
     2007.51266       -11.34271         4.99925
     2007.51540         0.23030         4.98214
     2007.51813        -4.57969         4.95692
     2007.52087        -1.93869         4.91820
     2007.52361        -5.76268         4.95872
     2007.52635         4.19932         5.04338
     2007.52908         8.68433         5.50539
     2007.53188        -0.23683         5.27664
     2007.53456        -0.15466         5.11183
     2007.53730        -6.42866         4.94161
     2007.54004         5.90535         5.21900
     2007.54277         3.20835         5.05059
     2007.54551        -4.02864         5.05419
     2007.54825         1.76136         5.04608
     2007.55099        -0.78363         4.94341
     2007.55373        -1.61962         4.97494
     2007.55646         0.31138         4.97584
     2007.55920         7.58539         4.98214
     2007.56194        -1.20261         5.80799
     2007.56468        -0.82760         4.90109
     2007.56741        -3.81060         4.93621
     2007.57015        -0.21159         4.99385
     2007.57289         0.80741         4.99205
     2007.57563         0.24642         4.99385
     2007.57837        -2.51858         4.97674
     2007.58110         0.29943         5.07040
     2007.58384         0.44943         4.92090
     2007.58658         0.75844         4.95332
     2007.58932         3.16045         4.95872
     2007.59206         1.12745         5.01276
     2007.59479         4.04046         5.06049
     2007.59753        -4.51754         5.01726
     2007.60027         4.01947         4.97133
     2007.60301         6.77647         4.98935
     2007.60574        -0.33652         4.96233
     2007.60848         0.69948         4.92810
     2007.61122         2.89349         4.96863
     2007.61396        -2.84651         4.94702
     2007.61670        -9.63750         5.31897
     2007.61943        -0.42350         5.37751
     2007.62303        -2.49368         8.88446
     2007.62491        -2.85549         5.11723
     2007.62769         2.99441         5.37751
     2007.63039         1.20553         5.34238
     2007.63312         0.52353         5.15325
     2007.63586        -1.47146         5.05419
     2007.63860         0.55254         5.10282
     2007.64134         0.31355         5.02897
     2007.64407         7.06455         5.24602
     2007.64681        -8.15144         5.27394
     2007.64955         4.79756         5.21360
     2007.65229        -0.97443         5.31536
     2007.65503        -0.08843         5.13254
     2007.65776         6.22158         5.17757
     2007.66050         2.12758         5.22080
     2007.66324         3.68959         5.48017
     2007.66598         3.15560         5.10732
     2007.66872         3.56960         5.24241
     2007.67145         4.60461         5.21540
     2007.67419         6.26061         5.52701
     2007.67693         8.58862         5.25412
     2007.67967         5.27562         5.16316
     2007.68360        12.81457        14.71767
     2007.68537         3.78505         5.75126
     2007.68788         9.34864         5.30185
     2007.69062         5.84864         5.16586
     2007.69336         7.52265         5.17037
     2007.69609         8.15265         5.16947
     2007.69883         3.59266         5.13434
     2007.70157        11.59667         5.17847
     2007.70431         9.29767         5.41173
     2007.70705        10.53968         5.22260
     2007.70978        11.39668         5.27934
     2007.71252         2.42169         5.16947
     2007.71526         3.07769         4.99115
     2007.71800        10.96070         5.04969
     2007.72073         8.15670         5.08841
     2007.72347        12.05071         5.06770
     2007.72621         9.83171         4.98034
     2007.72895         2.87672         4.98754
     2007.73169         3.75772         5.06680
     2007.73442         3.63173         5.09922
     2007.73716         7.40773         5.19468
     2007.73990        13.63674         5.29915
     2007.74264         5.52275         5.05329
     2007.74538         4.47875         5.05869
     2007.74811         5.55576         5.29915
     2007.75085         0.26376         5.33067
     2007.75359        15.75677         5.30906
     2007.75633         6.12177         5.44055
     2007.75906         5.96378         4.97043
     2007.76180         2.18778         5.03528
     2007.76454        -0.07521         5.04969
     2007.76728         6.45379         5.46396
     2007.77002        15.58080         5.64859
     2007.77275        -5.07520         5.50629
     2007.77549        -0.00919         5.05779
     2007.77823         6.63782         5.20909
     2007.78100         8.39574         5.07400
     2007.78371         7.26383         5.03888
     2007.78644         9.39583         5.12624
     2007.78918         2.74284         5.15325
     2007.79192         4.07584         5.21450
     2007.79466         8.97785         5.30095
     2007.79739        14.47885         5.48828
     2007.80013        14.56686         5.10552
     2007.80279         3.48006         5.16226
     2007.80561        10.13287         5.08301
     2007.80835         0.11887         5.27574
     2007.81108         6.19488         5.16226
     2007.81382         0.84489         5.12173
     2007.81656        -2.37911         5.21990
     2007.81930         0.74490         5.09021
     2007.82203        -4.13010         5.16947
     2007.82477        -1.73109         5.37751
     2007.82751        -1.87409         5.09922
     2007.83025         0.48992         5.34959
     2007.83299        -4.66308         5.44055
     2007.83624        -6.21338         6.72841
     2007.83846        -4.81507         5.09021
     2007.84120        -0.51507         4.98214
     2007.84320        -2.23116         8.02348
     2007.84674        -4.20321         5.07941
     2007.84948        -2.60820         5.23251
     2007.85221        -0.71420         5.94218
     2007.85495         1.66981         5.80709
     2007.85769         0.26381         5.26313
     2007.86043        -3.53918         5.29735
     2007.86316         2.56382         5.23791
     2007.86590        -0.26217         5.27754
     2007.86864         1.39383         5.21089
     2007.87138         0.26284         5.26223
     2007.87412         2.37985         5.42614
     2007.87685         2.09985         5.31897
     2007.87959         2.11886         5.20459
     2007.88233        -4.90814         5.24962
     2007.88507         0.21687         5.11993
     2007.88781        -9.63313         5.13614
     2007.89054        -6.71512         5.15055
     2007.89328        -1.67812         5.56033
     2007.89624         5.58032         8.81061
     2007.89876        -0.93911         5.55763
     2007.90149        -3.05110         5.37931
     2007.90423         2.76990         5.52971
     2007.90697        -9.09609         5.44685
     2007.90971        -7.36309         5.52791
     2007.91332         3.06769         9.63646
     2007.91518        -0.86207         5.49819
     2007.91792        -5.08007         5.36760
     2007.92066        -4.46306         5.67831
     2007.92340        -8.44106         5.60626
     2007.92614        -0.45405         5.45496
     2007.92887         1.82795         5.51440
     2007.93161        -1.51804         5.35589
     2007.93435        -4.74904         5.33698
     2007.93709       -10.30103         5.39912
     2007.93982        -4.20703         5.19738
     2007.94256         2.99798         5.15145
     2007.94530        -2.17702         5.36940
     2007.94804        -8.30501         5.22801
     2007.95078        -3.39600         5.19829
     2007.95345         1.53816         5.30185
     2007.95619         2.03216         5.25142
     2007.95893         8.36917         5.18838
     2007.96167         6.15917         5.20189
     2007.96440         5.20018         5.21089
     2007.96714        -3.34381         5.21630
     2007.96988        -6.15181         5.32437
     2007.97262         5.57920         5.24692
     2007.97535        -4.14180         5.30456
     2007.97809        -0.71579         5.15686
     2007.98083        -5.22779         5.13524
     2007.98357        -0.37778         5.09652
     2007.98631         6.22622         5.26673
     2007.98904         5.85023         5.41083
     2007.99178         0.68723         5.29555
     2007.99452        -9.12076         5.21810
     2007.99726        -5.88776         5.01456
     2008.00062       -10.33935         7.04813
     2008.00273        -8.84174         5.14785
     2008.00547         3.87226         5.04788
     2008.00821        -1.19573         5.28474
     2008.01095        -0.51173         5.02987
     2008.01368         3.08228         4.94612
     2008.01642         3.51228         4.99115
     2008.01916         2.32329         5.08841
     2008.02190        -4.06671         5.12534
     2008.02464        -1.69270         4.99835
     2008.02737        -3.84770         4.93981
     2008.03011        -2.63469         5.17487
     2008.03285        -9.37169         5.03708
     2008.03559        -3.59868         5.11183
     2008.03833       -11.70268         5.00646
     2008.04106       -11.17867         5.07130
     2008.04380        -9.68066         5.07310
     2008.04654        -3.37866         5.17217
     2008.04928        -3.91465         5.12263
     2008.05201        -8.23965         4.99835
     2008.05475       -10.35364         5.04698
     2008.05749       -11.31364         4.97403
     2008.06023        -7.89963         4.96773
     2008.06297         0.32137         5.00375
     2008.09616         1.98556         5.80079
     2008.09856        -4.09856         5.14785
     2008.10130         3.23545         5.22891
     2008.10403        -2.31955         4.99925
     2008.10677        -2.71454         5.06500
     2008.10951        -7.29454         5.04428
     2008.11225        -3.43553         4.98304
     2008.12896         1.00677         7.64072
     2008.13141        -0.07049         4.99115
     2008.13415        -2.56049         5.03438
     2008.13689         2.20152         4.98664
     2008.13963         0.88852         5.02177
     2008.14236         3.02153         4.99925
     2008.14510         0.86753         4.99655
     2008.14784         5.25054         5.02807
     2008.15058        -2.53846         4.97313
     2008.15331        -7.00345         4.96773
     2008.15697         4.62121         7.86497
     2008.15879        -4.57744         4.94071
     2008.16153         0.98157         5.04608
     2008.16427        -3.42543         4.99655
     2008.16700        -8.98742         4.92630
     2008.16974        -5.62442         5.00285
     2008.17248        -6.94241         4.98394
     2008.17522        -7.87041         5.03618
     2008.17796        -6.22840         4.96413
     2008.18069        -6.91440         5.01276
     2008.18343        -3.26439         4.97584
     2008.18611        -4.87624         5.14785
     2008.18891        -5.28238         5.06410
     2008.19164        -2.80037         5.07310
     2008.19438        -9.40837         4.95512
     2008.19712         1.07064         6.14212
     2008.19986         4.78364         5.04969
     2008.20260        -2.41135         4.97494
     2008.20533         1.12065         4.96863
     2008.20807         1.88966         5.26763
     2008.21081        -0.44834         5.23431
     2008.21355         0.65367         5.43064
     2008.21629         1.18667         5.09021
     2008.21902        -2.33532         5.10822
     2008.22176        -9.48032         5.02987
     2008.22450        -8.58431         5.06770
     2008.22724        -4.67830         5.00736
     2008.22997        -5.60130         5.09922
     2008.23271         1.40371         5.22260
     2008.23544        -4.97926         6.99589
     2008.23819        -5.61928         5.20279
     2008.24093        -2.03128         5.15055
     2008.24366        -0.67427         5.11993
     2008.24640        -3.78227         5.14335
     2008.24914        -5.00226         5.15866
     2008.25188        -2.75426         5.19018
     2008.25462        -4.02425         5.08211
     2008.25735         0.28475         5.10822
     2008.26009        -0.21324         5.07310
     2008.26283        -4.14624         5.12984
     2008.26557        -8.16223         5.08211
     2008.26830         0.34078         4.95963
     2008.27104         1.31478         5.20189
     2008.27378        -5.72021         4.95963
     2008.27652        -6.69621         5.09742
     2008.27926        -3.19220         5.09562
     2008.28199        -0.48020         5.01276
     2008.28473        -3.51719         4.99025
     2008.28747         5.72181         5.10282
     2008.29021        -0.30218         5.15325
     2008.29295        -1.54718         5.09832
     2008.29568        -4.08617         5.12714
     2008.29842        -5.70117         4.92991
     2008.30116        -0.02316         4.93891
     2008.30390        -0.48215         5.10462
     2008.30663         1.77285         5.26943
     2008.30937        -3.37014         5.22801
     2008.31211        -8.08514         5.32437
     2008.31485        -4.33713         4.97764
     2008.31759        -6.72913         5.05419
     2008.32032        -5.44812         5.15686
     2008.32306        -1.83312         5.24512
     2008.32580        -1.32411         5.35139
     2008.32854        -6.30311         5.03708
     2008.33128        -5.92310         5.00195
     2008.33401        -5.32810         5.07490
     2008.33675         0.95191         5.00556
     2008.33949        -1.66408         5.30366
     2008.34223        -7.44508         5.04518
     2008.34496       -12.74607         5.20459
     2008.34770        -2.00507         4.92991
     2008.35044        -2.17906         4.94071
     2008.35318         1.56994         5.18207
     2008.35592        -4.02105         4.98304
     2008.35865        -7.74705         5.33968
     2008.36139        -1.86704         5.23611
     2008.36413        -0.93904         4.87677
     2008.36687        -5.15803         4.92000
     2008.36961        -5.70503         4.93351
     2008.37234        -9.04802         4.89748
     2008.37508       -11.59602         7.33452
     2008.37782         5.03799         5.05779
     2008.38056         8.11800         4.99115
     2008.38329        -9.39200         5.08031
     2008.38603        -0.90299         4.85606
     2008.38877        -6.69799         5.03257
     2008.39151        -3.95198         5.03708
     2008.39425        -1.86498         4.89748
     2008.39698        -4.31297         4.96863
     2008.39972        -0.89097         4.89838
     2008.40246        -0.90596         5.51890
     2008.40520        -4.38296         5.00466
     2008.40794        -0.90295         4.93261
     2008.41067        -0.03795         4.86326
     2008.41341        -1.95594         5.00285
     2008.41615        -1.79393         4.91550
     2008.41889        -4.33893         4.88668
     2008.42162        -3.87792         5.04338
     2008.42413        -1.85734         5.41083
     2008.42710         5.09909         5.02627
     2008.42984        -1.74991         5.03347
     2008.43258        -2.90890         5.06500
     2008.43531        -1.37090         4.95422
     2008.43805        -4.02689         5.05959
     2008.44079        -7.91589         5.10462
     2008.44353        -6.63188         5.30996
     2008.44626        -4.68588         5.01366
     2008.44900        -5.19787         4.99385
     2008.45174        -7.30986         5.04969
     2008.45448        -3.50886         5.03888
     2008.45722        -2.76885         4.93441
     2008.45995        -5.91285         4.95512
     2008.46269        -8.10584         4.90559
     2008.46543        -5.65484         4.87587
     2008.46817        -5.27083         4.92900
     2008.47091        -9.68183         5.06049
     2008.47364        -6.25982         4.97584
     2008.47638        -2.55682         5.02267
     2008.47912        -9.78881         4.92090
     2008.48186        -3.77981         4.90469
     2008.48459        -2.08280         5.01186
     2008.48733        -5.21880         4.93621
     2008.49007        -5.92979         4.92810
     2008.49281        -4.08478         5.02357
     2008.49555        -1.63678         5.09562
     2008.49828         0.16723         5.03347
     2008.50102         0.27023         5.08301
     2008.50376         8.50924         5.13614
     2008.50541         7.67501        11.69884
     2008.51566        -2.92416         9.08889
     2008.51745         3.30626         4.94702
     2008.52019         4.60727         4.97223
     2008.52292         0.67927         5.12984
     2008.52566        -1.40672         5.15145
     2008.52777        -2.37511         6.75633
     2008.53476        -0.86495         8.50440
     2008.53661         5.06130         5.02267
     2008.53935        -3.70169         5.03347
     2008.54209        -2.36869         4.93441
     2008.54483         3.86232         5.10282
     2008.54757         6.08332         4.99565
     2008.55030         8.34833         4.93981
     2008.55304         4.01133         5.00285
     2008.55578        -2.62166         4.95872
     2008.55852         2.36534         4.98034
     2008.56125         1.03535         4.91099
     2008.56399         5.85336         4.96233
     2008.56673         4.67736         4.93351
     2008.56947        -2.01863         4.88668
     2008.57221         4.57737         5.02987
     2008.57494        -3.12362         5.27664
     2008.57768         6.58738         5.66210
     2008.58042         6.06239         5.01186
     2008.58316        15.15839         5.11723
     2008.58590         2.80140         4.90649
     2008.58863         2.19340         5.05329
     2008.59137         6.93141         5.79809
     2008.59411         3.32641         4.89748
     2008.59685         6.41442         5.25322
     2008.59958         8.46242         5.22801
     2008.60232         5.15043         5.22530
     2008.60506         4.22144         5.06590
     2008.60780         5.23544         5.04969
     2008.61054        -0.76255         4.97223
     2008.61327         1.42945         4.97043
     2008.61601         6.66346         5.00015
     2008.61875         3.79846         4.99205
     2008.62155         5.38231         5.18297
     2008.62423         6.22547         5.02447
     2008.62696         7.84848         5.08031
     2008.62970         2.32448         5.25863
     2008.63244         4.58049         5.05869
     2008.63518        -0.66751         5.19378
     2008.63791         1.46250         5.10372
     2008.64065         5.01651         4.96233
     2008.64339         8.05551         5.00466
     2008.64613         8.92352         5.20009
     2008.64887         1.80452         5.15055
     2008.65160         7.59553         4.99385
     2008.65434         4.90153         5.05689
     2008.65708         0.96154         5.24241
     2008.65982         2.11254         5.02987
     2008.66256         6.72955         5.38471
     2008.66529         4.90655         5.05959
     2008.66803         1.08056         5.07220
     2008.67077        -2.91844         5.16496
     2008.67351        -0.55743         5.07130
     2008.67624        -1.45342         5.51530
     2008.67898         5.95958         5.19738
     2008.68172        -2.57141         5.03528
     2008.68449        12.05252         5.12354
     2008.68720         2.02760         5.07490
     2008.68993         1.97260         5.12354
     2008.69267         0.51161         5.09922
     2008.69541         6.20061         5.02357
     2008.69815         5.38962         5.13434
     2008.70089         6.27162         5.18117
     2008.70365         5.00256         5.02447
     2008.70634         2.57968         5.05959
     2008.70910         5.54264         5.10282
     2008.71184         2.18864         5.20009
     2008.71457         2.41965         5.03798
     2008.71731        -2.35534         5.06680
     2008.72005         7.59066         5.09562
     2008.72282         2.11259         5.02627
     2008.72553         0.12467         5.14245
     2008.72826        -0.22132         5.00466
     2008.73100         9.17268         5.18027
     2008.73374        -1.11631         5.31807
     2008.73648         0.34569         4.95422
     2008.73921         2.19870         5.00466
     2008.74469         3.95971         4.95332
     2008.74743         5.76271         5.06049
     2008.75017         4.04872         5.03888
     2008.75290        10.53273         5.05509
     2008.75564         9.05773         5.09652
     2008.75838        10.76774         5.02537
     2008.76115         8.53267         5.07400
     2008.76386         4.35875         5.01726
     2008.76659         5.91375         5.25412
     2008.76933        -5.83424         5.17847
     2008.77207        -1.40624         4.92270
     2008.77481         1.08977         4.96953
     2008.77754         0.37177         4.93711
     2008.78031        -3.07029         4.97223
     2008.78302        -5.10122         4.91369
     2008.78576         2.16579         4.95332
     2008.78850         1.81479         5.05239
     2008.79123         5.01680         5.28204
     2008.79397        -2.75419         5.38201
     2008.79671        -0.13819         5.12984
     2008.79948        -2.78626         5.08031
     2008.80219         8.16782         5.23431
     2008.80492         2.96883         5.10462
     2008.80766        -1.09217         5.01366
     2008.81040        10.58084         5.26043
     2008.81314        -3.90316         5.16226
     2008.81587         1.89885         4.96953
     2008.81864        -3.41122         4.94702
     2008.82135        -4.68314         4.96593
     2008.82409        -5.03814         5.02447
     2008.82683        -4.67013         5.04338
     2008.82956         0.15788         5.07760
     2008.83230        -0.59312         5.05239
     2008.83505         2.11085         5.02897
     2008.83781         1.20081         5.42704
     2008.84055         2.06180         5.21720
