# ================= DQRFIT RESULTS ================
# INPUT FILE: series/PNCL.rad
# OUTPUT: LDETRENDED
# FILTER FUNCTION: f(t)
# f(t)=+line(t)+annual(t)+jumps(t)
# line(t)=+P 1+P 2*t
# annual(t)=+P 3*sin(2*pi*t+P 4)
# jumps(t)=+P 5*heav(t-2011.1260  )+P 6*heav(t-2011.3210  )
# heav(t)=(t<0?0:1)
# TOTAL OBSERVATIONS MTOT= 1854
# INITIAL TIME INTERVAL= 2012.0628 - 2006.6721 =  5.3906
# TOTAL OBSERVATIONS AFTER PREFILTER M= 1804
# TIME-SPAN= 2012.0628 - 2006.6721 =  5.3906
# OBSERVATIONS: USED M=  1804 REJECTED MTOT-M=    50 %USED=   97.3031
# N=  6 PARAMETERS
# MAXSIG= 175.00000
# MAXRES=  22.50020
# SCALE FACTOR FOR LENGTHS: SCL=  10.00000
# SCALE FACTOR FOR SIGMAS: SCLSIG=   1.00000
# CHI^2=   2088.221 DOF=  1798 CHI^2/DOF=   1.16141
# RMS=      6.280 SDEV=      6.280 MEAN=    0.14255
#  P #       PARAMETER +-    SIGMA %error PARAMETER NAME
# P 1 =      -853.42657 +-  246.659  28.90 YZERO                              
# P 2 =         0.45814 +-    0.123  26.80 SLOPE                              
# P 3 =         4.55479 +-    0.220   4.83 ANNUAL AMPLITUDE                   
# P 4 =        -3.04473 +-    0.068   2.23 ANNUAL PHASE                       
# P 5 =      -165.72954 +-    0.990   0.60 OFFSET 2011.1260                   
# P 6 =        95.85392 +-    1.016   1.06 OFFSET 2011.3210                   
#       T            LDETRENDED       SIG_OBS
     2006.67215        18.96305         6.53079
     2006.67488        17.43680         6.60515
     2006.67762        14.53954         6.67413
     2006.68036        11.44129         6.47583
     2006.68310        13.43003         6.71292
     2006.68584        11.07878         6.80560
     2006.68807        14.14275         9.02564
     2006.69131        15.44327         6.37561
     2006.69405        14.41702         6.26245
     2006.69679         9.96176         6.36591
     2006.69953        11.83251         6.37561
     2006.70226        26.90025         6.36160
     2006.70500        16.42200         6.21611
     2006.70774        19.22174         6.12558
     2006.71048        16.77149         6.15791
     2006.71321        16.52423         6.42841
     2006.71595        14.50098         6.18809
     2006.71869        15.12573         6.18486
     2006.72143        16.92947         6.32064
     2006.72417        16.20522         6.36806
     2006.72690        18.35696         6.18378
     2006.72964        14.95471         6.22904
     2006.73238        20.35745         6.17516
     2006.73512        16.54520         6.24844
     2006.73786        13.63195         6.19132
     2006.74059        14.27369         6.23227
     2006.74333        15.71244         6.17300
     2006.74607        23.39418         6.15468
     2006.74881        17.85693         6.29155
     2006.75154        16.58367         6.37022
     2006.75428        14.42042         6.66658
     2006.75702        17.68517         6.14714
     2006.75976        16.74291         6.16438
     2006.76250        13.65166         6.33358
     2006.76523         6.38240         6.39824
     2006.76797         6.81315         6.38962
     2006.77071        -2.97111         6.12235
     2006.77345         6.89764         6.25598
     2006.77619        16.59539         6.22473
     2006.77892        19.13313         6.20210
     2006.78166        17.91788         6.05014
     2006.78440        14.95462         6.04152
     2006.78714        11.59537         6.33897
     2006.78987        15.72311         6.11481
     2006.79261        12.72086         6.06092
     2006.79473         5.65989         8.64091
     2006.79809         2.60835         6.21611
     2006.80083         8.49310         6.16546
     2006.80339         6.59892         6.31202
     2006.80630         6.45459         6.03506
     2006.80904         6.01733         6.07816
     2006.81178         7.17908         6.14606
     2006.81452         5.27483         6.18593
     2006.81725         5.53257         6.20318
     2006.81999         8.02032         6.06200
     2006.82273         9.34806         5.99303
     2006.82546        10.85681         6.43272
     2006.82826        11.64553         6.12774
     2006.83100        11.68327         6.12558
     2006.83414        16.56484         7.68392
     2006.83648        10.36176         6.25814
     2006.83921         7.39351         6.40039
     2006.84195        -4.04074         6.51786
     2006.84469         0.39800         6.35405
     2006.84737        -9.19923         6.38746
     2006.85011         9.89552         6.37992
     2006.85285         9.75526         6.35621
     2006.85558         4.43601         6.29155
     2006.85832        11.97776         6.24628
     2006.86106        -0.12550         6.44781
     2006.86380         2.31225         6.27430
     2006.86653         3.01999         6.33681
     2006.86927         8.95874         6.07062
     2006.87192        -6.20747         6.73987
     2006.87455         5.27832         6.48338
     2006.87749         9.90898         6.07062
     2006.88022        -1.41828         6.10187
     2006.88296         0.39547         6.40147
     2006.88570         8.31721         6.20210
     2006.88844        -5.28504         6.21395
     2006.89118        -4.43430         6.12343
     2006.89391        -7.70255         6.35836
     2006.89665        -5.09680         6.26784
     2006.89939        -0.34706         6.11265
     2006.90213        -2.34231         6.10080
     2006.90486       -13.86657         6.22365
     2006.90760        -7.61482         6.15576
     2006.91034        -1.62608         6.19563
     2006.91308         6.97867         6.48338
     2006.91582        -7.08458         6.16222
     2006.91855        -7.13084         6.09325
     2006.92129         0.82691         6.07924
     2006.92403        -1.06035         6.18270
     2006.92677        -7.93660         6.09110
     2006.92859         4.94656        10.00095
     2006.93224         4.01589         6.12019
     2006.93498         7.84264         6.52648
     2006.93772         7.11538         6.16438
     2006.94046         8.07313         6.23982
     2006.94319         0.87287         6.25922
     2006.94593        -2.46938         6.17085
     2006.94867        -0.86864         6.35621
     2006.95067         1.66045         8.66677
     2006.95415        -8.89614         6.52217
     2006.95688         6.55960         6.13636
     2006.95962         1.66935         6.09217
     2006.96236         6.25109         6.08355
     2006.96510        -0.62016         6.31095
     2006.96784         3.09058         6.20641
     2006.97057         5.81933         6.31202
     2006.97331        -8.88592         6.22150
     2006.97605        -0.55818         6.08355
     2006.97879        -3.31843         6.11157
     2006.98152        -4.05269         6.28185
     2006.98426        -1.97194         6.16869
     2006.98700        -3.71920         6.32711
     2006.98974        -5.35745         6.23766
     2006.99248        -6.84971         6.33142
     2006.99521        -2.62096         6.26137
     2006.99795        -3.83021         6.26460
     2007.00343         4.90728         6.62132
     2007.00616        -3.09998         6.18378
     2007.00890        -3.94523         6.19455
     2007.01164         2.56351         6.13528
     2007.01438        -0.71674         6.42302
     2007.01712       -16.75799         6.83039
     2007.01985        -8.91925         6.11265
     2007.02259       -20.55650         6.24628
     2007.02533       -10.51576         6.02859
     2007.02807       -14.83301         6.12019
     2007.03081        -9.44627         6.03182
     2007.03354        -3.78852        17.57710
     2007.03628        -9.43677         5.83461
     2007.03815        -6.51363         9.45672
     2007.04176       -11.67328         5.93806
     2007.04342        -4.73404        12.74367
     2007.04723       -17.70879         5.98117
     2007.04997       -13.76405         6.04583
     2007.05271        -6.54730         6.04152
     2007.05545        -5.23255         5.85616
     2007.05818       -14.85081         5.92621
     2007.06092        -9.49706         5.94345
     2007.06366       -15.06232         5.90897
     2007.06640        -6.06957         5.98117
     2007.06914        -7.78083         5.82060
     2007.07187         1.59892         5.82383
     2007.07461        -2.65433         5.82814
     2007.07735        -4.60859         5.82706
     2007.07987        -7.51474         6.54265
     2007.08282         1.33490         5.80874
     2007.08556         0.20565         5.96501
     2007.08830         0.05039         5.90573
     2007.09104         4.06314         6.01566
     2007.09378        -2.10211         5.94130
     2007.09623        -9.39624         6.96402
     2007.09919        -6.85760         6.09864
     2007.10199         0.21912         5.88741
     2007.10473        -4.34413         5.99842
     2007.10747        -5.83139         5.98117
     2007.11020         2.56236         5.91005
     2007.11182        -3.68838        14.04013
     2007.11568        -3.15415         5.88526
     2007.11842        -3.62840         5.87771
     2007.12115        -3.28166         5.85185
     2007.12389        -2.93891         5.94992
     2007.12663         4.91383         5.89388
     2007.12937         2.30458         6.14929
     2007.13211        -7.12468         6.02644
     2007.13484         2.15807         5.85077
     2007.13758         3.17282         5.95639
     2007.13996         6.39573         7.11167
     2007.14306         1.95631         5.89065
     2007.14580        -4.53895         5.88203
     2007.14853        -4.59620         5.90789
     2007.15127        10.25054         5.88095
     2007.15401         1.77329         6.02536
     2007.15675         8.01504         5.88957
     2007.15948         9.01478         5.90358
     2007.16222         2.84653         6.18593
     2007.16496         6.73127         6.07601
     2007.16770        11.12902         6.11588
     2007.17044        18.30976         6.13636
     2007.17317         9.82751         6.06954
     2007.17591         6.21426         6.07062
     2007.17865        -3.43900         6.40039
     2007.18139         4.53075         6.01781
     2007.18413        -0.16751         6.12019
     2007.19062         4.13352        11.55067
     2007.19234        -6.21827         6.16869
     2007.19508        -3.41652         5.90035
     2007.19781        -5.34578         5.95639
     2007.20055        -4.64903         5.97255
     2007.20329       -11.92629         6.00919
     2007.20603        -3.77954         5.90681
     2007.20877        -4.72880         5.94022
     2007.21150        -6.19705         6.02428
     2007.21652         0.80765         7.51149
     2007.21924         1.86641         7.63219
     2007.22246        -0.04707         6.01135
     2007.22519         8.51268         6.05338
     2007.22793         1.91442         5.97902
     2007.23067        -4.29383         5.85401
     2007.23341        -0.35308         5.96932
     2007.23614        -4.49234         6.03075
     2007.23888        -0.58959         5.97040
     2007.24129        -5.27770         6.91122
     2007.24436         1.82990         5.92298
     2007.24710         2.43164         5.88741
     2007.24983         0.96239         5.92190
     2007.25257        -1.89587         5.94453
     2007.25531        -2.12912         5.90573
     2007.25779         2.54974         6.65149
     2007.26079         1.98137         5.98117
     2007.26352         2.70712         6.18162
     2007.26626        -1.27214         6.25706
     2007.26900         8.65461         6.01997
     2007.27174         2.67235         6.05877
     2007.27447         7.27310         5.91328
     2007.27721         9.26785         5.89172
     2007.27991        12.72761         6.17731
     2007.28271         3.70133        11.83518
     2007.28543         5.31108         5.92082
     2007.28816         6.76483         5.93268
     2007.29090         5.56457         5.93806
     2007.29364         2.43632         5.87556
     2007.29638        -0.52293         5.87125
     2007.29911         1.85581         8.73143
     2007.30185         4.02356         5.91651
     2007.30459         6.85030         5.88957
     2007.30733         0.63405         5.98656
     2007.31007         2.27879         6.25706
     2007.31280         5.31354         6.01243
     2007.31500         6.57554         7.85096
     2007.31828         4.78703         5.99842
     2007.32008         0.44121        10.81568
     2007.32922         1.89102         5.93483
     2007.33196         7.74276         6.24952
     2007.33470         1.25151         6.10726
     2007.33744        -4.89474         5.95962
     2007.34017        -1.71500         5.94776
     2007.34291        -4.23425         6.00704
     2007.34565        -8.69451         5.91220
     2007.34839        -9.17276         6.02320
     2007.35112         1.04098         5.97794
     2007.35386        -0.58227         6.33142
     2007.36208        -1.15303         5.98333
     2007.36481        -4.37929         6.35836
     2007.36755        -4.09454         6.06631
     2007.37029        -7.16280         6.23443
     2007.37303         3.32295         6.14606
     2007.37577        -3.31230         6.24090
     2007.37850        -9.68856         6.08140
     2007.38124        -5.64081         6.06739
     2007.38398        -2.69607         5.99949
     2007.38672        -0.81332         6.16653
     2007.38945        -2.21758         5.97902
     2007.39219       -15.13783         6.22689
     2007.39493        -7.42809         5.95746
     2007.39767        -2.78734         5.98441
     2007.40041         0.24441         5.99303
     2007.40314        -1.60485         5.96608
     2007.40588        -9.06510         5.95746
     2007.40862       -11.63236         6.14821
     2007.41136       -13.41461         5.98548
     2007.41410        -4.38187         5.96393
     2007.41683        -6.27912         5.91112
     2007.41957        -4.99837         6.03398
     2007.42231         6.35137         6.06092
     2007.42505        -0.45288         6.17408
     2007.42778         6.99486         5.91543
     2007.43052         1.20261         5.90897
     2007.43326         1.48535         5.93375
     2007.43600        -7.24990         5.95315
     2007.43874        -6.77815         6.04583
     2007.44421         1.17834         6.07709
     2007.44695        -2.80892         5.98225
     2007.44969        -5.73317         5.94345
     2007.45243        -6.38743         5.96070
     2007.45516        -4.80568         5.91974
     2007.45790         1.11107         5.88634
     2007.46064        -0.12619         5.90250
     2007.47159        -5.01221         6.05661
     2007.47433       -11.05346         5.92190
     2007.47707       -10.17771         6.18809
     2007.47980       -11.60197         5.96824
     2007.48254       -11.78022         5.93268
     2007.48528        -3.57048         5.99842
     2007.48802        -6.78473         6.08894
     2007.49076         6.10301         6.31849
     2007.49453         4.67228        12.88592
     2007.49623       -29.63449        16.87445
     2007.49937         2.63507         9.31231
     2007.50172       -11.95701         7.62680
     2007.50537        -1.95468        20.74012
     2007.50718        -5.08251         5.94022
     2007.50992       -12.79677         6.11912
     2007.51266       -11.02302         6.03398
     2007.51894        -8.07590         9.62053
     2007.52087         0.74222         5.92513
     2007.52361        -3.59504         5.89819
     2007.52635        -2.83429         6.03937
     2007.52908        -2.41055         6.63641
     2007.53189        -5.80783         6.18917
     2007.53456         5.97594         6.15684
     2007.53730        -3.40531         5.99842
     2007.54004        -3.53356         6.00380
     2007.54277        -4.34782         6.00273
     2007.54551        -8.67707         6.01781
     2007.54825         4.43267         6.05014
     2007.55099         0.96242         6.03506
     2007.55373         0.54616         6.08248
     2007.55646        -6.83209         6.11157
     2007.55920         3.95966         5.99410
     2007.56194        -6.22360         6.74094
     2007.56468         0.18615         5.94992
     2007.56741        -7.16111         6.10187
     2007.56981         7.30580         7.02330
     2007.57563        -1.38387         5.96285
     2007.57837         1.68988         5.95531
     2007.58110         4.48362         5.93160
     2007.58384         5.58837         5.94130
     2007.58658        -0.49489         5.94022
     2007.58932         0.35486         5.95423
     2007.59206         5.68460         5.91005
     2007.59479         5.47635         6.04152
     2007.59753         0.17710         6.10942
     2007.60027         3.05484         5.88634
     2007.60301         5.88359         5.97255
     2007.60574         4.11333         5.90035
     2007.60848         1.95208         5.88310
     2007.61122         5.22082         5.99195
     2007.61396         1.91857         5.95962
     2007.61670         0.89132         6.44997
     2007.61943         5.97606         6.43380
     2007.62303        10.54941        12.35570
     2007.62491        11.83155         6.23766
     2007.62769         8.15628         6.39069
     2007.63039         0.90504         6.28185
     2007.63312         3.77579         6.11157
     2007.63586         3.78354         6.08355
     2007.63860         1.15228         6.07601
     2007.64134         7.47703         5.99518
     2007.64407         1.24277         6.27323
     2007.64681         8.17552         6.31418
     2007.64955        10.44426         6.31957
     2007.65229         5.62201         6.26137
     2007.65503         6.86976         6.19887
     2007.65776         9.73550         6.16977
     2007.66050         4.00025         6.23658
     2007.66324        -3.56201         6.47475
     2007.66598         6.06574         6.20856
     2007.66872         7.40148         6.33034
     2007.67145         3.36023         6.34328
     2007.67419         6.33697         6.28831
     2007.67693         6.19372         6.17085
     2007.67967        12.66747         8.26264
     2007.68526         6.78891         7.06317
     2007.69142         4.88908         9.31123
     2007.69336         8.73919         6.16653
     2007.69609         6.44094         6.22581
     2007.69883         8.19569         6.19024
     2007.70157         7.59643         6.17408
     2007.70431         6.23418         6.38746
     2007.70705        -0.99308         6.42734
     2007.70978         3.16067         6.28616
     2007.71252         1.90741         6.33358
     2007.71526        11.40916         6.01135
     2007.71800         7.77791         6.02751
     2007.72159        -9.44274        10.30486
     2007.72347         9.43440         6.07170
     2007.72621         7.92714         5.92944
     2007.72895         4.63189         6.00596
     2007.73169         6.27463         6.11696
     2007.73442         3.36538         6.13313
     2007.73716         2.59213         6.28508
     2007.73990         4.90587         6.09110
     2007.74264        15.89262         5.98333
     2007.74538        22.56236         6.13744
     2007.74811         2.84011         6.20964
     2007.75085         5.25885         6.64718
     2007.75387        -8.81753        10.01281
     2007.75633         3.43535         6.01243
     2007.75906        14.16509         6.01781
     2007.76178         5.66085         6.06415
     2007.76454         4.46958         6.32927
     2007.76728         1.29433         6.49739
     2007.77002        17.25507         6.66874
     2007.77275         0.09682         6.41979
     2007.77549         7.95557         5.99842
     2007.77823         9.60331         6.18270
     2007.78100        14.06604         7.39833
     2007.78371        -1.03920         6.07170
     2007.78644        13.02555         6.01997
     2007.78918         3.71429         6.21611
     2007.79192         9.46504         6.20102
     2007.79466         8.50479         6.29909
     2007.79739         7.85353         6.34435
     2007.80013         9.87828         6.16977
     2007.80281         2.73905         6.10618
     2007.80561        -4.19323         5.98872
     2007.80835         1.82551         6.14175
     2007.81108        19.26226         6.33897
     2007.81463        -4.13437        10.00742
     2007.81656         7.13175         6.26676
     2007.81930         1.24650         6.06523
     2007.82203         0.66724         6.11804
     2007.82477         3.96699         6.45212
     2007.82751         2.59173         6.09864
     2007.83025         3.00548         6.19024
     2007.83299         4.37122         6.04799
     2007.83572         5.81497         6.00596
     2007.83846         5.13472         6.05769
     2007.84120         6.05546         5.99410
     2007.84400        -7.36282         6.09756
     2007.84674         1.45192         6.13205
     2007.84948         2.09767         6.14067
     2007.85221         6.23042         7.82294
     2007.85495         5.20016         6.61270
     2007.85769        -2.65409         6.40470
     2007.86043        11.21065         6.07601
     2007.86300        -2.98352        10.33827
     2007.86590        12.00114         6.12451
     2007.86864        10.62389         6.15145
     2007.87138         5.71164         6.57282
     2007.87412         3.50638         6.28724
     2007.87685         6.40313         6.16977
     2007.87959        13.53387         6.17408
     2007.88233         7.39862         6.12127
     2007.88507         2.61136         6.22581
     2007.88781         5.02411         7.64081
     2007.89054         5.30486         6.12235
     2007.89328         8.22060         6.30987
     2007.89642        10.06216         7.94795
     2007.89876         7.94109         6.31633
     2007.90149         4.54684         6.23335
     2007.90423        -4.52842         6.26137
     2007.90697         2.38233         6.16438
     2007.90971         3.15108         6.26568
     2007.91245         7.78482         6.20641
     2007.91518        13.62357         6.25059
     2007.91792        -3.97269         6.44673
     2007.92066       -16.01394         6.70322
     2007.92340       -10.30720         6.53510
     2007.92614         1.66055         6.20210
     2007.92887        12.86430         8.98361
     2007.93161         7.74704         6.19563
     2007.93435         5.59879         6.15899
     2007.93709         3.09553         6.20102
     2007.93982        -2.78172         6.29262
     2007.94256         7.17402         6.32064
     2007.94530         5.32477         6.30340
     2007.94804        -1.01848         6.23227
     2007.95078         4.61726         6.45967
     2007.95345         3.28603         6.25059
     2007.95619         2.41878         6.34112
     2007.95893        20.92053         6.35729
     2007.96254        14.51487        10.93639
     2007.96440         8.37502         6.37884
     2007.96717        -9.61325        13.00339
     2007.96988        -1.57249         6.17731
     2007.97262        -1.61775         6.33897
     2007.97535        -5.57200         6.28724
     2007.97809        -3.13625         6.21934
     2007.98083         5.36849         6.11696
     2007.98357         2.82824         6.12989
     2007.98631         6.06698         6.28508
     2007.98904         0.95373         6.33897
     2007.99178        -3.38953         6.25598
     2007.99452        -5.10678         6.36914
     2007.99726        -0.29303         6.04799
     2008.00051       -14.36952         9.23148
     2008.00359         2.53507        10.95578
     2008.00547        -0.67880         5.99949
     2008.00821        -2.32005         6.15899
     2008.01095        -9.35331         6.12989
     2008.01368         2.65144         5.94992
     2008.01642         1.36219         5.93806
     2008.01916         1.49193         6.08248
     2008.02190        -8.79832         6.11696
     2008.02464        -2.52958         5.99087
     2008.02737        -5.08083         5.94884
     2008.03011        -1.95209         6.19455
     2008.03285        -4.19234         6.03075
     2008.03644        -7.29799        10.35982
     2008.03833        -7.29985         6.02320
     2008.04195         1.40449        10.43203
     2008.04380        -6.95036         6.10726
     2008.04654        -7.34261         6.11050
     2008.04928        -9.37787         6.06308
     2008.05201        -8.22912         5.98441
     2008.05475       -11.36237         6.00919
     2008.05749        -8.08163         5.94776
     2008.06023        -0.75288         5.94776
     2008.06297         2.13986         5.97255
     2008.08333         9.00953        15.53596
     2008.08510        -8.65428         6.48445
     2008.08761         2.30157         6.01243
     2008.09034        -1.08568         5.96393
     2008.09308         0.13706         5.99626
     2008.09582       -14.74319         6.33681
     2008.09856        -3.57844         6.14175
     2008.10130        -3.31870         6.25275
     2008.10403         2.20505         5.96177
     2008.10677        -3.04721         5.98872
     2008.10951        -5.11946         6.05877
     2008.11225        -1.53472         6.00596
     2008.11498        -6.62197         6.10511
     2008.11861        -0.38663         9.14527
     2008.12046        -2.83048         5.91759
     2008.12320        -0.15873         6.21180
     2008.12571       -13.89388         7.43390
     2008.12902        -0.82140         9.37050
     2008.13141         3.25150         5.93914
     2008.13415        -2.56475         5.99087
     2008.13689        -2.25900         5.99734
     2008.13963         3.37474         5.98656
     2008.14236         6.71949         5.99518
     2008.14510         5.19023         5.97363
     2008.14784         0.55898         5.95423
     2008.15058        -1.30428         5.93806
     2008.15331        -9.23853         6.09864
     2008.15697        -4.73920         9.44055
     2008.15879        -4.06304         5.89280
     2008.16153        -6.55729         6.02859
     2008.16427        -8.13455         6.05014
     2008.16700       -12.58980         5.93591
     2008.17054       -17.19142         8.65600
     2008.17248        -6.78531         5.97902
     2008.17522       -10.38356         6.04152
     2008.17796        -4.98182         5.96177
     2008.18069       -13.01207         5.94884
     2008.18343        -9.31033         5.94884
     2008.18611        -8.91356         6.11481
     2008.18891       -15.96884         6.12666
     2008.19164        -3.09709         6.15252
     2008.19438        -6.73834         5.95315
     2008.19712        -2.99460         7.18172
     2008.19986        -5.42085         5.93052
     2008.20260        -4.72811         5.93268
     2008.20533        -3.18636         5.87448
     2008.20807        -4.98362         6.11696
     2008.21081        -6.22887         6.11481
     2008.21355        -2.91713         6.31095
     2008.21629        -3.96538         6.02428
     2008.21902        -5.94663         6.05230
     2008.22176        -6.81389         6.00919
     2008.22450       -10.10414         6.14606
     2008.22724        -8.84140         6.02320
     2008.22997       -12.59165         6.20210
     2008.23271        -8.64491         6.18054
     2008.23544       -16.11615         8.65707
     2008.42550        -2.55823        14.18131
     2008.42710        -4.13496         5.91112
     2008.42984        -6.47122         5.93268
     2008.43258         4.12553         6.02967
     2008.43531        -6.74172         5.97363
     2008.43805        -5.97498         5.93483
     2008.44079       -12.34023         6.00811
     2008.44353        -7.85049         5.86694
     2008.44626        -6.88274         5.93591
     2008.44900       -11.89800         5.87233
     2008.45174        -9.16225         6.02967
     2008.45448        -8.77350         5.96932
     2008.45722        -7.18076         5.86586
     2008.45995        -9.39201         5.87340
     2008.46269       -13.41227         5.85293
     2008.46543        -9.79752         5.92837
     2008.46817        -6.51078         5.89280
     2008.47091       -18.38403         5.96501
     2008.47364       -15.14128         6.08355
     2008.47638        -3.22454         6.02320
     2008.47912       -10.78679         7.18495
     2008.48186        -8.26505         5.84538
     2008.48459        -2.08730         5.99410
     2008.48733       -10.16256         5.90573
     2008.49007        -9.10681         5.87987
     2008.49281        -9.15907         5.94992
     2008.49555       -14.88432         6.02751
     2008.49828        -9.63357         6.08355
     2008.50102        -8.23283         6.09110
     2008.50376        -4.01008         6.08355
     2008.50650        -6.80634         5.93483
     2008.50924        -5.01159         6.14283
     2008.51197        -0.82985         5.98979
     2008.51471        -7.36610         5.92405
     2008.51745        -4.85335         5.96070
     2008.52019        -8.21261         6.05877
     2008.52292        -8.57286         6.14283
     2008.52566        -6.97712         6.11050
     2008.52840        -1.35237         5.94884
     2008.53114        -2.37463         5.91651
     2008.53388        -2.41588         5.97902
     2008.53661       -11.31113         5.92513
     2008.53935        -3.55939         6.08679
     2008.54209        -3.70964         5.90250
     2008.54483        -1.07990         6.01566
     2008.54757        -0.01015         5.98764
     2008.55030         1.67759         6.02751
     2008.55304        -3.91566         6.08032
     2008.55578         4.11809         5.87233
     2008.55852        -0.34217         6.15145
     2008.56125        -8.69242         5.87340
     2008.56399       -11.55468         6.02105
     2008.56673        -2.37093         5.93806
     2008.56947        -0.07619         5.87448
     2008.57221         1.99756         6.13313
     2008.57494         1.89931         6.17516
     2008.57768        -2.25495         6.26892
     2008.58042         0.17680         5.88957
     2008.58316        -2.52846         6.01135
     2008.58590         6.01829         5.81629
     2008.58863         1.40303         6.04907
     2008.59137         2.24078         6.94570
     2008.59411        -1.55347         5.84107
     2008.59685        -0.79073         5.85939
     2008.59958         7.29702         6.15899
     2008.60232        -0.86524         6.25383
     2008.60506       -10.40749         6.24952
     2008.60780        -4.11375         5.94238
     2008.61054        -3.84700         5.94345
     2008.61327         1.17674         5.99734
     2008.61601         5.54849         5.94238
     2008.61875         0.56324         5.95746
     2008.62155         0.25695         6.12558
     2008.62423         2.24873         6.02751
     2008.62685         5.22653         6.23551
     2008.62971         4.87221         6.24844
     2008.63244         4.48996         6.04260
     2008.63518        -9.83929         6.09756
     2008.63791         5.62146         6.09541
     2008.64065         4.18520         6.02859
     2008.64339         5.92695         6.05338
     2008.64613         9.26569         6.23012
     2008.64887         2.34844         5.95639
     2008.65160         7.41318         5.95531
     2008.65434        -4.96407         6.12882
     2008.65708        -4.16132         6.34651
     2008.65982         0.95542         6.30340
     2008.66256         8.50117         6.04368
     2008.66529         2.97891         5.98441
     2008.66803        -1.54334         5.97471
     2008.67077        -6.05160         6.05122
     2008.67351         1.46115         6.01458
     2008.67624        -1.81910         6.52864
     2008.67898         6.06664         6.05122
     2008.68172         3.15639         6.00057
     2008.68446         2.16513         6.03075
     2008.68720         2.37388         6.05446
     2008.68993         8.34562         6.08463
     2008.69267        -0.37663         6.00596
     2008.69541         1.97012         5.96932
     2008.69815         2.24586         6.12019
     2008.70089         6.89161         6.02212
     2008.70362         8.71035         5.96070
     2008.70636         7.65410         5.98333
     2008.70910         0.79384         6.03506
     2008.71184         3.17659         6.15576
     2008.71457         0.35234         5.95639
     2008.71731        -0.08192         6.00165
     2008.72005         2.51483         5.99734
     2008.72279         5.19557         6.31633
     2008.72553        -6.06768         6.06739
     2008.72826         3.89306         5.94561
     2008.73100         7.98081         6.14067
     2008.73374         5.65156         6.16869
     2008.73648         0.05730         5.92298
     2008.73921         2.17005         5.90897
     2008.74469        -0.39246         5.95854
     2008.74743         5.17428         5.94453
     2008.75017         7.17003         5.97578
     2008.75290        10.24977         6.17731
     2008.75564         0.64152         6.08032
     2008.75838         5.34127         6.01458
     2008.76112         6.46901         5.97363
     2008.76386         4.50576         5.99842
     2008.76659        -1.50850         6.20641
     2008.76933         1.61825         5.99842
     2008.77207        -0.91501         5.89065
     2008.77481         2.78974         5.82599
     2008.77754         1.69049         5.87987
     2008.78028        -0.69477         5.84000
     2008.78302        -1.94202         5.89496
     2008.78576         0.56372         5.92405
     2008.78850        -1.38553         6.03829
     2008.79123        -2.42779         6.00380
     2008.79397        -2.33904         6.17839
     2008.79671        -4.82829         6.13313
     2008.79945        -5.92255         6.02105
     2008.80219        -0.92080         5.99087
     2008.80492        -1.28106         5.90466
     2008.80766         0.33969         5.91220
     2008.81040         7.33843         6.26029
     2008.81314        -0.27782         6.19024
     2008.81587         1.57493         5.92837
     2008.81861        -2.09333         5.91005
     2008.82135        -6.20258         5.91436
     2008.82409        -1.28484         6.03613
     2008.82683         1.70891         5.98548
     2008.82956        -6.81635         5.97471
     2008.83230        -8.67560         6.07278
     2008.83504         2.27615         6.02644
     2008.83778         2.81789         6.39824
     2008.84058         5.12361         6.06739
     2008.84332         4.46635         6.05553
     2008.84599         6.01113         5.92082
     2008.84879        -2.62315         6.11481
     2008.85147        -7.46938         5.93806
     2008.85420         5.11037         6.09433
     2008.85694         2.23711         5.99195
     2008.85968         4.32086         5.98117
     2008.86242         2.59460         6.05661
     2008.86516        -1.65865         5.96501
     2008.86789         1.18009         5.92082
     2008.87063         0.94184         6.11804
     2008.87337        -5.53141         5.92513
     2008.87606        -3.71465         6.13636
     2008.87914       -11.11006         6.86703
     2008.88158        -1.71518         6.11588
     2008.88432        -6.51643         5.88634
     2008.88706        -1.05469         6.13313
     2008.88980        -8.14294         6.25706
     2008.89253         2.57080         6.00273
     2008.89527        -1.59245         6.05769
     2008.89801         3.48530         6.01674
     2008.90075        -5.54096         5.96070
     2008.90326        -6.58411         6.59977
     2008.90724        11.82107        12.80079
     2008.90896         0.99828         5.97902
     2008.91170        -7.25298         5.97686
     2008.91444         0.14577         5.94992
     2008.91718        -1.46548         5.95746
     2008.91991         1.00326         6.14606
     2008.92265        -0.46499         5.97794
     2008.92539        -1.95525         6.10834
     2008.92813         3.19050         6.05877
     2008.93086        -5.83276         6.16007
     2008.93360        -4.25901         6.04368
     2008.93634        -2.97126         5.97255
     2008.93908       -15.59952         6.05769
     2008.94182       -13.32277         6.01458
     2008.94455       -12.40903         6.04368
     2008.94729       -11.30328         6.09756
     2008.95003        -7.97354         6.06200
     2008.95277       -11.86779         5.89711
     2008.95551        -9.93304         5.90681
     2008.95824       -11.63130         5.94130
     2008.96098       -11.42555         6.11050
     2008.96372        -1.06781         5.87556
     2008.96646        -4.05306         6.00919
     2008.96919        -9.39132         5.94669
     2008.97193        -6.42857         6.00488
     2008.97741        -0.98908         5.86370
     2008.98015         3.45767         6.03613
     2008.98288        -1.96859         5.98656
     2008.98538       -13.35973         6.89505
     2008.98931         3.24547        11.04631
     2008.99110        -5.82835         5.94238
     2008.99384         0.94440         5.97794
     2008.99657        -5.56086         5.94561
     2008.99960        -4.51324         6.63964
     2009.00479       -22.76462         5.98333
     2009.00752         2.45712         5.91112
     2009.01026         0.54287         5.89496
     2009.01300         5.08662         5.95746
     2009.01574        -0.80864         5.91436
     2009.01848        -3.37389         5.99734
     2009.02121       -13.88715         6.15899
     2009.02395       -11.40840         6.09110
     2009.02669        -9.89366         5.97040
     2009.02943       -13.61991         5.94453
     2009.03216       -13.36717         5.98872
     2009.03490       -10.67642         5.91436
     2009.03764        -8.73067         5.95531
     2009.04038        -6.05693         5.93052
     2009.04312        -8.62718         5.94238
     2009.04585       -10.25144         5.90897
     2009.04859       -10.78469         5.90358
     2009.05133        -9.55695         5.96285
     2009.05407        -8.84220         5.92190
     2009.05681        -8.79445         5.91759
     2009.05960        -7.58673         6.07601
     2009.06228       -10.04296         5.94453
     2009.06502       -11.55622         5.91759
     2009.06776        -7.56147         5.91328
     2009.07049       -10.74273         5.92837
     2009.07323        -9.21698         6.01350
     2009.07597        -9.48123         5.92082
     2009.07871        -9.24049         5.92298
     2009.08145        -4.38974         5.95639
     2009.08418        -5.78000         6.20102
     2009.08692        -8.65425         6.15468
     2009.08966       -11.53651         5.97686
     2009.09240        -6.41676         5.94561
     2009.09514        -3.08801         5.89280
     2009.09787        -2.83027         5.93375
     2009.10061        -4.84252         5.98764
     2009.10335        -3.68378         5.95315
     2009.10609         0.53097         6.01350
     2009.10847        -5.50912         7.18495
     2009.11439       -10.05483         6.22904
     2009.11704        -7.40105         6.01566
     2009.11978        -4.07830         5.92837
     2009.12251        -3.26156         5.97255
     2009.12525        -7.05781         5.90897
     2009.12799        -2.21207         5.90789
     2009.13078        -3.82335         6.05769
     2009.13347        -7.01757         5.92298
     2009.13620        -3.87083         5.95962
     2009.13894       -10.61808         5.97255
     2009.14168        -7.11434         5.96501
     2009.14442         0.63941         5.96177
     2009.14715        -9.35185         6.02320
     2009.14989        -9.67010         6.04799
     2009.15263        -6.84035         6.06631
     2009.15537       -16.76761         6.17731
     2009.15811        -9.14186         6.12343
     2009.16084        -5.80012         6.11373
     2009.16358        -9.56537         7.26147
     2009.16632       -10.46663         6.32711
     2009.16906        -3.32588         6.15145
     2009.17180        -2.63914         5.93806
     2009.17453        -9.12539         5.95746
     2009.17727        -1.09364         6.18809
     2009.18001       -13.28390         5.99518
     2009.18280        -2.72818         5.99734
     2009.18548        -5.91641         5.87879
     2009.18822        -8.27666         5.91220
     2009.19096        -7.87492         5.88849
     2009.19370        -5.66217         5.90035
     2009.19644        -4.91442         5.87233
     2009.19917         4.91732         6.25491
     2009.20186        -7.20391         6.09756
     2009.20465        -7.65919         6.00380
     2009.20739        -2.61544         5.94130
     2009.21013        -3.86070         5.87879
     2009.21286         1.21905         5.86586
     2009.21560        -5.25020         5.94238
     2009.21834        -1.00746         5.96608
     2009.22108         0.91229         5.90250
     2009.22381        -2.46697         5.94453
     2009.22655        -0.98522         5.86263
     2009.22902        -4.74935         6.41979
     2009.27310        -2.85254         6.10618
     2009.27583         0.21320         6.05122
     2009.27857       -10.72705         6.09756
     2009.28131        -5.39831         6.17408
     2009.28405        -4.27156         6.05122
     2009.28679        -2.06882         6.05984
     2009.28952        -2.06707         6.05877
     2009.29226        -9.14333         6.20749
     2009.29500        -6.74858         6.01135
     2009.29774        -4.73283         6.00919
     2009.30047        -5.48709         6.01566
     2009.30321        -4.63534         6.06092
     2009.30595        -3.65860         6.33573
     2009.30869         3.24315         6.06847
     2009.31143        -2.18411         5.99842
     2009.31416        -0.05036         6.03613
     2009.31690        -0.36761         5.97471
     2009.31964        -5.89087         5.99087
     2009.32238        -1.26612         6.05230
     2009.32512        -3.00038         6.24197
     2009.32785        -6.06663         6.12127
     2009.33059        -5.78989         5.96285
     2009.33333        -5.15914         5.92298
     2009.33607       -14.68439         6.09217
     2009.33880        -2.02565         5.92837
     2009.34154        -0.07690         6.05984
     2009.34428        -4.02316         5.98979
     2009.34702         1.55759         5.95315
     2009.34976        -3.60467         5.83784
     2009.35249        -5.85692         5.92513
     2009.35523        -3.38017         5.94669
     2009.35797         5.30657         5.99303
     2009.36071         1.88432         6.06954
     2009.36344         1.82806         5.94669
     2009.36618        -5.75319         6.09864
     2009.36892         0.03055         5.94776
     2009.37166         2.47130         5.99626
     2009.37440         1.24505         5.99195
     2009.37713        -2.77421         5.96824
     2009.37987        -2.00746         6.10080
     2009.38261         7.38828         5.86909
     2009.38535         0.40503         5.91220
     2009.38809        -0.12223         5.93268
     2009.39082        -3.02748         5.90466
     2009.39356        -4.79573         5.99195
     2009.39630        -2.68399         5.89819
     2009.39904         3.13476         5.92190
     2009.40177         8.52750         5.93806
     2009.40451         6.53025         5.95315
     2009.40725         5.00699         5.94561
     2009.40999        -2.13326         5.95746
     2009.41273         0.45849         5.99518
     2009.41546        -0.35677         5.97363
     2009.41820         0.44898         6.01243
     2009.42094        -4.42428         5.95854
     2009.42368        -0.07753         6.03182
     2009.42642        -2.29379         6.00596
     2009.42915        -1.92304         6.12235
     2009.43189         0.32270         5.89711
     2009.43463        -2.04355         5.92405
     2009.43737        -2.39180         5.92837
     2009.44010        -3.67506         6.00919
     2009.44284        -1.61231         5.94561
     2009.44558        -4.14057         5.86909
     2009.44832         1.30518         5.93914
     2009.45106        -0.16308         5.94130
     2009.45379        -1.67933         5.96716
     2009.45653        -2.33258         5.98441
     2009.45927        -3.46984         5.96608
     2009.46201         2.12491         5.94022
     2009.46475         5.92865         6.15360
     2009.46748         1.42540         6.18593
     2009.47022        -4.28386         5.99195
     2009.47296         2.84589         6.00273
     2009.47570        -0.79236         5.92729
     2009.47843         5.80038         6.04799
     2009.48117         0.49813         5.96608
     2009.48391         0.45087         6.01350
     2009.48665        -1.75838         6.03613
     2009.48939        -3.95464         6.27107
     2009.49212         7.49211         6.00811
     2009.49486         4.60686         5.99734
     2009.49760         2.54560         6.00488
     2009.50034         1.12635         5.93699
     2009.50308         0.92809         5.94130
     2009.50581         0.86784         5.95854
     2009.50855         3.48558         5.97040
     2009.51129         2.35933         5.97578
     2009.51403         4.36008         5.89604
     2009.51676         3.92282         5.92298
     2009.51950         1.92157         5.92405
     2009.52224        -3.71569         5.98441
     2009.52498        -3.70494         5.99303
     2009.52772         4.65280         6.01135
     2009.53045         0.97255         6.06523
     2009.53319         3.73030         5.94345
     2009.53593         1.58104         5.94345
     2009.53867        -1.42121         5.96824
     2009.54141        -1.40047         5.96285
     2009.54414         2.09228         6.09756
     2009.54688         3.81502         5.91543
     2009.54962        -3.46923         5.91867
     2009.55236         2.32152         5.94022
     2009.55509         3.76326         5.91220
     2009.55783         9.84501         5.97471
     2009.56057        10.76275         6.28508
     2009.56331         5.81450         6.22689
     2009.56605        -1.31176         6.31849
     2009.56878        -1.06101         6.00488
     2009.57152         2.45373         6.07816
     2009.57426         7.51148         6.06308
     2009.57700         5.24523         6.23551
     2009.57974         5.80697         6.00596
     2009.58247         3.31972         6.01781
     2009.58521         6.44346         6.09541
     2009.58795        -2.73379         6.19779
     2009.59069         7.00295         6.00057
     2009.59342         3.50370         6.19887
     2009.59616         9.97345         6.15360
     2009.59890         2.65719         6.01997
     2009.60164        -5.55806         6.30448
     2009.60438         3.77468         6.01027
     2009.60711        -1.27757         6.11050
     2009.60985         0.84217         6.04152
     2009.61259        -1.83008         5.96716
     2009.61533         3.52567         5.99410
     2009.61807         6.18641         5.93268
     2009.62080         6.49616         5.99303
     2009.62354         2.36390         6.01458
     2009.62628         7.06265         5.99734
     2009.62902         7.95439         6.07601
     2009.63175         4.60314         6.03398
     2009.63449        -1.47511         6.21072
     2009.63723         4.31363         6.05553
     2009.63997         2.16438         6.18593
     2009.64271         2.53912         6.06954
     2009.64544         2.92087         6.05984
     2009.64818         8.21461         6.26892
     2009.65092         2.12836         6.06200
     2009.65366         6.29211         6.07816
     2009.65639         1.33285         5.96716
     2009.65913         2.46760         5.90142
     2009.66187         8.05534         5.87125
     2009.66461         6.69209         5.89819
     2009.66735         9.85883         6.05122
     2009.67008        11.46258         6.01781
     2009.67282         2.31733         6.12127
     2009.67556         5.42207         5.93268
     2009.67830         8.27382         6.35298
     2009.68104         0.30056         6.28831
     2009.68377         2.71931         5.98979
     2009.68651         6.01905         5.91867
     2009.68925         6.44180         6.08786
     2009.69199         3.79955         5.97255
     2009.69472         2.97629         6.00057
     2009.69746         5.08104         5.93052
     2009.70020        12.86178         6.00273
     2009.70294         5.29753         5.97686
     2009.70568         0.85327         5.98548
     2009.70841         9.84002         6.10511
     2009.71115        -3.13524         5.96393
     2009.71389         6.05651         6.24736
     2009.71663         0.54026         6.26353
     2009.71937         1.63900         5.95423
     2009.72210        -3.68225         5.94992
     2009.72484         1.37349         6.04045
     2009.72758         0.48624         6.01889
     2009.73032         2.42898         6.17192
     2009.73305         2.69673         6.17300
     2009.73579         3.77548         6.44781
     2009.73853         3.41622         5.92190
     2009.74127         4.12197         6.13313
     2009.74401        -3.30329         6.20210
     2009.74674         7.93346         5.90250
     2009.74948         2.71720         5.93591
     2009.75222        -2.12705         6.00811
     2009.75496         0.96270         5.96716
     2009.75770        -0.74856         5.94022
     2009.76043         4.28919         5.92405
     2009.76317         8.57193         5.95315
     2009.76591         1.81168         5.90142
     2009.76865         6.20242         6.20210
     2009.77138        -0.03783         5.98979
     2009.77412         4.18792         5.97363
     2009.77686         6.98766         6.00919
     2009.77960        11.32441         6.01027
     2009.78234         7.92115         5.96824
     2009.78507        19.78490         6.08032
     2009.78781         5.34064         6.15684
     2009.79055        14.44739         6.58899
     2009.79329       -11.95186         6.51463
     2009.79603        -4.84912         6.15468
     2009.79876         7.71163         6.05446
     2009.80150         0.32437         6.16007
     2009.80424         4.15012         6.39608
     2009.80698         2.85586         6.09864
     2009.80971        -4.71839         6.40147
     2009.81245        15.34236         6.12666
     2009.81519        10.35710         6.14821
     2009.81793         4.73185         6.29586
     2009.82067         7.57359         6.02967
     2009.82340        10.16034         5.99842
     2009.82614         4.74608         6.11373
     2009.82888        11.83183         6.17516
     2009.83162         2.51858         6.36699
     2009.83436         0.49932         6.08571
     2009.83709         0.42707         6.14606
     2009.83983        -0.30819         6.05661
     2009.84257         6.97556         6.16653
     2009.84531        16.67130         6.43488
     2009.84804        -2.05695         6.44135
     2009.85078        11.98379         6.20749
     2009.85352         7.76354         6.12882
     2009.85626        18.96929         6.39285
     2009.85900         2.97703         6.23227
     2009.86173        -1.58622         6.07709
     2009.86447         8.69352         6.44135
     2009.86721        10.46527         6.31202
     2009.86995         2.89201         6.09433
     2009.87269         9.94576         6.14175
     2009.87542         1.91151         6.26676
     2009.87816         9.50825         6.43811
     2009.88090         1.90300         6.24521
     2009.88364        -2.49426         6.39716
     2009.88637        -1.09151         6.39393
     2009.88911         7.27123         6.15899
     2009.89185         8.15498         6.12558
     2009.89459        -4.01127         6.07601
     2009.89733       -10.20253         6.23874
     2009.90006         2.40722         6.14283
     2009.90280        -6.98404         6.02428
     2009.90554         0.04671         6.12774
     2009.90828        -4.20555         6.01889
     2009.91102        -8.04780         5.98548
     2009.91375        -3.15605         6.04691
     2009.91649        -3.16031         6.02859
     2009.91923        -4.43756         5.95315
     2009.92197        -6.89682         5.97902
     2009.92470        -6.68207         5.99303
     2009.92739        -6.32630         6.23012
     2009.93020        -2.54959         5.95854
     2009.93292        -0.25183         5.95423
     2009.93566        -1.84509         5.96932
     2009.93839         4.19766         6.09649
     2009.94113         2.43840         5.97902
     2009.94387         1.93515         6.12343
     2009.94661         6.34189         6.06523
     2009.94935         1.68864         5.93375
     2009.95208        -1.77461         5.96932
     2009.95482       -11.15387         6.10726
     2009.95756        -6.62812         6.13959
     2009.96030        -9.31338         6.05984
     2009.96303        -6.86263         6.02644
     2009.96577        -3.36889         6.19132
     2009.96851        -3.36714         6.16546
     2009.97125        -1.10140         6.13852
     2009.97399        -5.24465         6.06200
     2009.97672         0.44610         5.94561
     2009.97946        -3.12516         5.90250
     2009.98220        -2.74141         5.88526
     2009.98494        -4.45967         5.86586
     2009.98767        -6.72692         5.93052
     2009.99041         0.45682         5.88849
     2009.99315         0.63057         5.87879
     2009.99589         0.98332         5.91220
     2009.99863        -3.82794         6.02644
     2010.00410        -5.26445         5.92405
     2010.00684        -7.14670         5.94776
     2010.00958        -3.52496         5.96070
     2010.01232       -10.12621         5.96177
     2010.01505        -9.11246         5.95531
     2010.01779        -6.03772         6.04152
     2010.02053        -9.51597         6.21719
     2010.02327       -11.48123         6.09541
     2010.02600        -3.51648         6.02320
     2010.02874        -1.23774         6.19240
     2010.03148        -4.47499         6.12451
     2010.03422        -7.83124         6.01889
     2010.03696        -9.98850         6.36375
     2010.03969        -5.82775         6.56205
     2010.04243        -0.05601         5.89280
     2010.04517         7.23974         6.01566
     2010.04791         0.77048         6.12235
     2010.05065         3.45123         6.22904
     2010.05338         2.31498         6.20641
     2010.05612         5.88072         5.99087
     2010.05886         3.70347         5.91759
     2010.06160         0.73221         5.89711
     2010.06433         0.11296         5.93375
     2010.06711        -3.49131         6.04799
     2010.06981        -7.51255         6.04583
     2010.07255        -5.72880         6.02105
     2010.07529        -5.45106         6.10080
     2010.07802        -2.53631         5.95854
     2010.08076        -7.21757         5.83892
     2010.08316         0.75933         7.19896
     2010.08578         8.02013         7.65590
     2010.08852         8.00688         8.07404
     2010.09126         4.43062         7.72918
     2010.09399         9.05437         7.80139
     2010.09673         3.22612         7.73673
     2010.09947        -1.91814         7.67530
     2010.10221         0.82561         7.81001
     2010.10495         2.80935         7.80247
     2010.10768         2.18110         7.83911
     2010.11042         2.34884         7.91778
     2010.11316         4.92059         7.78199
     2010.11590         4.35234         7.94041
     2010.11864         5.25508         7.75613
     2010.12137         6.70883         8.06219
     2010.12411         5.86357         7.76798
     2010.12685        -6.18268         8.09236
     2010.12959         3.45206         7.85743
     2010.13232        -4.43319         7.78307
     2010.13506         0.28956         7.78630
     2010.13780         5.00230         7.69685
     2010.14054        -2.45095         7.61818
     2010.14328         3.14179         7.83480
     2010.14601        -0.66546         7.94257
     2010.14875         0.14928         7.73026
     2010.15149         6.53603         7.65913
     2010.15423         2.93177         7.64081
     2010.15697         0.37952         7.61926
     2010.15970         3.93727         7.56969
     2010.16244         1.13201         7.70009
     2010.16518        -0.74124         7.89946
     2010.16792         0.10050         7.61064
     2010.17065         3.18925         7.53089
     2010.17339        -4.26301         7.49101
     2010.17613        -1.04226         7.44144
     2010.17887         5.21449         7.43821
     2010.18161         0.53723         7.58477
     2010.18434         1.42498         7.42312
     2010.18708         4.34472         7.46946
     2010.18982         3.39847         7.57400
     2010.19256        -0.06979         7.49101
     2010.19530         6.32796         7.63650
     2010.19809         4.55268         7.15370
     2010.20083        -0.82857         7.20543
     2010.20357        -8.08983         7.49317
     2010.20630         2.74392         7.32505
     2010.20904         3.95766         7.18280
     2010.21178         4.71041         7.26901
     2010.21492        -2.96203         7.20974
     2010.21726        16.04490         7.39726
     2010.21999        -2.47735         7.12999
     2010.22273        -1.24761         7.13645
     2010.22547         0.91014         7.18495
     2010.22821         7.45788         7.19681
     2010.23094         9.79863         7.17848
     2010.23368        -0.30963         7.16663
     2010.23916         7.23087         7.49317
     2010.24190        -0.32339         7.61710
     2010.24463        -1.11064         7.18495
     2010.24737         5.64610         7.23560
     2010.25011         7.60585         7.58585
     2010.25285         2.75959         7.27871
     2010.25559         9.59034         7.31858
     2010.25832         5.32808         7.33583
     2010.26106         0.85983         7.39187
     2010.26380         3.58258         7.48778
     2010.26654         6.35832         7.31320
     2010.26927         4.77307         7.35523
     2010.27201         4.27981         7.18818
     2010.27475         2.03656         7.13969
     2010.27749         4.04830         7.23991
     2010.28023         0.20605         6.98558
     2010.28296        -3.50920         7.06425
     2010.28570         0.05354         7.16986
     2010.28844        -2.80571         7.06317
     2010.29118         5.57703         7.09227
     2010.29391         3.00178         6.99204
     2010.29665         3.45152         7.18926
     2010.29939        -1.82673         7.15154
     2010.30213         6.91202         7.13538
     2010.30487         4.53776         7.00067
     2010.30760         8.70451         6.93708
     2010.31034         6.80325         7.05240
     2010.31308         5.96000         6.87242
     2010.31582        15.09674         7.04054
     2010.31856        14.56049         7.27332
     2010.32129         5.98124         6.99959
     2010.32403         8.81298         6.96726
     2010.32677         6.42373         6.92523
     2010.32951         1.29547         7.00174
     2010.33224         4.52222         6.94894
     2010.33498        -3.75504         7.36277
     2010.33772        12.28771         6.95217
     2010.34046        -1.99354         6.91445
     2010.34320         4.51220         6.86595
     2010.34593        -3.43705         6.91553
     2010.34867         6.02469         6.90475
     2010.35141         3.48144         6.91768
     2010.35415        -0.00282         6.90906
     2010.35728         3.98275         5.91543
     2010.36002         3.18449         6.08786
     2010.36276         4.19124         5.89172
     2010.36550         1.85598         6.12019
     2010.36824         4.23473         6.14714
     2010.37097        -0.17852         6.03075
     2010.37371         5.84222         5.91759
     2010.37645         4.74997         5.95100
     2010.37919         6.55671         6.19132
     2010.38193        -1.36454         6.29155
     2010.38466         2.90420         6.04583
     2010.38740         7.06195         6.06092
     2010.39014         3.55269         6.01458
     2010.39288         4.18544         5.93591
     2010.39561        -3.60381         6.02859
     2010.39835        -4.40807         5.90142
     2010.40109        -0.26832         5.91005
     2010.40385        -0.27059         5.96177
     2010.40657         3.13217         5.84215
     2010.40930         2.93591         5.97794
     2010.41204        -3.20334         5.89280
     2010.41478         7.17241         5.89604
     2010.41752         6.16115         6.06954
     2010.42026         4.93390         5.92298
     2010.42299         3.81264         5.87125
     2010.42573        -2.15161         5.83245
     2010.42847        -5.63587         5.91005
     2010.43121        -2.92212         5.86155
     2010.43394        -1.35637         5.87340
     2010.43668        -0.86263         5.96501
     2010.43942         5.70312         5.87879
     2010.44216        -1.56014         5.85293
     2010.44490        -5.61239         5.92944
     2010.44763        -5.45665         5.99626
     2010.45037         2.36910         5.82599
     2010.45311         0.38085         5.91867
     2010.45585         0.17459         5.89927
     2010.45859         4.32134         6.00704
     2010.46132        -1.63892         5.98979
     2010.46406        -0.53117         5.84215
     2010.46680         2.22657         5.83568
     2010.46954        -3.15068         6.05769
     2010.47227        -4.42993         5.87017
     2010.47501         0.75281         5.84862
     2010.47775         4.72956         6.08679
     2010.48049        -4.95370         6.04583
     2010.48323         0.90605         5.95100
     2010.48596         2.81579         5.88095
     2010.48870         5.22654         5.90466
     2010.49144         3.31629         5.89496
     2010.49418        -1.13097         5.81952
     2010.49692         4.68278         5.81305
     2010.49965        -0.16248         5.83892
     2010.50239         5.48527         5.94238
     2010.50513         1.04201         6.02536
     2010.50787        -0.76624         5.84754
     2010.51060        -0.92550         5.80120
     2010.51334        -3.52775         5.98333
     2010.51608        -3.76200         5.84862
     2010.51882         0.86474         5.88526
     2010.52156        -2.71451         6.14498
     2010.52429         9.48423         5.93914
     2010.52703         2.53798         6.01781
     2010.52977        -1.22128         5.87233
     2010.53251         2.69447         5.91651
     2010.53525         1.79722         5.93806
     2010.53798        -5.33804         5.96501
     2010.54072        -5.63829         5.83030
     2010.54346        -5.84355         5.98117
     2010.54620        -3.40080         5.87340
     2010.54893        -1.02106         5.81952
     2010.55167        -5.94331         5.89496
     2010.55441         5.65044         5.94130
     2010.55715        -2.51882         5.87125
     2010.55989        -2.12707         5.87664
     2010.56262        -1.97733         6.13852
     2010.56536        -2.21558         5.86478
     2010.56810        -0.03684         5.85939
     2010.57084        -0.48009         5.84000
     2010.57357        -6.51034         6.02536
     2010.57631        -6.27060         6.00596
     2010.57905        -4.60685         5.90681
     2010.58179         5.35489         5.85832
     2010.58453        -4.04036         5.88634
     2010.58726        -3.34062         5.98979
     2010.59000         3.86513         6.05769
     2010.59274        -6.01612         5.88526
     2010.59548         5.59062         5.91220
     2010.59822         5.27137         5.88203
     2010.60095         2.85211         5.87448
     2010.60369         4.71586         5.94453
     2010.60643         7.08460         5.85185
     2010.60917        -0.76065         5.88741
     2010.61190        -1.65490         5.83353
     2010.61464         0.32684         5.96501
     2010.61738        -0.16241         5.87556
     2010.62012        -0.17667         5.86370
     2010.62286         1.83308         5.89172
     2010.62559         5.34282         5.87017
     2010.62833         4.82357         5.90573
     2010.63107         1.37932         6.07924
     2010.63381        13.11306         5.87987
     2010.63655         9.63481         5.90789
     2010.63928        10.38255         5.85939
     2010.64202         4.33630         5.91328
     2010.64476         2.36504         5.99410
     2010.64750         6.55779         5.85401
     2010.65023        11.18053         6.23443
     2010.65297        10.86028         6.12451
     2010.65571        10.35003         5.78503
     2010.65845        10.56977         5.77533
     2010.66119         7.83652         5.87987
     2010.66392         9.13126         5.94776
     2010.66666         9.97601         5.87125
     2010.66940         7.88675         5.82599
     2010.67214         7.25650         5.90035
     2010.67488         7.57325         6.03937
     2010.67761        16.09899         5.84215
     2010.68035         4.68674         5.90789
     2010.68309         7.59948         5.83353
     2010.68583         5.17323         5.81198
     2010.68846        10.01802         6.01458
     2010.69130         5.81372         5.94992
     2010.69404         5.60947         5.94669
     2010.69678         1.90721         5.80335
     2010.69952         3.09996         5.83676
     2010.70225         1.23470         5.89065
     2010.70499         5.00545         5.93483
     2010.70773         8.89119         5.93483
     2010.71047         5.20594         5.81413
     2010.71321        -1.96831         5.88095
     2010.71594         8.21243         5.99303
     2010.71868         5.50518         6.06200
     2010.72142         4.59792         5.99303
     2010.72416         4.14767         5.98979
     2010.72689         9.41441         6.04583
     2010.72963         1.85216         5.92944
     2010.73237         1.55391         5.96285
     2010.73511         6.63965         6.10726
     2010.73785         7.49340         6.17947
     2010.74058         3.85314         6.21395
     2010.74332         0.73089         5.81198
     2010.74606        10.04563         5.99410
     2010.74880         5.15138         5.98117
     2010.75154         9.43113         5.89927
     2010.75427         5.07087         5.95639
     2010.75701         6.07462         6.03075
     2010.75975         4.31036         5.81736
     2010.76249         9.71011         5.78719
     2010.76522         8.96885         5.85508
     2010.76796         7.26760         5.98656
     2010.77070         3.54635         6.37992
     2010.77344         5.60609         6.37992
     2010.77618         3.30884         5.78503
     2010.77891         2.14158         5.83245
     2010.78165         1.25433         5.84646
     2010.78439         8.88807         6.21826
     2010.78713        13.25782         6.03075
     2010.78987        14.25656         5.81198
     2010.79260         8.13831         5.78072
     2010.79534         3.83106         5.79258
     2010.79808         9.07080         5.84323
     2010.80082        10.01955         5.83568
     2010.80355        11.22729         5.84000
     2010.80629         8.53404         5.93160
     2010.80903        15.76978         5.81198
     2010.81177        13.50653         6.17731
     2010.81451        14.93528         5.86909
     2010.81724        10.04502         5.92405
     2010.81998         8.38377         5.84646
     2010.82272         6.82351         5.82491
     2010.82546         4.45226         5.83245
     2010.82820        -3.22000         5.90573
     2010.83093         8.52575         6.13959
     2010.83367         0.86150         6.52972
     2010.83641        -7.17376         5.96716
     2010.83915        -2.49501         5.82167
     2010.84188        -5.70027         5.92190
     2010.84462         8.97448         6.05877
     2010.84736        11.47422         5.89280
     2010.85010        13.08497         6.03506
     2010.85284         6.91772         5.81952
     2010.85557         4.79446         5.82383
     2010.85831         3.82221         5.79581
     2010.86105        -4.28905         5.86909
     2010.86379         0.73370         5.86694
     2010.86653        -4.42956         5.88203
     2010.86926        -4.49181         5.82275
     2010.87200         0.38094         5.84969
     2010.87474        -3.08432         6.04152
     2010.87748         3.34143         6.09217
     2010.88021         1.74517         5.85508
     2010.88295        -0.11908         5.94669
     2010.88569        -4.74734         5.91112
     2010.88843         4.54941         6.04368
     2010.89117         9.45416         6.05230
     2010.89390         6.80290         5.75270
     2010.89664         5.04665         5.79150
     2010.89938         7.55239         5.75055
     2010.90212         3.77814         5.89927
     2010.90485         1.64388         5.76456
     2010.90759         5.05263         5.70959
     2010.91033         5.46538         5.72253
     2010.91307        -2.91488         5.80982
     2010.91581        -2.17713         5.70959
     2010.91854         2.57061         5.72253
     2010.92128         0.27636         5.73869
     2010.92402        -0.48790         5.70421
     2010.92676         5.30485         5.72253
     2010.92950         5.72759         5.77857
     2010.93223         1.00334         5.78072
     2010.93497         8.94009         5.94130
     2010.93771        -2.65817         5.89927
     2010.94045         2.08658         5.84107
     2010.94318        -0.50368         5.72360
     2010.94592        -3.92593         5.78180
     2010.94866         1.90181         5.75594
     2010.95140         2.38556         6.14821
     2010.95414        -3.80269         5.80120
     2010.95687        -1.52195         5.73330
     2010.95961        -0.97420         5.88849
     2010.96235         4.17054         5.79150
     2010.96509         1.05129         5.77102
     2010.96783         1.36403         5.77102
     2010.97056         3.58878         5.90789
     2010.97330         1.18353         5.83892
     2010.97604         5.61527         5.88957
     2010.97878        20.54702         6.05122
     2010.98151        -2.74524         5.84431
     2010.98425         0.66351         5.80551
     2010.98699         4.49125         5.72899
     2010.98973        -0.23100         5.84431
     2010.99247         4.27175         5.99626
     2010.99520         3.38749         5.83784
     2010.99794        -4.43076         5.75055
     2011.00342         2.01473         5.81090
     2011.00616         7.15447         5.79365
     2011.00889         4.96822         5.98979
     2011.01163        -2.08903         5.76779
     2011.01437        -5.76029         5.73007
     2011.01711        -5.77554         6.24628
     2011.01984         0.94720         5.77964
     2011.02258        -9.89505         5.74947
     2011.02532        -2.82831         5.83892
     2011.02806         1.37544         6.02859
     2011.03080        -3.26981         5.83892
     2011.03353        -7.59907         5.79689
     2011.03627        -2.37732         5.87987
     2011.03901        -6.99458         5.86155
     2011.04175        -2.03483         5.96070
     2011.04449        -8.90409         5.81952
     2011.04722        -5.58034         5.84862
     2011.04996        -8.09759         5.86263
     2011.05270        -2.38685         5.73007
     2011.05544       -13.21010         5.97794
     2011.05817        -2.47036         5.77102
     2011.06091        -1.47361         5.73654
     2011.06365        -2.68687         5.79689
     2011.06639        -1.90012         5.73546
     2011.06913        -5.56038         6.12558
     2011.07186       -11.91563         5.82383
     2011.12662      -162.65772         5.92513
     2011.12936      -165.43297         5.76887
     2011.13210      -167.32822         5.74300
     2011.13483      -165.24848         5.74516
     2011.13757      -165.54373         5.69882
     2011.14031      -164.41699         5.71822
     2011.14305      -166.08224         5.81521
     2011.14579      -171.22550         5.78180
     2011.14852      -169.90575         5.70097
     2011.15126      -173.40100         5.68912
     2011.15400      -164.14026         5.88957
     2011.15674      -158.14552         5.69343
     2011.15948      -169.35777         6.01674
     2011.16221      -166.01602         5.73869
     2011.16495      -172.81728         5.96932
     2011.16769      -173.58553         5.72037
     2011.17043      -170.48178         5.73223
     2011.17316      -188.95604         5.71606
     2011.17591      -188.18930         5.71067
     2011.17864      -165.70955         5.73115
     2011.18138      -171.01280         5.72899
     2011.18412      -173.85006         5.77533
     2011.18685      -168.61231         5.78827
     2011.18959      -178.51857         5.73330
     2011.19233      -163.23482         5.87879
     2011.19507      -171.76108         5.83030
     2011.19780      -172.25433         5.94992
     2011.20054      -164.32258         5.81952
     2011.20328      -169.51984         5.88634
     2011.20602      -173.79109         5.84000
     2011.20876      -177.70335         5.82275
     2011.21149      -174.43660         5.74300
     2011.21423      -170.14585         5.74624
     2011.21697      -166.75611         5.86802
     2011.21971      -171.33136         5.80982
     2011.22245      -172.65062         5.75270
     2011.22518      -159.69487         5.73223
     2011.22792      -166.58413         5.73869
     2011.23066      -176.20538         5.76995
     2011.23340      -167.76263         5.74947
     2011.23613      -168.15989         5.71822
     2011.32101       -71.24377         5.74947
     2011.32375       -85.91303         5.78180
     2011.32648       -74.87128         5.71714
     2011.32923       -83.21054         5.73977
     2011.33196       -73.10379         5.76348
     2011.33470       -79.83504         5.77857
     2011.33744       -77.61330         5.80551
     2011.34017       -69.92055         5.96285
     2011.34291       -71.27981         5.90358
     2011.34565       -68.73806         5.86478
     2011.34839       -74.86732         5.81736
     2011.35112       -72.80357         5.78396
     2011.35386       -78.48482         5.83568
     2011.35660       -72.83708         5.75594
     2011.35934       -78.80133         5.76132
     2011.36208       -90.47159         5.77102
     2011.36481       -72.78684         5.91220
     2011.36756       -78.73710         5.87233
     2011.37029       -84.48035         5.89711
     2011.37303       -74.91060         5.87879
     2011.37577       -73.44186         5.87233
     2011.37850       -85.43211         5.86263
     2011.38124       -80.06937         5.83892
     2011.38398       -79.56962         5.94776
     2011.38672       -78.42588         5.85832
     2011.38945       -73.32413         5.87879
     2011.39219       -83.98238         5.87233
     2011.39493       -73.53264         5.84323
     2011.39767       -79.58089         9.40068
     2011.39918       -81.66659        19.91030
     2011.41796       -77.46019        13.56379
     2011.41957       -76.53793         5.88095
     2011.42231       -76.77218         5.88634
     2011.42505       -74.93744         5.86909
     2011.42778       -78.58969         5.88310
     2011.43052       -74.26994         5.95639
     2011.43326       -82.19020         5.86478
     2011.43600       -76.75645         5.84646
     2011.43874       -79.65871         5.87125
     2011.44147       -72.46096         5.86155
     2011.44421       -78.58222         5.84107
     2011.44695       -76.54747         5.88526
     2011.44969       -75.43472         5.91651
     2011.45243       -74.56198         5.86155
     2011.45516       -82.76923         5.85832
     2011.45790       -78.34749         5.91543
     2011.46064       -73.03674         5.87340
     2011.46338       -78.11800         5.92190
     2011.46611       -73.81325         5.85508
     2011.46885       -76.12651         6.07816
     2011.47159       -78.32476         5.92082
     2011.47433       -67.23401         5.89819
     2011.47707       -68.31227         5.94884
     2011.47980       -67.57752         5.91112
     2011.48255       -76.03478         5.91328
     2011.48528       -74.95103         5.91112
     2011.48802       -66.74729         5.93483
     2011.49076       -66.62754         6.04476
     2011.49349       -74.99879         5.94884
     2011.49623       -72.69805         5.89604
     2011.49897       -71.85530         5.93052
     2011.50171       -69.29756         5.93268
     2011.50444       -75.27481         5.98117
     2011.50718       -71.59407         5.99518
     2011.50992       -75.71132         5.94561
     2011.51266       -70.54357         5.99626
     2011.51540       -70.88283         5.89388
     2011.51813       -72.73708         5.90681
     2011.52088       -71.48334         5.96501
     2011.52361       -70.20659         5.93699
     2011.52635       -71.65785         5.96824
     2011.52908       -70.95410         5.88849
     2011.53182       -69.02735         5.94345
     2011.53456       -66.97261         5.96070
     2011.53730       -72.45286         6.00273
     2011.54004       -72.35812         5.94669
     2011.54277       -75.12337         5.86155
     2011.54551       -71.37463         5.88957
     2011.54825       -70.61088         5.92190
     2011.55099       -71.45213         6.00811
     2011.55373       -76.21739         5.86802
     2011.55646       -77.44264         5.92190
     2011.55920       -71.18490         5.89065
     2011.56194       -69.94615         5.96393
     2011.56468       -66.83741         5.90035
     2011.56741       -67.32666         5.92298
     2011.57015       -77.47991         5.99087
     2011.57289       -77.79217         5.85724
     2011.57563       -69.88742         5.86478
     2011.57837       -67.12268         6.01350
     2011.58110       -75.23393         5.91759
     2011.58384       -66.22219         5.94884
     2011.58658       -67.58444         6.09217
     2011.58932       -75.70569         5.86370
     2011.59206       -72.16295         5.98009
     2011.59479       -60.34720         5.95207
     2011.59754       -65.81246         5.91328
     2011.60027       -68.33771         5.90358
     2011.60301       -68.84497         5.91005
     2011.60574       -73.12822         5.95639
     2011.60848       -64.57348         6.23227
     2011.61122       -67.13373         6.14714
     2011.61396       -64.28198         6.03290
     2011.61670       -68.64624         6.08355
     2011.61943       -73.27249         5.99518
     2011.62217       -67.92475         5.95207
     2011.62491       -70.39700         6.07493
     2011.62765       -70.96726         5.99303
     2011.63039       -68.25751         6.02859
     2011.63312       -63.63576         5.94776
     2011.63587       -60.51202         5.91759
     2011.63860       -68.72627         6.08140
     2011.64134       -61.63753         6.24197
     2011.64407       -71.01078         6.02428
     2011.64681       -65.52704         6.02212
     2011.64955       -63.15929         6.16546
     2011.65229       -65.01654         6.08355
     2011.65503       -68.66980         6.14283
     2011.65776       -65.73605         6.15360
     2011.66050       -65.20431         6.11588
     2011.66324       -62.50256         5.95854
     2011.66598       -63.30382         6.08786
     2011.66872       -64.41107         6.11265
     2011.67145       -61.47932         5.93914
     2011.67420       -60.91658         5.93591
     2011.67693       -57.84383         5.97794
     2011.67967       -64.33909         5.93160
     2011.68240       -65.56734         6.00057
     2011.68514       -60.20260         6.04152
     2011.68788       -64.05285         6.05769
     2011.69062       -61.40210         6.07170
     2011.69336       -59.28336         6.05769
     2011.69609       -61.60961         6.03398
     2011.69883       -54.36287         6.07062
     2011.70157       -61.35612         5.96716
     2011.70431       -64.06038         6.13313
     2011.70705       -62.46263         6.15899
     2011.70978       -60.99088         5.99303
     2011.71252       -55.06014         6.15037
     2011.71526       -57.32039         6.16115
     2011.71800       -64.46765         6.12451
     2011.72073       -54.96090         5.98441
     2011.72347       -58.33916         6.29478
     2011.72621       -59.57341         6.27969
     2011.72895       -48.96966         6.11157
     2011.73169       -50.23292         6.53726
     2011.73442       -54.07417         6.02105
     2011.73716       -53.46843         6.24521
     2011.73990       -66.56668         6.05984
     2011.74264       -62.74894         5.95207
     2011.74538       -47.79319         6.23766
     2011.74811       -54.00445         6.28939
     2011.75085       -58.90570         6.15899
     2011.75359       -55.05295         6.14821
     2011.75633       -61.20021         6.17947
     2011.75906       -56.36746         6.00919
     2011.76180       -59.02572         5.97794
     2011.76454       -62.14397         6.00811
     2011.76728       -68.12423         6.09972
     2011.77002       -60.99548         6.68059
     2011.77275       -50.85473         6.74418
     2011.77549       -51.05199         7.25500
     2011.77823       -57.03024         6.10403
     2011.78097       -72.45450         6.03075
     2011.78371       -59.96975         6.05877
     2011.78644       -62.58001         5.99410
     2011.78919       -66.47926         5.93483
     2011.79192       -68.20551         5.99195
     2011.79466       -68.80377         5.98872
     2011.79739       -63.41702         6.11373
     2011.80013       -57.53228         6.07278
     2011.80287       -63.63153         5.98441
     2011.80561       -58.55879         6.01997
     2011.80835       -64.64104         6.00488
     2011.81108       -69.45129         5.99410
     2011.81382       -73.56355         6.24197
     2011.81650       -70.89878         6.15145
     2011.81930       -68.93806         5.96285
     2011.82203       -69.59431         6.17839
     2011.82477       -64.56357         6.18378
     2011.82752       -67.83182         6.13852
     2011.83033       -66.68511         6.31310
     2011.83299       -69.91133         6.05877
     2011.83572       -62.29458         6.16438
     2011.83846       -65.42484         6.12235
     2011.84120       -69.55109         5.88634
     2011.84394       -64.50335         6.18162
     2011.84668       -67.95060         5.98979
     2011.84941       -67.85685         6.00380
     2011.85215       -73.20211         6.08894
     2011.85489       -72.71336         6.11588
     2011.85763       -74.80762         6.33465
     2011.86036       -61.06487         6.19240
     2011.86310       -57.06813         6.19994
     2011.86585       -53.98938         6.13528
     2011.86858       -53.39064         5.94345
     2011.87132       -60.05489         6.10511
     2011.87405       -65.89714         6.27754
     2011.87679       -60.77540         6.25922
     2011.87953       -67.79265         6.06200
     2011.88227       -75.01591         5.88526
     2011.88501       -66.35416         5.86047
     2011.88774       -65.08142         6.02967
     2011.89048       -65.15567         6.07170
     2011.89322       -68.10492         6.03075
     2011.89596       -72.70218         5.92729
     2011.89869       -61.17043         5.98225
     2011.90143       -69.61369         5.96177
     2011.90417       -65.76594         6.21288
     2011.90691       -66.49320         5.95639
     2011.90965       -69.27545         5.91112
     2011.91238       -62.89770         6.01997
     2011.91512       -71.47396         5.93052
     2011.91786       -68.33621         6.03937
     2011.92060       -74.60247         5.91651
     2011.92334       -79.93772         6.04476
     2011.92607       -73.03298         6.00596
     2011.92881       -68.16823         5.98548
     2011.93153       -69.68348         6.04260
     2011.93429       -69.97974         5.99195
     2011.93702       -69.19899         5.98656
     2011.93976       -67.32325         5.98333
     2011.94250       -71.52750         5.94345
     2011.94524       -67.97176         5.98225
     2011.94798       -65.61301         6.06739
     2011.95071       -66.16826         5.94453
     2011.95345       -69.73052         6.01350
     2011.95619       -65.90077         5.99087
     2011.95893       -75.62403         5.80659
     2011.96165       -70.03928         5.90035
     2011.96449       -79.23058         6.11588
     2011.96714       -68.58479         5.89280
     2011.96988       -63.12904         5.73761
     2011.97262       -71.45530         5.74085
     2011.97535       -74.44255         5.80659
     2011.97809       -68.37981         5.97040
     2011.98083       -62.33606         5.96070
     2011.98357       -65.27532         5.80120
     2011.98631       -58.89657         5.82167
     2011.98904       -61.38482         5.95100
     2011.99178       -66.35508         5.87125
     2011.99452       -61.53633         5.92621
     2011.99726       -69.06459         5.87017
     2012.00273       -64.12910         5.96932
     2012.00547       -71.73335         5.82060
     2012.00821       -75.58661         5.97471
     2012.01095       -71.85186         6.04799
     2012.01368       -66.60211         5.76132
     2012.01642       -68.91437         5.78611
     2012.01916       -63.85562         5.77318
     2012.02190       -66.87988         5.77641
     2012.02464       -68.94713         5.74085
     2012.02737       -68.66539         5.73007
     2012.03011       -67.64164         5.75917
     2012.03285       -73.63289         5.83892
     2012.03559       -82.87915         5.81198
     2012.03833       -69.19940         5.76995
     2012.04106       -65.32266         5.74085
     2012.04380       -63.73491         5.73869
     2012.04654       -56.49617         5.76779
     2012.04928       -58.26742         5.80551
     2012.05201       -68.00267         5.93591
     2012.05475       -51.07393         5.82599
     2012.05749       -59.86618         5.95315
     2012.06023       -64.67844         5.99518
     2012.06278       -69.78460         6.26245
