# ================= DQRFIT RESULTS ================
# INPUT FILE: series/PSEA.rad
# OUTPUT: LDETRENDED
# FILTER FUNCTION: f(t)
# f(t)=+line(t)+annual(t)
# line(t)=+P 1+P 2*t
# annual(t)=+P 3*sin(2*pi*t+P 4)
# heav(t)=(t<0?0:1)
# TOTAL OBSERVATIONS MTOT= 2154
# INITIAL TIME INTERVAL= 2014.7269 - 2006.6010 =  8.1259
# TOTAL OBSERVATIONS AFTER PREFILTER M= 2154
# TIME-SPAN= 2014.7269 - 2006.6010 =  8.1259
# OBSERVATIONS: USED M=  2154 REJECTED MTOT-M=     0 %USED=  100.0000
# N=  4 PARAMETERS
# MAXSIG= 175.00000
# MAXRES=  25.61327
# SCALE FACTOR FOR LENGTHS: SCL=  10.00000
# SCALE FACTOR FOR SIGMAS: SCLSIG=   1.00000
# CHI^2=   1867.059 DOF=  2150 CHI^2/DOF=   0.86840
# RMS=      5.456 SDEV=      5.458 MEAN=    0.02555
#  P #       PARAMETER +-    SIGMA %error PARAMETER NAME
# P 1 =      5945.45249 +-  112.659   1.89 YZERO                              
# P 2 =        -2.95163 +-    0.056   1.90 SLOPE                              
# P 3 =         6.35540 +-    0.166   2.61 ANNUAL AMPLITUDE                   
# P 4 =        -2.99093 +-    0.037   1.22 ANNUAL PHASE                       
#       T            LDETRENDED       SIG_OBS
     2006.60095         7.11951         5.41422
     2006.60369         9.77959         5.41981
     2006.60643        10.35868         5.40304
     2006.60917        11.73576         5.46734
     2006.61190         4.02784         5.42727
     2006.61464        10.05492         5.38720
     2006.61738        12.02000         5.42447
     2006.62012        13.71208         5.42820
     2006.62286        11.17116         5.39372
     2006.62559         6.80324         5.37601
     2006.75975        12.19722         5.42820
     2006.76249         5.60630         5.53164
     2006.76522         5.74938         5.71056
     2006.76796         2.30246         5.64533
     2006.77070         4.28554         5.47107
     2006.77344         5.70662         5.49436
     2006.77618         7.76071         5.49343
     2006.77891        12.68379         5.46920
     2006.78165        13.03187         5.36390
     2006.78439         8.84995         5.36390
     2006.78713        11.48103         5.48784
     2006.78987        15.17811         5.40211
     2006.79260        13.87519         5.32849
     2006.79534         8.20627         5.40211
     2006.79808         9.32835         5.48784
     2006.80082         8.35944         5.44124
     2006.80355         6.32852         5.33501
     2006.80629         7.90960         5.37974
     2006.80903        10.23068         5.39186
     2006.81177        12.79476         5.45895
     2006.81451         5.98184         5.40677
     2006.81724         8.78392         5.60992
     2006.81998         3.51700         5.32569
     2006.82272         8.13808         5.26139
     2006.82546        15.07617         5.63042
     2006.82820         7.02925         5.32290
     2006.83093        10.41433         5.27630
     2006.83367        13.02241         5.31730
     2006.83641        12.35949         5.42074
     2006.83915        17.47257         5.41515
     2006.84188         7.42665         5.54468
     2006.84462         9.58473         5.54468
     2006.84736         5.21781         5.81213
     2006.85010        18.64890         5.44590
     2006.85284        16.76298         5.57078
     2006.85557        13.64906         5.67887
     2006.85831        16.76614         5.41795
     2006.86105         9.61622         5.55493
     2006.86379         3.74930         5.52791
     2006.86653         4.35138         5.73106
     2006.86926         6.84446         5.37322
     2006.87200         8.61854         5.38347
     2006.87474        11.35163         5.38813
     2006.87748         8.79071         5.28562
     2006.88021         3.58879         5.36017
     2006.88295         2.78987         5.42727
     2006.88569        11.42795         5.47013
     2006.88843        10.93003         5.40304
     2006.89117         6.06811         5.44684
     2006.89390        -7.75581         5.52884
     2006.89664         3.25127         5.55214
     2006.89938         1.16636         5.36949
     2006.90212         1.91844         5.44963
     2006.90485        -0.42848         5.90346
     2006.90759        10.74860         5.31544
     2006.91033         2.65668         5.31544
     2006.91295        -4.95158         5.66583
     2006.91581        -2.38416         5.29214
     2006.91854        -3.92608         5.33594
     2006.92128        -2.63900         5.31544
     2006.92402        -6.08391         5.46734
     2006.92676        -2.41783         5.36576
     2006.92950        -1.13975         5.44311
     2006.93223         5.74533         5.41888
     2006.93497         4.34441         5.55307
     2006.93771         3.23849         5.37695
     2006.94045         6.33557         5.40304
     2006.94318         9.09465         5.45429
     2006.94592         5.71273         5.54096
     2006.94866        15.73982         5.60246
     2006.95140         6.11890         5.47200
     2006.95327        26.51642         9.85835
     2006.95780        -7.26922        10.44078
     2006.95961         2.01914         5.40677
     2006.96235         2.07722         5.42820
     2006.96509         1.65930         5.48411
     2006.96783         1.42638         5.50368
     2006.97056         1.50646         5.55493
     2006.97330        -1.13545         5.44590
     2006.97604        -3.45537         5.64626
     2006.97878        -2.32529         5.55959
     2006.98151         6.68879         5.52605
     2006.98425        -2.35013         5.46081
     2006.98699         2.53995         5.57730
     2006.98973        -8.01697         5.58569
     2006.99794        -2.01472         5.48411
     2007.00342        -4.49356         5.70590
     2007.00616         2.96652         5.58941
     2007.00889         3.71460         5.52139
     2007.01163         0.30968         5.39838
     2007.01437        -7.94924         5.55027
     2007.01711        -8.09416         5.37322
     2007.01984       -10.72708         5.43286
     2007.02258        -3.44499         5.39465
     2007.02504        -1.08275         6.26130
     2007.05544        -9.29802         5.11509
     2007.05817       -12.34894         5.24555
     2007.06091        -7.45386         5.17007
     2007.06365       -12.28478         5.15329
     2007.06639       -10.33370         5.26419
     2007.06913       -14.68361         5.08527
     2007.07186        -9.91253         5.06290
     2007.07460        -8.83045         5.13559
     2007.07734       -15.08537         5.18125
     2007.08008        -8.85029         5.15050
     2007.08282        -6.94021         5.11788
     2007.08555        -8.23713         5.21480
     2007.08829        -9.57105         5.21107
     2007.09103        -2.01597         5.31451
     2007.09377        -6.27688         5.26978
     2007.09650        -6.31280         5.18498
     2007.09924        -9.28972         5.28842
     2007.10198        -6.40164         5.12347
     2007.10472        -7.42956         5.39558
     2007.10746        -2.66148         5.40490
     2007.11019        -7.34040         5.21759
     2007.11293        -4.58132         5.24182
     2007.11567        -6.24824         5.12534
     2007.11841        -5.64015         5.13652
     2007.12115        -6.45507         5.10204
     2007.12388        -4.79599         5.31637
     2007.12662        -1.37891         5.19336
     2007.12936        -6.89183         5.33315
     2007.13210        -1.59175         5.24462
     2007.13466        -5.63417         5.55214
     2007.13757         5.52841         5.30146
     2007.14031        -2.40351         5.16261
     2007.14305         0.03358         5.19616
     2007.14579        -4.26634         5.20641
     2007.14852        -8.09426         5.36390
     2007.15126         1.68782         5.16541
     2007.15400         0.65490         5.18777
     2007.15674         5.41098         5.17193
     2007.15948         2.00306         5.20455
     2007.16221        -1.90086         5.32010
     2007.16495        -0.96078         5.38999
     2007.16769        -4.46869         5.34247
     2007.17043        -5.73661         5.27351
     2007.17316        -1.17553         5.33222
     2007.17590        -5.50945         5.31078
     2007.17864        -7.90337         5.67981
     2007.18138        -3.57329         5.34806
     2007.18412        -2.93021         5.25673
     2007.18685        -1.47113         5.39558
     2007.18959        -2.63105         5.31171
     2007.19233        -9.13796         5.41142
     2007.19507       -10.91888         5.29494
     2007.19780        -7.35380         5.24835
     2007.20054       -10.53072         5.25021
     2007.20328        -5.04364         5.27257
     2007.20602        -3.63156         5.23996
     2007.20876        -5.62048         5.19523
     2007.21149       -12.25540         5.28096
     2007.21423        -0.05032         5.29960
     2007.21697        -5.76523         5.22412
     2007.21971        -5.68215         5.17193
     2007.22245        -7.38007         5.13838
     2007.22518        -2.28499         5.26512
     2007.22792         1.35809         5.20641
     2007.23066        -8.39583         5.21759
     2007.23340        -5.93175         5.23344
     2007.23613        -8.32967         5.26792
     2007.23887       -13.53159         5.20082
     2007.24161       -12.94750         5.26326
     2007.24435        -2.83542         5.26139
     2007.24709        -7.25934         5.24741
     2007.24982        -3.70826         5.15516
     2007.25256       -16.46018         5.20455
     2007.25530       -10.73610         5.19802
     2007.25804        -8.60902         5.28096
     2007.26078        -3.28094         5.37135
     2007.26351        -5.31286         5.19616
     2007.26625         1.14123         5.37601
     2007.26899         0.05031         5.30053
     2007.27173         0.26239         5.33501
     2007.27446         1.25247         5.17380
     2007.27720         2.35855         5.17473
     2007.27994        -4.57637         5.19802
     2007.28268        -3.83529         5.38906
     2007.28542        -2.51421         5.28283
     2007.31553        -2.91031         5.19523
     2007.31827        -4.57923         5.29028
     2007.32101        -2.06515         5.28469
     2007.32375        -5.49707         5.30146
     2007.32648        -2.86399         5.19989
     2007.32922        -5.79491         5.22225
     2007.33196        -6.92883         5.45895
     2007.33470        -0.49575         5.36949
     2007.33744        -6.92467         5.30333
     2007.34017        -5.86458         5.23157
     2007.34297       -11.42733         5.43379
     2007.34565       -10.41142         5.33222
     2007.34844        -7.46717         5.45988
     2007.35112        -3.53226         5.38160
     2007.35386        -5.51518         5.52884
     2007.35660       -12.48010         5.62203
     2007.35934        -1.00102         5.30426
     2007.36208        -8.02293         5.31544
     2007.36481       -11.20685         5.42074
     2007.36755        -1.01977         5.24369
     2007.37029        -5.50469         5.44124
     2007.37303        -0.51861         5.45429
     2007.37577        -2.49953         5.44684
     2007.37850        -6.95245         5.45429
     2007.38124        -3.32737         5.26885
     2007.38398        -0.64729         5.24555
     2007.38672        -3.80620         5.33501
     2007.38945        -9.51412         5.28842
     2007.39219       -15.08504         5.44963
     2007.39493        -1.61496         5.24835
     2007.39767        -5.98488         5.30892
     2007.40041         0.33520         5.28562
     2007.40314        -3.32372         5.26046
     2007.40588        -6.87564         5.18871
     2007.40856        -7.15672         5.44963
     2007.41136        -1.51747         5.24928
     2007.41410        -2.68839         5.27537
     2007.41683         0.83169         5.22878
     2007.41957        -2.59323         5.24741
     2007.42231         0.03085         5.34247
     2007.42505         1.96693         5.36576
     2007.42778         2.00601         5.25021
     2007.43052         2.15909         5.22505
     2007.43326        -2.18383         5.20175
     2007.43600        -5.03374         5.24835
     2007.43874         1.63534         5.26419
     2007.44147        -9.30258         5.38347
     2007.44421        -7.26550         5.46641
     2007.44695        -9.34242         5.35365
     2007.44969        -8.36934         5.23810
     2007.45243        -7.34426         5.25114
     2007.45516        -8.48518         5.20548
     2007.45790        -0.55910         5.28562
     2007.46064        -1.02401         5.20455
     2007.46338        -4.40193         5.26232
     2007.46611        -7.19285         5.23716
     2007.46885        -3.64177         5.30333
     2007.47159        -5.91969         5.22039
     2007.47433        -1.85761         5.24369
     2007.47707        -6.25553         5.43193
     2007.47980        -8.97745         5.15329
     2007.48254       -14.08937         5.29867
     2007.48528        -8.28428         5.33315
     2007.48802        -5.66120         5.36669
     2007.49076         1.60188         5.34433
     2007.49349        -5.81404         5.22132
     2007.49623        -0.89996         5.21666
     2007.49897        -0.69788         5.35365
     2007.50171        -7.23480         5.28562
     2007.50444        -5.63072         5.22691
     2007.50718        -4.65964         5.17380
     2007.50992        -2.74455         5.31358
     2007.51266       -10.10847         5.27817
     2007.51540         5.22261         5.31358
     2007.51813        -5.25931         5.25487
     2007.52087        -1.30323         5.31358
     2007.52350        -4.51249         5.40863
     2007.52635        -0.62207         5.40677
     2007.52908         2.87801         5.45056
     2007.53182         4.35109         5.32849
     2007.53456       -10.95282         5.47386
     2007.53730         5.97826         5.41422
     2007.54004         3.82234         5.37322
     2007.54277        -2.67858         5.25394
     2007.54551         0.01750         5.34060
     2007.54825         2.48158         5.32196
     2007.55099         7.64266         5.33967
     2007.55373         4.09074         5.24462
     2007.55646         1.54782         5.27817
     2007.55920        -0.58909         5.21759
     2007.56194         3.68399         5.22878
     2007.56468         5.11307         5.26232
     2007.56741        -4.86985         5.36204
     2007.57015         0.18323         5.20921
     2007.57289         3.41931         5.22971
     2007.57563         0.90739         5.28283
     2007.57837        -0.01453         5.32103
     2007.58110         5.87455         5.23996
     2007.58384         2.27664         5.19616
     2007.58658        -1.01228         5.32290
     2007.58932         0.54080         5.19430
     2007.59206         2.05288         5.16261
     2007.59479         6.50896         5.43659
     2007.59753        -0.08896         5.50461
     2007.60027         4.94112         5.26046
     2007.60301         3.03320         5.23250
     2007.60468       -15.59887        13.50294
     2007.60848         5.11637         5.29680
     2007.61122         0.48145         5.42074
     2007.61396        -0.41847         5.27723
     2007.61670         4.64861         5.64160
     2007.61943         4.45569         5.71615
     2007.62217        11.19377         5.58941
     2007.62491         6.78885         5.52325
     2007.62765         3.74793         5.57357
     2007.63039         5.85001         5.55493
     2007.63312         5.68710         5.37322
     2007.63586         4.82618         5.33781
     2007.63860         1.90726         5.33315
     2007.64134         4.93834         5.23157
     2007.64407        10.77242         5.52791
     2007.64681         1.96050         5.58475
     2007.64955        10.45258         5.64160
     2007.65229         5.07966         5.49063
     2007.65503         7.09874         5.40583
     2007.65776         6.74983         5.41515
     2007.66050         7.65191         5.50275
     2007.66324        12.61599         5.60432
     2007.66598        13.60807         5.45150
     2007.66872         8.05515         5.51020
     2007.67145         6.73423         5.46175
     2007.67419        14.11131         5.74411
     2007.67693        10.95339         5.58848
     2007.67967        16.36347         5.50554
     2007.68240        10.67556         5.44963
     2007.68514         6.53664         5.46734
     2007.68788        13.58672         5.44311
     2007.69062        14.53380         5.40863
     2007.69336        11.21988         5.43472
     2007.69609        10.92596         5.49250
     2007.69883         2.90504         5.50089
     2007.70157        13.29412         5.32662
     2007.70431        12.65621         5.60153
     2007.70705        14.65729         5.67142
     2007.70978        11.86337         5.59780
     2007.71252         5.54445         5.44031
     2007.71526         9.98853         5.22784
     2007.71800         8.77161         5.33408
     2007.72073        12.45769         5.35644
     2007.72347        15.01277         5.39745
     2007.72621         6.72185         5.28376
     2007.72895         6.34394         5.31358
     2007.73169        10.76202         5.41142
     2007.73442         6.74810         5.33594
     2007.73716        12.80318         5.48318
     2007.73990        14.08026         5.35085
     2007.74264        13.29034         5.31171
     2007.74538        11.87042         5.33594
     2007.74811        11.07550         5.44031
     2007.75085        18.08358         5.60805
     2007.75359        17.40367         5.54189
     2007.75633        10.96075         5.29494
     2007.75906        11.50783         5.28748
     2007.76180        11.65891         5.29308
     2007.76454         2.43099         5.38626
     2007.76728         8.04307         5.69378
     2007.77002         0.42215         5.73572
     2007.77275        12.00223         5.59501
     2007.77549        11.05631         5.26512
     2007.77823         9.46640         5.32569
     2007.78097         9.77348         5.32010
     2007.78371         8.94556         5.28003
     2007.78644        18.18464         5.31824
     2007.78918         4.78172         5.44590
     2007.79192        12.20580         5.45802
     2007.79466        17.06688         5.53816
     2007.79739        19.10496         5.46547
     2007.80013        27.24204         5.45616
     2007.80281        12.86296         5.37042
     2007.80561         7.86721         5.40863
     2007.80835         7.93329         5.37042
     2007.81108        11.23037         5.56239
     2007.81382        16.17045         5.31824
     2007.81656         3.43053         5.49809
     2007.81930         3.65161         5.34992
     2007.82203        -1.89231         5.37322
     2007.82477        10.03877         5.58848
     2007.82751         5.41486         5.40583
     2007.83025         6.41694         5.34713
     2007.83299        11.92002         5.31544
     2007.83572        -0.03790         5.25673
     2007.83846         2.51118         5.28096
     2007.84120         0.21426         5.47852
     2007.84394         2.94134         5.31730
     2007.84668         3.60742         5.33128
     2007.84941         3.62450         5.28562
     2007.85215         7.98859         5.53909
     2007.85489         6.22767         5.74317
     2007.85763        -1.17525         5.62576
     2007.86036         7.51583         5.37415
     2007.86310         4.09391         5.58662
     2007.86584         8.63299         5.30333
     2007.86858         4.27607         5.28096
     2007.87132         4.85015         5.40211
     2007.87405         8.43423         5.36856
     2007.87679         6.58532         5.34713
     2007.87953         8.13040         5.31451
     2007.88227         3.41748         5.23903
     2007.88501         1.78756         5.30519
     2007.88774        -0.67136         5.24275
     2007.89048         0.44772         5.33315
     2007.89322        -2.61220         5.45616
     2007.89596         7.40888         5.41888
     2007.89869         3.15996         5.22319
     2007.90132        -1.17129         5.67142
     2007.90948         4.22878         5.76088
     2007.91238         5.90337         5.31824
     2007.91512         8.71745         5.34247
     2007.91786        12.73753         5.33874
     2007.92060         4.23061         5.52698
     2007.92334         4.61269         5.44311
     2007.92607         0.21378         5.35924
     2007.92881         2.25286         5.31078
     2007.93155         1.13194         5.34153
     2007.93429        -2.50798         5.36949
     2007.93702        -1.77290         5.36483
     2007.93976        -2.26082         6.52036
     2007.94136        10.74990        11.96440
     2007.95442       -21.57055        13.25040
     2007.95619         7.05967         5.50834
     2007.95887        16.60258         5.59407
     2007.96246         7.40119         8.57236
     2007.96440        -4.81009         8.08778
     2007.96714         8.99099         5.74877
     2007.96988        -4.69993         5.48132
     2007.97262        -5.25185         5.70403
     2007.97535        -1.03076         5.47293
     2007.97809        -0.51168         5.56332
     2007.98083        -0.16060         5.36017
     2007.98357         4.59448         5.30799
     2007.98631         7.60656         5.46734
     2007.98904         2.61364         5.59966
     2007.99178         0.52172         5.58009
     2007.99452         1.57280         5.46547
     2007.99726        -3.44612         5.23810
     2008.00000       -15.83303         5.38160
     2008.00273        -9.51395         5.42074
     2008.00547         2.87113         5.28003
     2008.00821         1.17621         5.27910
     2008.01095         5.08829         5.21387
     2008.01368         4.72137         5.27164
     2008.01642         6.01045         5.18777
     2008.01916        -1.90747         5.45243
     2008.02190        -1.54138         5.40117
     2008.02464        -0.12030         5.37881
     2008.02732         0.18761         5.40770
     2008.03011        -6.81214         5.32103
     2008.03291       -11.68789         5.33594
     2008.03559        -9.62398         5.36297
     2008.03833       -14.03890         5.38906
     2008.04106       -10.79882         5.38067
     2008.04380       -15.46874         5.41049
     2008.04654       -11.73765         5.37974
     2008.04928       -13.38357         5.33408
     2008.05201        -8.74749         5.24928
     2008.05475       -12.74241         5.31824
     2008.05749       -11.81233         5.27817
     2008.06023        -6.69425         5.24089
     2008.06297        -1.63917         5.24275
     2008.06570        -5.81109         5.44684
     2008.06844         0.96199         5.28283
     2008.07118        -0.52992         5.31824
     2008.07392         4.83816         5.25021
     2008.07666         2.68124         5.55493
     2008.07939         1.86232         5.51766
     2008.08213        -0.77760         5.33594
     2008.08487        -0.54452         5.32942
     2008.08761        -2.48844         5.21853
     2008.09034        -0.80736         5.23250
     2008.09308        -4.01828         5.45429
     2008.09582        -3.52419         5.48504
     2008.09856        -3.17011         5.80841
     2008.10135        -1.28086         5.55587
     2008.10403        -1.73995         5.41329
     2008.10677         0.04713         5.20921
     2008.10951        -7.31079         5.50554
     2008.11225        -6.00471         5.23437
     2008.11498        -1.77563         5.27164
     2008.11772        -2.39555         5.23996
     2008.12046        -8.08046         5.49529
     2008.12320       -10.77138         5.43193
     2008.12594        -4.45530         5.24648
     2008.12867        -4.36022         5.36763
     2008.13141        -3.00814         5.58009
     2008.13415        -2.93206         5.40304
     2008.13689        -2.08698         5.22225
     2008.13963        -0.54190         5.16541
     2008.14236        -2.81982         5.20548
     2008.14510        -2.97973         5.22412
     2008.14784        -1.19565         5.25953
     2008.15058       -10.22357         5.20921
     2008.15331        -9.17049         5.40397
     2008.15605        -7.36141         5.22971
     2008.15879        -5.68833         5.20268
     2008.16410       -13.00367         6.80552
     2008.16700        -7.91909         6.54552
     2008.16980        -5.90384         5.59687
     2008.17248        -9.73392         5.16261
     2008.17522        -8.73684         5.27537
     2008.17796       -11.02076         5.21573
     2008.18069       -20.43768         5.29680
     2008.18343        -5.74560         5.22225
     2008.18617        -8.47652         5.26885
     2008.18891       -14.27644         5.38720
     2008.19164        -8.02036         5.29680
     2008.19467       -18.80143         5.76740
     2008.19712        -2.46119         5.18125
     2008.19986         2.05289         5.28469
     2008.20260        -3.99803         5.26419
     2008.20533        -4.42495         5.22505
     2008.20807         0.92513         5.50834
     2008.21081        -1.33479         5.36856
     2008.21355        -2.54571         5.31078
     2008.21629         0.87737         5.31637
     2008.21902        -6.39154         5.33781
     2008.22176       -13.21046         5.30053
     2008.22450       -11.26738         5.42261
     2008.22724        -8.87630         5.30519
     2008.22997        -2.77422         5.36483
     2008.23271        -0.04914         5.37695
     2008.23545         2.06194         5.39558
     2008.23819        -0.77998         5.53816
     2008.24093         1.45010         5.24835
     2008.24366        -1.19581         5.32196
     2008.24640        -2.29373         5.23064
     2008.24914        -3.78065         5.54841
     2008.25188        -1.21057         5.46081
     2008.25462        -5.48549         5.16914
     2008.25730         3.54242         5.34060
     2008.26009         5.19167         5.39279
     2008.26283         3.16775         5.21480
     2008.26557         3.69183         5.35924
     2008.26830        -3.27208         5.18964
     2008.27104        -1.10700         5.26978
     2008.27378        -1.55092         5.36669
     2008.27652        -9.05484         5.22598
     2008.27926        -5.85376         5.39186
     2008.28199        -0.78768         5.23903
     2008.28473        -1.42660         5.32476
     2008.28747         6.99448         5.34713
     2008.29021         1.81956         5.30985
     2008.29295         1.38265         5.21200
     2008.29568        -2.23227         5.14770
     2008.29842         0.57581         5.27351
     2008.30116        -2.56011         5.22505
     2008.30390        -6.26503         5.32196
     2008.30663        -0.43595         5.21853
     2008.30937        -2.60287         5.49995
     2008.31211        -3.99379         5.46081
     2008.31485        -4.25871         5.27164
     2008.31759        -7.36762         5.34433
     2008.32032        -5.56554         5.77859
     2008.32306        -8.39046         6.03392
     2008.32580         7.96362         5.40304
     2008.32854         1.90070         5.25766
     2008.33128         0.45878         5.26419
     2008.33401        -4.40114         5.27257
     2008.33675        -2.13406         5.48038
     2008.33949        -4.06997         5.45243
     2008.34223        -5.62489         5.38440
     2008.34491         1.09502         5.32383
     2008.34770        -1.90573         5.15329
     2008.35044        -4.19265         5.12813
     2008.35318        -2.89557         5.15236
     2008.35592         0.54251         5.26792
     2008.35865         6.19759         5.17566
     2008.36139         0.21467         5.12813
     2008.36413        -3.02224         5.13652
     2008.36687        -5.58616         5.16075
     2008.36961       -10.52208         5.64346
     2008.37234        -6.74500         5.25766
     2008.37508        -0.78792         5.16634
     2008.37782        -1.29384         5.21480
     2008.38056        -0.82776         5.37135
     2008.38329         1.71532         5.41795
     2008.38603        -1.89460         5.30053
     2008.38877        -0.87151         5.21666
     2008.39151        -1.75743         5.29308
     2008.39425        -2.05635         5.29680
     2008.39698         1.32473         5.30146
     2008.39972         2.85581         5.17659
     2008.40246        -0.43211         5.17752
     2008.40520        -2.11703         5.14584
     2008.40794        -1.00995         5.10950
     2008.41067        -2.57487         5.19057
     2008.41341        -3.90078         5.32103
     2008.41615        -6.67870         5.19057
     2008.41889        -0.12362         5.11043
     2008.42162        -0.82354         5.29867
     2008.42436        -0.77146         5.11975
     2008.42710        -0.01238         5.19989
     2008.42984        -0.05630         5.23250
     2008.43258         4.94178         5.55400
     2008.43531        -0.14314         5.40863
     2008.43805        -1.33705         5.21573
     2008.44079        -5.02797         5.24369
     2008.44353        -8.00489         5.08527
     2008.44626        -1.08081         5.29028
     2008.44900        -7.87873         5.17566
     2008.45174        -4.39865         5.44124
     2008.45448        -3.77657         5.42354
     2008.45722        -2.35849         5.21666
     2008.45995        -7.08041         5.14304
     2008.46269        -6.82532         5.42354
     2008.46543        -5.48424         5.26605
     2008.46817        -4.35516         5.29028
     2008.47091        -6.07308         5.38067
     2008.47364        -1.65300         5.19709
     2008.47638        -2.86792         5.24741
     2008.47912        -6.59284         5.17659
     2008.48186        -2.52076         5.24089
     2008.48465        -1.05751         5.55959
     2008.48733        -0.95059         5.25580
     2008.49007        -2.93951         5.21107
     2008.49281        -8.28743         5.16354
     2008.49555         1.85165         5.56146
     2008.49828         2.52573         5.34340
     2008.50102         2.64381         5.48691
     2008.50376        -9.59911         5.46734
     2008.50650         1.60297         5.23623
     2008.50924         4.26905         5.21759
     2008.51197         2.94014         5.22039
     2008.51471         1.30522         5.18684
     2008.51745         2.17230         5.26605
     2008.52019         4.78138         5.22225
     2008.52292         0.23046         5.36669
     2008.52566         2.25454         5.32010
     2008.52840         9.13162         5.41329
     2008.53108         6.77554         5.35644
     2008.53388         7.14578         5.21200
     2008.53661         4.89087         5.14211
     2008.53935         0.66095         5.11881
     2008.54209        -2.99597         5.32196
     2008.54483         6.49311         5.41422
     2008.54757         6.93219         5.27164
     2008.55030         5.90327         5.18405
     2008.55304         8.70735         5.27257
     2008.55578         3.10143         5.15609
     2008.55852         7.99551         5.18125
     2008.56125         5.62860         5.14677
     2008.56399         3.33468         5.19243
     2008.56673         5.10076         5.22039
     2008.56947         4.31084         5.15795
     2008.57221        13.77892         5.27723
     2008.57494         8.87500         5.35085
     2008.57768         9.73608         5.26046
     2008.58042         9.18216         5.23530
     2008.58316        13.22324         5.34619
     2008.58590         8.45033         5.14118
     2008.58863         5.71741         5.27723
     2008.59137         5.22749         5.15143
     2008.59411         7.11657         5.14863
     2008.59685         6.75365         5.21946
     2008.59958         8.79073         5.41981
     2008.60232        10.29981         5.44497
     2008.60506         7.61489         5.31544
     2008.60780         4.98897         5.21293
     2008.61054         4.87106         5.19243
     2008.61327         3.19014         5.29867
     2008.61601        10.18122         5.22691
     2008.61875         6.88330         5.20641
     2008.62149         8.77238         5.19709
     2008.62423        12.20446         5.22225
     2008.62696         6.26254         5.44777
     2008.62970        13.28962         5.38254
     2008.63244         6.42670         5.26605
     2008.63518        13.66379         5.66210
     2008.63791        11.30287         5.39745
     2008.64065         7.12995         5.27071
     2008.64339         9.59703         5.24462
     2008.64613        13.58711         5.47572
     2008.64887        16.59219         5.44404
     2008.65160        10.47027         5.23437
     2008.65434         6.89535         5.42727
     2008.65708         9.47543         5.56332
     2008.65982         7.62952         5.46081
     2008.66256        13.64460         5.46361
     2008.66529         9.16768         5.28842
     2008.66803         1.36076         6.54366
     2008.67077         2.06284         5.36576
     2008.67351         3.85092         5.62110
     2008.67624         7.15300         5.71522
     2008.67898        11.69308         5.38626
     2008.68178         1.28033         5.43099
     2008.68446         3.14025         5.29401
     2008.68720         5.41133         5.31451
     2008.68993         7.43241         5.38813
     2008.69267         6.95549         5.27910
     2008.69541         5.61457         5.30146
     2008.69815         6.52765         5.43659
     2008.70089         9.10273         5.32849
     2008.70362         3.67881         5.31265
     2008.70636        18.86690         5.44218
     2008.70910         7.71498         5.35085
     2008.71184         5.54606         5.48691
     2008.71457         4.29714         5.21573
     2008.71731         2.08922         5.33781
     2008.72005         4.29930         5.33035
     2008.72279         7.04838         5.37788
     2008.72543         4.03117         5.55493
     2008.72868         1.47176         6.46352
     2008.73100         9.62163         5.35272
     2008.73374         8.40671         5.34806
     2008.73648         8.49979         5.20362
     2008.73921         4.95887         5.39558
     2008.74469         4.87303         5.21853
     2008.74743         5.93311         5.43193
     2008.75017         9.64919         5.25766
     2008.75290         9.06727         5.41049
     2008.75564        14.97536         5.21573
     2008.75838        11.54144         5.28562
     2008.76112         5.90452         5.23996
     2008.76386         5.49460         5.51766
     2008.76659        13.47068         5.59594
     2008.76933         4.61176         5.26046
     2008.77207         4.81184         5.20082
     2008.77481         3.50292         5.14491
     2008.77754         5.66700         5.14491
     2008.78028         2.80009         5.17193
     2008.78302         3.71617         5.22412
     2008.78576         5.32525         5.39931
     2008.78850         3.20233         5.28842
     2008.79123         4.51141         5.48225
     2008.79397        12.35949         5.37601
     2008.79671         2.65857         5.26698
     2008.79945         3.93665         5.13559
     2008.80219        14.85973         5.36297
     2008.80492         4.57782         5.18032
     2008.80766         5.68590         5.19616
     2008.81040        10.28398         5.44684
     2008.81314         4.76306         5.23437
     2008.81587         7.21414         5.34247
     2008.81856         0.44605         5.32196
     2008.82135        -0.56770         5.21480
     2008.82409         3.32238         5.29214
     2008.82683         6.56146         5.43099
     2008.82956         1.72255         5.24741
     2008.83230         3.42963         5.30239
     2008.83504        12.28471         5.23437
     2008.83778        11.41479         5.33128
     2008.84052        11.30487         5.26139
     2008.84325        18.80695         5.13559
     2008.84599         5.97503         5.15702
     2008.85147         2.46519         5.32849
     2008.85420        10.86628         5.38813
     2008.85774        -3.08929         8.30491
     2008.86248        10.07869         5.45616
     2008.86807         5.31519         5.84102
     2008.87061         1.47871         5.43752
     2008.87337        -5.50016         5.24462
     2008.87616        -1.58991         5.29121
     2008.87847         9.08188         6.03765
     2008.88706        -1.50275         5.35178
     2008.88980        -1.44867         5.25766
     2008.89253        -0.85659         5.26512
     2008.89527         2.14549         5.24928
     2008.89801         8.30757         5.29960
     2008.90075         2.65965         5.26512
     2008.90349        -3.05026         5.13372
     2008.90622         0.59682         5.21014
     2008.90896         1.29590         5.20921
     2008.91170         0.47298         5.25207
     2008.91444         7.14006         5.21480
     2008.91718         1.54814         5.29494
     2008.91991         3.43222         5.23996
     2008.92265        -1.07370         5.25114
     2008.92533         1.56822         5.58755
     2008.92813         1.40547         5.39092
     2008.93086        -5.35545         5.37974
     2008.93360         4.92963         5.39931
     2008.93634        -0.59229         5.25207
     2008.93908        -6.44221         5.25114
     2008.94182        -7.18513         5.41422
     2008.94455        -4.34705         5.33408
     2008.94729        -2.96897         5.36856
     2008.95003         4.37911         5.19150
     2008.95277        -1.90680         5.20548
     2008.95551        -3.92672         5.30985
     2008.95824        -6.34864         5.18684
     2008.96098        -0.43756         5.45522
     2008.96372         3.60652         5.40117
     2008.96646        -0.40540         5.31544
     2008.96919        -8.26832         5.31637
     2008.97193        -4.30424         5.28562
     2008.97467        -7.08316         5.24555
     2008.97741         1.77293         5.20175
     2008.98927       -11.47906         9.21163
     2008.99110         2.07433         5.18498
     2008.99384        -2.77859         5.22971
     2008.99657        -7.38351         5.18498
     2008.99931        -3.88942         5.23157
     2009.00479        -3.72626         5.22412
     2009.00752        -1.12118         5.16914
     2009.01026        -2.90310         5.17286
     2009.01300        -0.19002         5.44684
     2009.01545        -4.63478         6.03672
     2009.01848        -1.60886         5.26605
     2009.02124         2.52929         5.36669
     2009.02389       -15.28986         5.49436
     2009.02709       -20.42244         7.10465
     2009.02943       -14.41753         5.15329
     2009.03833       -13.18225         7.53704
     2009.04038       -10.03021         5.12347
     2009.04312       -14.85813         5.09086
     2009.04585       -16.58005         5.15609
     2009.04859       -17.83796         5.22598
     2009.05133       -10.68188         5.16541
     2009.05407       -11.51980         5.18684
     2009.05681        -3.23472         5.12907
     2009.05954        -5.53364         5.17939
     2009.06228       -12.89556         5.17286
     2009.06502       -12.09148         5.34153
     2009.06776        -4.13240         5.16448
     2009.07049       -11.85432         5.14398
     2009.07323        -9.79123         5.55493
     2009.07597       -12.64215         5.62762
     2009.07871        -5.79807         5.30799
     2009.08145        -7.25799         5.18218
     2009.08418        -6.40191         5.34806
     2009.08692        -9.45383         5.12813
     2009.08966       -16.61075         5.24275
     2009.09240        -7.51867         5.15889
     2009.09514        -4.04459         5.15702
     2009.09787        -3.42950         5.46361
     2009.10061         0.00058         5.13093
     2009.10335        -9.02234         5.14863
     2009.10609        -0.25326         5.12907
     2009.10882        -2.74618         5.32196
     2009.11156        -3.53310         5.17845
     2009.11430        -2.15902         5.37881
     2009.11704        -6.18794         5.24741
     2009.11978        -2.91686         5.19150
     2009.12251        -1.18177         5.14118
     2009.12525        -4.56069         5.26232
     2009.12799        -4.11361         5.14398
     2009.13073        -0.38253         5.12813
     2009.13347        -7.22045         5.13652
     2009.13620        -9.23337         5.13838
     2009.13894        -9.94629         5.15329
     2009.14168        -7.59621         5.16168
     2009.14442        -6.01513         5.26885
     2009.14715        -1.54304         5.27817
     2009.14989        -2.99796         5.36763
     2009.15263        -3.67588         5.18964
     2009.15537        -9.15880         5.35272
     2009.15811        -5.77172         5.28842
     2009.16084        -4.80764         5.17473
     2009.16358        -4.37256         5.21759
     2009.16632         1.82552         5.23437
     2009.16906        -1.65640         5.36669
     2009.17180        -2.11331         5.24089
     2009.17453        -1.21423         5.21759
     2009.17727        -2.00615         5.32290
     2009.18001        -3.20607         5.15795
     2009.18275        -5.98699         5.15050
     2009.18548        -4.69691         5.35178
     2009.18822        -9.05383         5.26326
     2009.19096        -8.64875         5.17193
     2009.19370        -7.39067         5.19430
     2009.19644        -2.82258         5.12068
     2009.19917        -0.98650         5.28003
     2009.20191        -0.27242         5.83077
     2009.20465        -2.88934         5.62389
     2009.20739        -4.77726         5.45895
     2009.21013       -12.81718         5.27817
     2009.21286        -0.10310         5.25207
     2009.21560         4.84098         5.29774
     2009.21834        -5.01694         5.38067
     2009.22108        -3.50085         5.50741
     2009.22381        -4.35477         5.52884
     2009.22655        -2.46269         5.23996
     2009.22929        -0.70261         5.39931
     2009.23203         1.85947         5.96869
     2009.23477        -4.22145         5.39838
     2009.23750        -2.43037         5.28189
     2009.24024        -1.78729         5.26792
     2009.24298         0.57279         5.33222
     2009.24566        -0.53529         6.13084
     2009.24846        -3.86904         5.94446
     2009.25119         2.78004         5.73758
     2009.25393        -1.20388         5.71522
     2009.25667        -4.87580         5.34060
     2009.25941         0.39428         5.63321
     2009.26214        -3.67964         5.27071
     2009.26488        -1.90956         5.25953
     2009.26762         1.31752         5.30985
     2009.27036        -0.38039         5.29214
     2009.27310        -7.32731         5.22971
     2009.27583        -0.11323         5.24555
     2009.27857        -6.57815         5.38999
     2009.28131        -3.59207         5.32010
     2009.28405        -8.70499         5.36949
     2009.28679        -5.88991         5.27630
     2009.28952       -11.66483         5.30705
     2009.29226        -6.04475         5.38347
     2009.29500        -8.81666         5.24835
     2009.29774        -4.61058         5.28003
     2009.30047        -6.49350         5.26419
     2009.30321        -9.25942         5.30239
     2009.30595        -4.12834         5.36390
     2009.30869         2.95974         5.28655
     2009.31143        -3.17418         5.26046
     2009.31416        -3.11810         5.24182
     2009.31690        -8.68401         5.20921
     2009.31964        -8.76193         5.33594
     2009.32238        -7.02685         5.33035
     2009.32512        -8.64377         5.43472
     2009.32785       -12.37369         5.44777
     2009.33059        -7.54161         5.24928
     2009.33333        -4.58953         5.40770
     2009.33607        -4.15045         5.39931
     2009.33880        -3.44737         5.61178
     2009.34154         0.47072         5.79256
     2009.34428        -6.13520         5.41888
     2009.34696        -2.82929         5.29308
     2009.34976        -6.78404         5.28562
     2009.35249       -10.65496         5.14118
     2009.35529       -12.65871         5.60432
     2009.35797         3.28420         5.42261
     2009.36076        -3.72255         5.43565
     2009.36344        -6.76164         5.52605
     2009.36618        -2.04455         5.24462
     2009.36892        -6.13847         5.23530
     2009.37166        -8.06939         5.24275
     2009.37440       -14.66831         5.28469
     2009.37713       -13.18823         5.45802
     2009.37987        -6.86615         5.48411
     2009.38261        -6.67807         5.20734
     2009.38535        -6.32599         5.18405
     2009.38809        -8.31591         5.21573
     2009.39082       -13.70782         5.45336
     2009.39356       -13.46574         5.18218
     2009.39630        -8.09766         5.13466
     2009.39904        -1.92458         5.18871
     2009.40177        -3.00550         5.40956
     2009.40451        -7.94342         5.37695
     2009.40725        -6.04434         5.43193
     2009.40999        -5.37826         5.18125
     2009.41273        -3.84318         5.78697
     2009.41546         0.09291         5.17566
     2009.41820        -5.45601         5.26512
     2009.42094       -11.44393         5.24462
     2009.42368        -1.59585         5.26605
     2009.42642        -5.75877         5.26792
     2009.42915         0.01131         5.24089
     2009.43189        -4.16261         5.21107
     2009.43463        -3.35353         5.27257
     2009.43737        -5.01945         5.23810
     2009.44010        -5.36236         5.16261
     2009.44284        -7.23628         5.19709
     2009.44558        -2.79120         5.15329
     2009.44832        -6.81512         5.25860
     2009.45106        -5.91804         5.28376
     2009.45379        -8.13696         5.17007
     2009.45653        -3.82288         5.18591
     2009.45927        -5.23680         5.15889
     2009.46201        -0.38472         5.22691
     2009.46475         0.15737         5.39465
     2009.46748        -9.74655         5.32196
     2009.47022       -10.63947         5.25114
     2009.47296       -10.56139         5.28283
     2009.47570        -3.62731         5.24275
     2009.47843        -3.74323         5.27910
     2009.48064        -6.44871         6.69555
     2009.48391        -5.16407         5.29494
     2009.48665       -12.61799         5.27817
     2009.48939        -1.53690         5.70776
     2009.49212        -1.87382         5.33408
     2009.49486        -6.24374         5.30519
     2009.49733        -7.45446         6.06560
     2009.50034        -1.99058         5.30146
     2009.50308        -6.41450         5.30146
     2009.50581        -3.13642         5.34619
     2009.50855         2.88466         5.23623
     2009.51123        -6.71642         5.46920
     2009.51403        -0.92917         5.24835
     2009.51676        -0.42609         5.16448
     2009.51956        -2.60184         5.18777
     2009.52224        -5.57893         5.29028
     2009.52498         0.86315         5.46175
     2009.52772        -4.19777         5.34247
     2009.53045        -0.72969         5.25673
     2009.53319        -5.99961         5.19802
     2009.53599        -2.83736         5.61178
     2009.53867        -5.66244         5.27444
     2009.54141         1.58964         5.40583
     2009.54414        -0.20328         5.26512
     2009.54688        -2.23720         5.48132
     2009.54962        -0.20212         5.16914
     2009.55236        -1.10204         5.19616
     2009.55509         5.82204         5.16541
     2009.55783         3.11712         5.21200
     2009.56057         1.58520         5.45802
     2009.56331         0.09229         5.55307
     2009.56605         4.80837         5.41981
     2009.56878         2.07745         5.18871
     2009.57152         4.44853         5.20268
     2009.57426        -2.22739         5.38533
     2009.57700         8.23069         5.35272
     2009.57974         9.88577         5.24741
     2009.58247         8.55385         5.26605
     2009.58521         6.48993         5.30705
     2009.58795         3.19502         5.29867
     2009.59069         5.07410         5.34526
     2009.59342        -0.51582         5.34247
     2009.59616         8.52626         5.27071
     2009.59890         4.85634         5.21387
     2009.60164         5.18642         5.25487
     2009.60438         5.13450         5.16820
     2009.60711         2.90858         5.24835
     2009.60985         6.44066         5.30053
     2009.61259         5.70175         5.29960
     2009.61533         1.21383         5.22412
     2009.61807         6.88691         5.26419
     2009.62080         3.72799         5.19057
     2009.62354         0.25107         5.48318
     2009.62628         0.35315         5.64067
     2009.62902         5.51023         5.65465
     2009.63175         7.38331         5.53071
     2009.63449         1.39139         5.41142
     2009.63723        -4.11252         5.40024
     2009.63997         0.68256         5.49809
     2009.64271        -0.88736         5.67142
     2009.64544         2.25572         5.39745
     2009.64818        -5.76920         5.60805
     2009.65092         2.73088         5.31637
     2009.65366        -0.31304         5.33035
     2009.65639        -9.87296         5.34899
     2009.65913         4.45813         5.41981
     2009.66187         5.93121         5.19523
     2009.66461         7.16129         5.47759
     2009.66735         5.08037         6.02647
     2009.67008         9.37745         5.32196
     2009.67282         0.10953         5.50741
     2009.67556         2.29661         5.26512
     2009.67830         4.75369         5.87923
     2009.68104        14.29877         5.46454
     2009.68377         0.27286         5.28189
     2009.68651         9.50594         5.44870
     2009.68925        14.38302         5.56146
     2009.69199         1.03610         5.28283
     2009.69472         3.83818         5.40117
     2009.69746         8.50726         5.16820
     2009.70020         9.54134         5.29121
     2009.70294         8.73042         5.31358
     2009.70568         4.15650         5.26978
     2009.70841         3.95459         5.22784
     2009.71115         2.00267         5.36576
     2009.71389         4.98175         5.54189
     2009.71663         3.46683         5.60526
     2009.71937         0.35491         5.25207
     2009.72210        -4.82901         5.23157
     2009.72484         2.91107         5.24741
     2009.72758         3.48515         5.37881
     2009.73032         4.14123         5.30519
     2009.73305         3.95732         5.52232
     2009.73579        -4.30060         6.02647
     2009.73853         9.39648         5.39838
     2009.74121        14.26739         5.67142
     2009.74401         8.64864         5.51766
     2009.74652        10.26705         5.70310
     2009.74960         9.44114         7.33296
     2009.75222        -7.02512         5.58196
     2009.75496         6.48696         5.32103
     2009.75770         4.14705         5.23250
     2009.76043         9.10313         5.56612
     2009.76317         4.77521         5.40304
     2009.76591         3.83729         5.19430
     2009.76865         6.02737         5.39651
     2009.77138         2.12045         5.29680
     2009.77412         7.67053         5.45150
     2009.77686         4.24161         5.38720
     2009.77960         4.30169         5.37135
     2009.78234         6.99878         5.60432
     2009.78513        10.60802         5.51580
     2009.78781         9.93694         5.56518
     2009.79055        15.20602         5.86059
     2009.79329        -0.58290         5.92489
     2009.79603         1.85018         5.59035
     2009.79876         5.43126         5.87271
     2009.80144         8.00317         6.14761
     2009.80424         8.55442         5.67142
     2009.80692         5.55734         5.89787
     2009.80971         9.54159         6.06188
     2009.81245        15.94967         5.94726
     2009.81821        -0.35433         6.56323
     2009.82231         6.88477        13.88501
     2009.82500        18.61069        11.90756
     2009.82779        24.57893        11.57115
     2009.83059        25.76019        10.10251
     2009.83366         8.29325         8.08685
     2009.83635        16.03121         9.87699
     2009.83928        12.74887         9.47815
     2009.84191         4.44461         8.92927
     2009.84470        21.10786         8.06262
     2009.84804         0.70572         5.56798
     2009.85352         7.05488         5.62576
     2009.85900        -3.81595         5.71242
     2009.86173         1.64113         5.64067
     2009.86447         1.56121         5.63414
     2009.86721         3.72829         5.75249
     2009.86939         8.09273         7.07576
     2009.87269         8.58845         5.39745
     2009.93681        -8.36827        13.48709
     2009.93839        -8.07760         5.44031
     2009.94113        -1.94152         5.24369
     2009.94387        -3.51044         5.32010
     2009.94661        -0.82836         5.33687
     2009.94935        -1.57228         5.25301
     2009.95208       -10.38520         5.26885
     2009.95482        -8.61911         5.38626
     2009.95756        -2.30903         5.44870
     2009.96030       -10.22295         5.31824
     2009.96303        -9.53587         5.24462
     2009.96577        -8.02479         5.29028
     2009.96851        -5.26571         5.43565
     2009.97125         7.82537         5.41422
     2009.97399        -3.53455         5.35178
     2009.97672       -12.45946         5.20268
     2009.97946       -15.71938         5.18964
     2009.98220       -14.23230         5.30146
     2009.98494        -2.99622         5.21759
     2009.98767        -6.35614         5.24648
     2009.99041        -5.88106         5.24928
     2009.99315        -6.54098         5.24555
     2009.99589        -4.45590         5.31171
     2009.99863       -12.14782         5.36576
     2010.00410       -10.54665         5.24462
     2010.00684       -13.96257         5.23623
     2010.00958        -8.99649         5.31637
     2010.01232       -13.83641         5.27351
     2010.01505        -6.53933         5.27537
     2010.01779        -8.86725         5.26419
     2010.02053        -2.68517         5.38533
     2010.02287       -11.22026         6.70301
     2010.10266         0.31127         5.16727
     2010.10540        -0.06165         5.22971
     2010.10814         2.24643         5.29121
     2010.11088        -0.92349         5.29214
     2010.11362         3.64259         5.25766
     2010.11635         5.24167         5.23064
     2010.11909        -0.50525         5.20082
     2010.12183        -2.05017         5.43752
     2010.12457         1.16892         5.18498
     2010.12731        -2.28200         5.29960
     2010.13004        -7.82592         5.27164
     2010.13278        -6.91484         5.21853
     2010.13552        -8.18776         5.23344
     2010.13826        -5.69468         5.22878
     2010.14099        -4.10360         5.13093
     2010.14373        -2.77152         5.32662
     2010.14647         2.56156         5.36390
     2010.14921         3.16165         5.20082
     2010.15195         2.74473         5.20455
     2010.15468        -1.83319         5.19430
     2010.15742        -3.42511         5.21946
     2010.16016         5.74097         5.19243
     2010.16290        -1.18495         5.20641
     2010.16564         1.00413         5.16075
     2010.16837         4.54021         5.15516
     2010.17111        -0.82671         5.20828
     2010.17385        -3.39662         5.14304
     2010.17659        -2.73954         5.14677
     2010.17932        -0.12246         5.06197
     2010.18206         0.52062         5.16820
     2010.18480         0.41370         5.22598
     2010.18754        -0.05422         5.15236
     2010.19028        -4.24214         5.22505
     2010.19301        -0.36306         5.19896
     2010.19575        -6.15198         5.17659
     2010.19849        -5.47489         5.17752
     2010.20123        -4.38881         5.23437
     2010.20397        -6.01673         5.26512
     2010.20670       -11.42465         5.36856
     2010.20944        -6.67857         5.11788
     2010.21218        -8.15349         5.20082
     2010.21492        -6.46341         5.28655
     2010.21765        -4.22633         5.39186
     2010.22039        -4.94725         5.16914
     2010.22313       -12.53516         5.15423
     2010.22587        -6.56908         5.24369
     2010.22861         0.93100         5.34433
     2010.23134        -1.08292         5.28376
     2010.23408       -10.41684         5.30426
     2010.23956         5.73632         5.42540
     2010.24230         1.68840         5.48784
     2010.24503        -1.70552         5.33874
     2010.24777         1.44657         5.32756
     2010.25051        -4.98435         5.51300
     2010.25325         3.86073         5.33594
     2010.25598         2.29581         5.24835
     2010.25872         5.78989         5.41422
     2010.26146         1.56297         5.40490
     2010.26420        -0.97795         5.42447
     2010.26694         9.35113         5.41142
     2010.26967        -1.34879         5.35831
     2010.27241        -1.34070         5.37042
     2010.27515        -2.48162         5.33035
     2010.27789         1.74246         5.28842
     2010.28062         0.45754         5.26419
     2010.28336        -5.85938         5.32662
     2010.28610        -4.59630         5.42354
     2010.28884        -2.33522         5.19057
     2010.29158         0.35286         5.39279
     2010.29431         6.69294         5.41795
     2010.29705         2.65103         5.26605
     2010.29979         1.40511         5.28935
     2010.30253         2.75719         5.33035
     2010.30527         3.11427         5.34899
     2010.30800         7.77435         5.23437
     2010.31074         1.30343         5.39651
     2010.31348         3.68551         5.25580
     2010.31622         5.96959         5.16541
     2010.31895        11.90168         5.54562
     2010.32169        10.34176         5.31265
     2010.32443         2.32884         5.32662
     2010.32717         0.86892         5.19057
     2010.32991         0.70300         5.24275
     2010.33264         3.05708         5.17939
     2010.33538        -0.06984         5.46547
     2010.33812        -0.30776         5.28748
     2010.34086        -6.91468         5.29028
     2010.34360        -0.57559         5.15050
     2010.34633        -1.93351         5.19989
     2010.34907         2.62857         5.19896
     2010.35181         4.56865         5.21759
     2010.35455        -2.61027         5.26046
     2010.35728         0.87581         5.11975
     2010.36002         2.47289         5.15609
     2010.36276         0.09497         5.19336
     2010.36550         0.47305         5.46081
     2010.36824        -0.29886         5.38533
     2010.37097         5.71222         5.32383
     2010.37371         4.91730         5.21200
     2010.37645         7.37338         5.19150
     2010.37919         4.48546         5.42261
     2010.38193        -3.30346         5.49250
     2010.38466         0.83162         5.39838
     2010.38740         6.86870         5.21200
     2010.39014         0.18378         5.21573
     2010.39288        -6.50713         5.20455
     2010.39561        -9.25005         5.35178
     2010.39835         2.11503         5.16727
     2010.40109         0.25611         5.11975
     2010.40383         2.35319         5.10111
     2010.40657         2.27927         5.10950
     2010.40930        -4.49165         5.30053
     2010.41204        -2.76157         5.19150
     2010.41478         4.85451         5.14398
     2010.41752         3.55160         5.18591
     2010.42026         7.13868         5.17659
     2010.42299         4.00776         5.17845
     2010.42573        -2.62316         5.18405
     2010.42847        -1.04908         5.24648
     2010.43121        -2.79700         5.21387
     2010.43394         0.12208         5.11788
     2010.43668         4.22916         5.37601
     2010.43942         1.54924         5.23064
     2010.44216        -2.03767         5.12068
     2010.44490        -5.65659         5.08993
     2010.44763        -6.58451         5.11695
     2010.45037        -5.89543         5.16820
     2010.45311        -8.65435         5.26605
     2010.45585        -2.47327         5.38720
     2010.45859        -0.81919         5.21480
     2010.46132        -5.66711         5.30146
     2010.46406        -0.57203         5.15702
     2010.46680        -2.74694         5.11695
     2010.46954         0.81614         5.17007
     2010.47227        -7.96578         5.16727
     2010.47501        -2.36470         5.16075
     2010.47775        -5.21462         5.41422
     2010.48049        -1.76054         5.28283
     2010.48323         1.34654         5.16541
     2010.48596        -2.68538         5.18871
     2010.48870         3.13270         5.11043
     2010.49144         3.25479         5.15982
     2010.49418         1.39987         5.09552
     2010.49692        -0.68405         5.13559
     2010.49965        -3.88797         5.17566
     2010.50239        -0.32289         5.12347
     2010.50513        -1.59581         5.10297
     2010.50787         3.23927         5.12161
     2010.51060        -1.19365         5.13466
     2010.51334        -1.46557         5.09365
     2010.51608        -1.88248         5.13186
     2010.51882         2.98760         5.14584
     2010.52156         8.58268         5.15516
     2010.52429         5.56476         5.23530
     2010.52703         1.78784         5.19989
     2010.52977         3.65292         5.12627
     2010.53251        -0.45500         5.16727
     2010.53525         2.50608         5.13745
     2010.53798         1.54616         5.16727
     2010.54072        -3.03275         5.15982
     2010.54346        -1.78067         5.13093
     2010.54620         1.85941         5.07781
     2010.54893        -0.55951         5.07595
     2010.55167         2.31957         5.14957
     2010.55441        -4.29035         5.33781
     2010.55715         4.39773         5.09925
     2010.55989         2.41881         5.09179
     2010.56262        -0.71211         5.12068
     2010.56536        -1.81202         5.13093
     2010.56810         0.44806         5.11881
     2010.57084         1.54414         5.14584
     2010.57357         3.33522         5.23903
     2010.57631         2.00030         5.26419
     2010.57905        -2.30662         5.21573
     2010.58179        -1.96554         5.16820
     2010.58453        -0.15846         5.12534
     2010.58726         1.73862         5.19709
     2010.59000         0.25271         5.27444
     2010.59274        -1.92921         5.20734
     2010.59548         6.90787         5.17939
     2010.59822         7.86595         5.18032
     2010.60095         6.59503         5.14770
     2010.60369         2.76711         5.10111
     2010.60643         3.95019         5.14677
     2010.60917        -0.22473         5.14770
     2010.61190         1.76335         5.15982
     2010.61464        -0.01156         5.23157
     2010.61738         2.22652         5.15329
     2010.62012         4.71960         5.17007
     2010.62286         2.83668         5.17566
     2010.62559         3.79976         5.18405
     2010.62833        -0.30516         5.25673
     2010.63107         3.38792         5.31824
     2010.63381         5.64200         5.16634
     2010.63655         7.62209         5.15423
     2010.63928         3.09417         5.15423
     2010.64202         0.68025         5.21293
     2010.64476        -1.00367         5.29774
     2010.64750         6.06641         5.16075
     2010.65023         3.04149         5.29680
     2010.65297         2.99457         5.34153
     2010.65571         2.38865         5.08154
     2010.65845         3.17873         5.07502
     2010.66119         0.53282         5.19057
     2010.66392         6.27390         5.21293
     2010.66666         6.71998         5.08899
     2010.66940         4.62506         5.15609
     2010.67214         3.17214         5.15329
     2010.67488         5.20622         5.15423
     2010.67761         3.33830         5.06570
     2010.68035         5.97938         5.14211
     2010.68309        11.60846         5.11136
     2010.68583         8.14655         5.17566
     2010.68856         1.91963         5.11695
     2010.69130         1.70971         5.10297
     2010.69404        -0.06121         5.17939
     2010.69678        -6.28013         5.12254
     2010.69952        -1.14605         5.11509
     2010.70214         5.41770         5.30892
     2010.82656       -15.75406        13.53276
     2010.82820         0.37276         5.17659
     2010.83093         4.66084         5.33967
     2010.83367        -1.46607         5.46175
     2010.83641         2.20401         5.28096
     2010.83915        -4.06791         5.10204
     2010.84188        -1.08983         5.12720
     2010.84462         2.74425         5.15050
     2010.84736         3.53733         5.16914
     2010.85010         4.94041         5.17752
     2010.85284         1.39749         5.05079
     2010.85557         1.61457         5.11602
     2010.85831         0.56966         5.11788
     2010.86105        -5.78026         5.06663
     2010.86379        -4.94818         5.07874
     2010.86653        -6.61610         5.11229
     2010.86926        -8.19602         5.16914
     2010.87200         0.55406         5.09179
     2010.87474         3.87114         5.22878
     2010.87748        -1.80278         5.21853
     2010.88021         4.10530         5.09645
     2010.88295        -3.61961         5.23623
     2010.88569        -1.31053         5.04986
     2010.88843        -0.69445         5.27444
     2010.89117         3.29463         5.29028
     2010.89390        -1.15529         4.98183
     2010.89664        -3.59021         4.99860
     2010.89938         0.00687         5.05172
     2010.90212        -4.08405         5.13372
     2010.90485        -2.36697         5.03029
     2010.90759        -1.19188         5.01351
     2010.91033         1.81620         5.00047
     2010.91307        -9.63972         5.04986
     2010.91581         3.52436         5.03215
     2010.91854        -2.31956         4.99487
     2010.92128        -7.61148         4.96133
     2010.92402        -7.72440         4.97624
     2010.92676         0.33368         4.96971
     2010.92950        -2.06724         5.03774
     2010.93223       -10.07515         5.07688
     2010.93497        -1.08907         5.06663
     2010.93771        -1.28399         5.08713
     2010.94045        -6.64991         5.14211
     2010.94318        -2.09983         5.03122
     2010.94592        -7.30275         5.12534
     2010.94866         1.97433         5.09925
     2010.95140         4.93241         5.31171
     2010.95414        -1.02451         5.05451
     2010.95687        -4.02842         5.10111
     2010.95961        -7.99134         5.16541
     2010.96235         5.22174         5.31730
     2010.96509         1.88082         5.08993
     2010.96783        -1.52010         5.06849
     2010.97056        -1.35502         5.07874
     2010.97330        -1.97794         5.06849
     2010.97604        -7.22686         5.06197
     2010.97872        -7.10494         5.27164
     2010.98151        -1.18769         5.08340
     2010.98425        -0.20561         5.05824
     2010.98699        -0.54553         5.00419
     2010.98973         1.43255         5.20268
     2010.99247         5.44463         5.15143
     2010.99520        -3.45429         5.14118
     2010.99794        -7.60121         5.02935
     2011.00342        -4.63404         5.02656
     2011.00616         0.46504         5.00699
     2011.00889        -3.80588         5.13466
     2011.01163        -0.21380         5.07036
     2011.01437         0.02628         5.03867
     2011.01711       -10.48264         5.33687
     2011.01984         0.73344         4.98742
     2011.02258        -4.49548         5.04240
     2011.02532        -5.47540         5.09552
     2011.02806        -9.53631         5.31265
     2011.03080       -11.65023         5.17845
     2011.03353        -9.00215         5.05265
     2011.03627        -2.12007         5.10950
     2011.03901        -6.84599         5.08713
     2011.04175        -0.77891         5.16075
     2011.04449        -6.87083         5.04333
     2011.04722        -9.82075         5.10390
     2011.04996        -5.97167         5.11322
     2011.05270        -7.06858         4.97158
     2011.05544        -2.47150         5.14025
     2011.05817        -0.13742         5.04426
     2011.06091        -2.38734         5.01910
     2011.06365        -3.39326         5.01351
     2011.06639        -2.52618         5.02190
     2011.06913       -11.31810         5.34713
     2011.07186       -11.60502         5.08434
     2011.07460        -8.61894         5.11416
     2011.07734         0.01515         4.99022
     2011.08008        -6.89777         5.01351
     2011.08282       -10.40169         5.05824
     2011.08555       -14.80361         5.05358
     2011.08829       -11.76053         5.11229
     2011.09103       -12.11245         5.06011
     2011.09377        -6.14837         5.07408
     2011.09650        -9.71129         5.07502
     2011.09924        -3.28121         5.06570
     2011.10198        -7.08512         5.10950
     2011.10472        -5.56904         5.05545
     2011.10746        -8.75896         5.04333
     2011.11019        -4.26088         4.99953
     2011.11293        -5.30080         5.08806
     2011.11567        -3.79172         5.18871
     2011.11841       -10.56364         5.14398
     2011.12115        -7.84956         5.15516
     2011.12388        -6.54148         5.18777
     2011.12662         3.57961         5.17380
     2011.12936        -0.37731         5.04986
     2011.13210        -7.84623         5.02004
     2011.13483       -10.49615         4.99767
     2011.13757        -5.43307         5.01631
     2011.14031        -1.25899         4.98462
     2011.14305        -2.25191         5.13000
     2011.14579        -2.32783         5.10763
     2011.14852        -5.87875         5.03401
     2011.15086       -10.16684         6.06001
     2011.15400         0.28942         5.03308
     2011.15674         1.32750         5.06104
     2011.15948         4.24458         5.04892
     2011.16221        -4.09834         5.00419
     2011.16495        -6.00326         5.18498
     2011.16769        -2.51118         5.05358
     2011.17043       -10.95710         5.04426
     2011.17316       -15.15002         5.00326
     2011.17590       -12.48593         5.01444
     2011.17864        -3.15885         5.00885
     2011.18138        -1.48177         5.01444
     2011.18412       -12.20769         5.18311
     2011.18685        -3.68361         5.15982
     2011.18959        -0.54453         5.08154
     2011.19233        -6.05345         5.00513
     2011.19507        -2.86637         5.07036
     2011.19780        -2.03129         5.16261
     2011.20054        -3.27120         5.11788
     2011.20328         2.70188         5.20921
     2011.20602         1.70696         5.14584
     2011.20876        -3.78996         5.07408
     2011.21149        -8.13488         5.13186
     2011.21423        -5.54980         5.06104
     2011.21697        -1.05972         5.18964
     2011.21971         1.96736         5.14957
     2011.22245        -3.38156         5.02283
     2011.22518         0.49253         5.02283
     2011.22792         1.65761         5.09552
     2011.23066         3.36469         5.08806
     2011.23340        -0.60123         5.12907
     2011.23613         1.16785         5.01258
     2011.23887        -6.10607         5.07408
     2011.24161         2.10201         4.99487
     2011.24435        -3.10591         5.10670
     2011.24709        -6.08183         5.13559
     2011.24982        -3.60874         5.05731
     2011.25256        -0.22166         5.10856
     2011.25530         0.53042         5.01631
     2011.25804         2.43850         5.22225
     2011.26078        -3.47942         5.23623
     2011.26351         1.24166         5.05917
     2011.26625        -7.01826         5.04613
     2011.26899        -1.91718         5.06849
     2011.27173        -5.24910         5.20175
     2011.27446         2.50899         5.26978
     2011.27720        -6.03493         5.18684
     2011.27994        -6.06785         5.15982
     2011.28268        -5.02877         5.10670
     2011.28542        -9.79369         5.05638
     2011.28815        -8.71961         5.15609
     2011.29089        -3.14653         5.11322
     2011.29363        -3.82145         5.03960
     2011.29637        -4.73336         5.10018
     2011.29911        -1.27828         5.04054
     2011.30184         0.50580         5.17007
     2011.30458        -3.89212         5.03308
     2011.30732        -1.51804         5.04520
     2011.31006         1.11304         5.06197
     2011.31279         0.94612         5.05265
     2011.31553         2.09820         4.98649
     2011.31827         3.01728         5.04054
     2011.32101        -3.94663         5.04706
     2011.32375       -11.80655         5.05731
     2011.32648        -8.55647         5.07688
     2011.32922        -9.15139         4.98556
     2011.33196       -11.24531         5.06011
     2011.33470       -14.44123         5.12254
     2011.33744       -15.00515         5.14863
     2011.34017        -7.42707         5.29774
     2011.34291        -8.77799         5.16075
     2011.34565         1.04410         5.13093
     2011.34839        -7.42882         5.12347
     2011.35112        -8.81274         5.14118
     2011.35386       -12.16866         5.18964
     2011.35660        -4.89858         5.02749
     2011.35934        -8.35950         5.03215
     2011.36208       -19.07142         5.12907
     2011.36481       -10.66034         5.19802
     2011.36755       -15.76826         5.27257
     2011.37029       -10.75417         5.17380
     2011.37303        -4.34609         5.13186
     2011.37577        -2.66401         5.18871
     2011.37850       -13.91693         5.16820
     2011.38124       -10.36585         5.24835
     2011.38398       -11.98177         5.24369
     2011.38672       -10.41669         5.18871
     2011.38945        -5.77861         5.14957
     2011.39219        -3.42653         5.12441
     2011.39493        -5.54944         5.18405
     2011.39767        -6.77436         5.26326
     2011.40041       -13.62628         5.20548
     2011.40314       -10.79120         5.16820
     2011.40588        -6.08512         5.10670
     2011.40862        -4.58704         5.11509
     2011.41136        -7.31896         5.20548
     2011.41410       -11.36188         5.18405
     2011.41683        -7.60480         5.18218
     2011.41957        -9.24371         5.16168
     2011.42231       -11.04563         5.15329
     2011.42505        -5.43455         5.17659
     2011.42778        -7.57247         5.16727
     2011.43052        -9.89839         5.22691
     2011.43326        -9.42531         5.15050
     2011.43600       -10.80123         5.17566
     2011.43874       -15.01215         5.20362
     2011.44119        -7.48291         5.84475
     2011.44421        -6.74298         5.14398
     2011.44695        -3.27390         5.16541
     2011.44969        -6.45982         5.14304
     2011.45243       -11.88974         5.15423
     2011.45516        -9.77766         5.13466
     2011.45790        -8.24458         5.17845
     2011.46064        -5.45150         5.27537
     2011.46338        -8.49442         5.16448
     2011.46611        -7.41234         5.17473
     2011.46885        -7.10925         5.15050
     2011.47159        -7.43517         5.21200
     2011.47433        -8.75609         5.22132
     2011.47707        -5.17501         5.22319
     2011.47980         1.91107         5.20828
     2011.48254        -4.51985         5.15516
     2011.48528        -6.88677         5.18032
     2011.48802         0.01131         5.23250
     2011.49076        -7.20261         5.21014
     2011.49349         1.56948         5.19802
     2011.49623        -2.93144         5.14025
     2011.49897        -1.48536         5.15982
     2011.50171        -5.35328         5.36949
     2011.50444         1.02280         5.21014
     2011.50718        -1.11812         5.17659
     2011.50992        -1.83704         5.16448
     2011.51266        -2.89296         5.20455
     2011.51540        -5.72088         5.11322
     2011.51813         5.09921         5.18218
     2011.52087         1.45129         5.18591
     2011.52361         2.57737         5.14491
     2011.52635        -2.30755         5.23996
     2011.52908         0.55353         5.30333
     2011.53182        -3.85239         5.11509
     2011.53456        -3.20231         5.24182
     2011.53730        -2.07923         5.21573
     2011.54004         0.56085         5.19709
     2011.54277         1.10694         5.22971
     2011.54551        -0.76298         5.23064
     2011.54825        -1.88390         5.25766
     2011.55099        -1.92782         5.16727
     2011.55373        -4.51074         5.18964
     2011.55646        -3.62166         5.18777
     2011.55920        -3.97658         5.20455
     2011.56194        -2.59850         5.31265
     2011.56468        -0.12942         5.11229
     2011.56741         3.47167         5.12254
     2011.57015        -0.93625         5.21107
     2011.57289        -2.78217         5.14491
     2011.57563         3.22691         5.14677
     2011.57837        -1.39401         5.24835
     2011.58110        -0.15193         5.14025
     2011.58384        -2.14585         5.21759
     2011.58658        -1.20277         5.37601
     2011.58932         1.79531         5.17845
     2011.59206         0.39840         5.17566
     2011.59479         7.47548         5.15050
     2011.59753         1.61756         5.15236
     2011.60027         6.05264         5.10297
     2011.60301         5.91672         5.20455
     2011.60574         6.52580         5.20734
     2011.60848        10.27488         5.44870
     2011.61122         6.50196         5.39745
     2011.61396         8.13405         5.24369
     2011.61670         5.20513         5.32103
     2011.61943        -1.43779         5.30799
     2011.62217         1.13729         5.26232
     2011.62491         0.03737         5.33315
     2011.62765        -0.31655         5.17752
     2011.63039         5.49853         5.21107
     2011.63312         6.67461         5.15889
     2011.63586         7.74569         5.18498
     2011.63860        -8.34322         5.47666
     2011.64134         8.62786         5.49436
     2011.64407         7.60394         5.27444
     2011.64681         6.92902         5.21387
     2011.64955         9.82910         5.36483
     2011.65229         3.53118         5.27817
     2011.65503         1.92526         5.33035
     2011.65776         9.80534         5.34247
     2011.66050         5.12242         5.45802
     2011.66324         9.52751         5.22412
     2011.66598        10.45559         5.40490
     2011.66872         7.23767         5.29121
     2011.67145         9.72075         5.13559
     2011.67419        12.52883         5.13652
     2011.67693        11.09391         5.17845
     2011.67967         4.22899         5.18871
     2011.68240         5.06807         5.25021
     2011.68514         3.89815         5.29308
     2011.68788         5.87024         5.26885
     2011.69062        11.82532         5.30612
     2011.69336         8.06540         5.26046
     2011.69609         3.40948         5.27351
     2011.69883         6.69256         5.34433
     2011.70157         5.74964         5.32569
     2011.70431         9.10772         5.20455
     2011.70705         3.88880         5.40024
     2011.70978        10.67388         5.37601
     2011.71252         9.85197         5.43379
     2011.71526        11.73705         5.39838
     2011.71800        10.58613         5.31265
     2011.72073         7.29421         5.28562
     2011.72347        20.24029         5.59035
     2011.72621         8.71037         5.28562
     2011.72895        12.01345         5.22784
     2011.73157         5.50420         6.00410
     2011.73442         8.88961         5.27817
     2011.73716         6.07970         5.37415
     2011.73939        14.96526         6.35728
     2011.75085        12.62410         5.36949
     2011.75359        11.88918         5.44124
     2011.75633        14.35226         5.34433
     2011.75906        14.25934         5.28469
     2011.76180        12.62343         5.26885
     2011.76454         6.63151         5.22878
     2011.76728         7.87459         5.33035
     2011.77002         9.38267         5.37601
     2011.77275        14.38175         5.43379
     2011.77549         2.93983         5.41422
     2011.77823         3.00991         5.40863
     2011.78097         5.87799         5.29308
     2011.78371         4.57607         5.33501
     2011.78644        11.31616         5.20828
     2011.78918         6.72524         5.19802
     2011.79192         6.35432         5.17566
     2011.79466         5.45340         5.20548
     2011.79739         4.57848         5.25673
     2011.80013        10.48656         5.21014
     2011.80287        11.32864         5.24741
     2011.80561         4.83872         5.28189
     2011.80835        10.46380         5.31171
     2011.81108         1.61489         5.19150
     2011.81382        -0.35803         5.38533
     2011.81656         4.58805         5.22319
     2011.81930         5.98813         5.25860
     2011.82203         4.27921         5.32196
     2011.82477         1.60829         5.18311
     2011.82751        -4.22863         5.59966
     2011.83025         0.62945         5.27351
     2011.83299         1.19653         5.15795
     2011.83572         2.59562         5.23157
     2011.83846        -4.08030         5.22039
     2011.84120         6.55678         5.17566
     2011.84394        15.95786         5.15236
     2011.84668         6.81694         5.18498
     2011.84941         0.41802         5.12813
     2011.85215       -12.48990         5.15609
     2011.85489        -5.53682         5.28935
     2011.85763         1.53426         5.28469
     2011.86036         8.54335         5.29401
     2011.86310         7.23043         5.24648
     2011.86584        11.99851         5.24835
     2011.86858         8.57859         5.14957
     2011.87132         0.12067         5.17752
     2011.87405         0.20475         5.21759
     2011.87679        14.04283         5.27630
     2011.87953         3.00191         5.22039
     2011.88227         5.31299         5.12161
     2011.88501         2.42808         5.15889
     2011.88774         1.81316         5.21759
     2011.89048         7.32424         5.21853
     2011.89322         8.79032         5.31637
     2011.89596        -0.25860         5.14957
     2011.89869         0.23248         5.23810
     2011.90143        -5.06744         5.23903
     2011.90417       -11.23136         5.37695
     2011.90691        -0.09228         5.30799
     2011.90965         0.70781         5.14677
     2011.91238         2.31989         5.35738
     2011.91512        -3.91303         5.18591
     2011.91786         7.06805         5.32849
     2011.92060        -6.14687         5.23810
     2011.92334        -5.59879         5.22505
     2011.92607        -7.20771         5.25114
     2011.92881        -4.62163         5.22878
     2011.93155         2.34645         5.21759
     2011.93429         0.35354         5.24182
     2011.93702         0.92262         5.23530
     2011.93976        -0.78330         5.24928
     2011.94250         2.79878         5.25021
     2011.94524        -0.74714         5.19616
     2011.94798         5.60094         5.29308
     2011.95071         3.88002         5.15143
     2011.95345         8.66210         5.29401
     2011.95619         4.20419         5.30426
     2011.95893        -5.21473         5.12068
     2011.96167        -1.53565         5.42540
     2011.96440         1.03843         5.15609
     2011.96714        -0.98749         5.20082
     2011.96988         2.46759         5.03960
     2011.97262        -6.35133         5.02563
     2011.97535        -7.82325         5.07968
     2011.97809        -5.27917         5.10670
     2011.98083        -2.53508         5.13838
     2011.98357        -0.57000         5.05824
     2011.98631         2.44008         5.16168
     2012.33128        -3.00970         5.30892
     2012.33401        -9.13662         5.18405
     2012.33675        -7.70354         5.16820
     2012.33949       -10.92846         5.08154
     2012.34223       -13.10238         5.05172
     2012.34496       -17.70630         5.05545
     2012.34770       -10.07321         5.11416
     2012.35044       -10.49713         5.11136
     2012.35318        -9.91505         5.10856
     2012.35592        -5.44297         5.04333
     2012.35865        -8.36489         5.08247
     2012.36139        -8.59981         5.03215
     2012.36413        -8.44373         5.06011
     2012.36687        -6.35865         5.04799
     2012.36961        -9.75157         5.02749
     2012.37234        -5.61448         5.11602
     2012.37508        -8.32240         5.11975
     2012.37782        -7.88632         5.24928
     2012.38329        -8.15316         5.20921
     2012.38603        -3.60308         5.22225
     2012.38877        -6.44100         5.26512
     2012.39151        -1.73392         5.13559
     2012.39425        -6.96184         5.14677
     2012.39698        -9.62075         5.13745
     2012.39972        -7.83467         5.06570
     2012.40246        -8.60559         5.07781
     2012.40520        -8.26051         5.09365
     2012.40794       -11.09443         5.09925
     2012.41067        -6.97835         5.11043
     2012.41341        -9.10127         5.08434
     2012.41615        -6.90219         5.23623
     2012.41889         5.23589         5.21387
     2012.42162        -9.12202         5.09645
     2012.42436        -5.52194         5.06197
     2012.42710        -1.35086         5.06383
     2012.42984        -4.24078         5.02563
     2012.43258       -10.04270         5.14770
     2012.43531        -6.91062         5.07315
     2012.43805        -6.61854         5.06290
     2012.44079       -13.87646         5.02842
     2012.44347       -15.97554         5.22878
     2012.44604        -9.08997         5.60339
     2012.44860        -8.77739         6.23987
     2012.45111        -7.17998         7.16802
     2012.45448        -5.70905         5.08154
     2012.45687        -3.04698         6.02833
     2012.45995        -0.96289         5.14770
     2012.46269         4.97119         5.09086
     2012.46543        -5.58573         5.13093
     2012.46817        -1.35365         5.16634
     2012.47091        -3.05856         5.07874
     2012.47364         0.71952         5.07688
     2012.47638         0.29760         5.05265
     2012.47912        -4.07032         5.06849
     2012.48186        -2.71024         5.11509
     2012.48459        -3.91416         5.09831
     2012.48733       -10.33508         5.07129
     2012.49007        -5.78500         5.13279
     2012.49281        -3.54892         5.02842
     2012.49549         1.55800         5.20268
     2012.49811         2.39974         5.40397
     2012.50068         2.56332         5.81120
     2012.50325        -3.08911         6.61635
     2012.50576        -5.30470         7.42149
     2012.50832         2.08688         9.24331
     2012.51197         2.19265         5.21107
     2012.51454        -1.92277         5.37229
     2012.51705         7.42964         6.09170
     2012.52019         0.93790         5.21014
     2012.52292        -6.85102         5.03029
     2012.52566        -5.53694         5.03308
     2012.52840        -2.77986         5.13279
     2012.53114         0.45022         5.27257
     2012.53388        -6.20570         5.17380
     2012.53650         1.29005         5.55680
     2012.53901         5.75845         5.93887
     2012.54158         6.44203         6.56043
     2012.54414         4.87361         7.42708
     2012.54665         0.67001        10.65977
     2012.54928         6.23776        11.14901
     2012.55251         0.03330         6.48961
     2012.55563         7.71552         5.33035
     2012.55812         0.74985         5.93607
     2012.56068         8.76043         6.64244
     2012.56325        11.19501         7.31339
     2012.56582         9.95058         8.87988
     2012.56838       -10.88584        11.87867
     2012.57215         3.62327         5.25114
     2012.57466         6.63968         5.52232
     2012.57723        11.79925         6.29112
     2012.57979        13.33683         6.93784
     2012.58236        -0.52060         7.53425
     2012.58493         1.13398         9.64216
     2012.58755        -6.54327        11.70720
     2012.64887        12.68071         5.04706
     2012.65160         9.49679         5.11788
     2012.65434         6.38687         5.16448
     2012.65708        17.34295         5.30519
     2012.65982         6.90703         5.16448
     2012.66256         9.73511         5.04426
     2012.66529        13.28320         5.05265
     2012.66803        10.06128         5.08899
     2012.67077         9.85336         5.13093
     2012.67351        11.10844         5.04892
     2012.67624         8.43852         5.05451
     2012.67898        14.77960         5.00047
     2012.68172        11.31768         5.06942
     2012.68446         7.05976         5.09272
     2012.68720        10.02784         5.19150
     2012.68993         9.70793         5.12441
     2012.69267        15.92601         5.22505
     2012.69541         9.67309         5.16448
     2012.69815         6.64417         5.18591
     2012.70089         6.79925         5.21480
     2012.70362         3.87133         5.17286
     2012.70636         6.86341         5.06383
     2012.70910         3.70049         5.16075
     2012.71184         8.01457         5.07688
     2012.71457        10.28766         5.07502
     2012.71731        11.47174         5.07222
     2012.72005        12.39482         5.02004
     2012.72279        13.76690         5.00513
     2012.72553        10.30798         5.11602
     2012.72826        11.84706         5.13745
     2012.73100         7.06814         5.21200
     2012.73374         7.26022         5.22132
     2012.73648        10.75930         5.05265
     2012.73921        13.30639         5.14584
     2012.74195         9.18247         5.26792
     2012.74469        10.50755         5.18125
     2012.74743        10.23863         5.10950
     2012.75017         1.83071         5.16541
     2012.75290         5.42479         5.20734
     2012.75564         4.51687         5.08899
     2012.75838         4.62495         5.02190
     2012.76112         8.14603         5.07781
     2012.76386         9.07112         5.06104
     2012.76659        10.33720         5.17286
     2012.76933        13.17828         5.17939
     2012.77207        10.99036         5.10577
     2012.77481         7.93544         5.11602
     2012.77754         8.41152         5.07036
     2012.78028        10.98460         5.24089
     2012.78302         9.64868         5.27630
     2012.78576         8.83676         5.22971
     2012.78850         9.69685         5.40211
     2012.79123        19.39393         5.37322
     2012.79397         8.28301         5.11602
     2012.79671         7.07309         5.17845
     2012.79945         9.29817         5.47200
     2012.80219        14.14625         5.22784
     2012.80492         9.26833         5.21200
     2012.80766         3.90241         5.20734
     2012.81040         5.13249         5.25301
     2012.81314         5.98758         5.19896
     2012.81587        -0.41734         5.18405
     2012.81861        -3.54526         5.26792
     2012.82135         5.42182         5.35644
     2012.82409         4.01790         5.39186
     2012.82683         4.26798         5.22598
     2012.82956         2.82106         5.30239
     2012.83230         0.40614         5.26698
     2012.83504         3.48522         5.27444
     2012.83778         9.19631         5.18405
     2012.84052        14.59739         5.29494
     2012.84325         3.81447         5.25394
     2012.84599        -0.08845         5.47759
     2012.84873        -5.68837         5.50368
     2012.85147         4.28271         5.33222
     2012.85420         5.14379         5.14863
     2012.85694         4.13687         5.13000
     2012.85968         1.64395         5.16914
     2012.86242         0.19904         5.21387
     2012.86516         3.10212         5.38533
     2012.86789         2.32720         5.35644
     2012.87063         0.69928         5.20268
     2012.87337         2.95336         5.18684
     2012.87611         4.44544         5.21387
     2012.87885         6.08252         5.30985
     2012.88158         7.84060         5.15889
     2012.88432         5.35868         5.21107
     2012.88706        -4.36023         5.38999
     2012.88980         6.06785         5.28469
     2012.89253        -0.85207         5.14770
     2012.89527        -5.79799         5.25021
     2012.89801        -1.98591         5.26792
     2012.90075        -4.48483         5.16820
     2012.90349        -2.96875         5.11788
     2012.90622         2.41833         5.16727
     2012.90896         5.96941         5.23623
     2012.91170         7.97050         5.25114
     2012.91444         3.27158         5.15702
     2012.91718         3.01766         5.16448
     2012.91991         0.92374         5.17473
     2012.92265        -2.91218         5.18405
     2012.92539         0.37690         5.33222
     2012.92813         6.26398         5.22598
     2012.93086        -4.09494         5.22319
     2012.93360        -3.03485         5.28842
     2012.93634        -1.81677         5.08993
     2012.96201        17.19299         9.48653
     2012.96372        -0.09396         5.19243
     2012.96646         4.03212         5.05545
     2012.96919        -0.10380         5.23623
     2012.97193         4.50028         5.20175
     2012.97467         2.92436         5.13838
     2012.97689        -4.16507         6.78315
     2012.98015        -3.81848         5.08806
     2012.98288        -1.03339         5.10670
     2012.98562         4.95969         5.07502
     2012.98836         5.09877         5.09272
     2012.99110        -0.32715         5.07688
     2012.99384        -0.34007         5.05824
     2012.99657         0.58301         5.07781
     2012.99931        -0.22291         5.07874
     2013.00205        -1.22083         5.12254
     2013.00479         0.09625         5.09738
     2013.00752        -0.99066         5.08061
     2013.01026        -3.31058         5.15609
     2013.01300         1.37750         5.11602
     2013.01574         3.65958         5.18405
     2013.01848        -0.47634         5.24555
     2013.02121        -4.47626         5.22971
     2013.02395         2.75882         5.19336
     2013.02669         2.92590         5.21480
     2013.02943        -4.06202         5.12441
     2013.03216        -4.60593         5.11229
     2013.03490        -7.56385         5.16727
     2013.03764        -6.16477         5.16541
     2013.04038        -7.68069         5.05731
     2013.04312       -10.72561         5.20175
     2013.04585        -9.48053         5.27817
     2013.04859        -5.94345         5.28003
     2013.05093       -13.12655         6.17463
     2013.05407        -2.97929         5.06663
     2013.05681        -0.40320         5.05917
     2013.05954        -3.07412         5.15236
     2013.06228        -3.85804         5.33594
     2013.06502         2.27304         5.34060
     2013.06776        -1.73488         5.35924
     2013.07049         4.98220         5.17193
     2013.07323        -0.26772         5.12627
     2013.07597         3.48436         5.05358
     2013.07871        -1.83356         5.19430
     2013.08145        -2.68547         5.21946
     2013.08418        -3.39339         5.19896
     2013.08692        -5.51331         5.25301
     2013.08966        -5.56923         5.09365
     2013.09240         1.72085         5.07781
     2013.09514         2.53493         5.22225
     2013.09787         1.15701         5.42820
     2013.10061         2.63609         5.46641
     2013.10335        -1.50983         5.19243
     2013.10609         1.69326         5.07036
     2013.10882        -0.83866         5.17286
     2013.11156        -6.70458         5.23903
     2013.11430        -3.30650         5.12347
     2013.11704       -12.28842         5.20641
     2013.11978        -6.01034         5.32662
     2013.12251        -3.80726         5.10390
     2013.12525       -10.46418         5.10204
     2013.12799         4.31590         5.18871
     2013.13073        -1.60001         5.16820
     2013.13347         1.20707         5.17007
     2013.13620         1.58115         5.08713
     2013.13894        -2.15777         5.15889
     2013.14168         7.89831         5.20641
     2013.14442        -0.03461         5.32942
     2013.14715         5.34547         5.30426
     2013.14989        -4.18745         5.20548
     2013.15263        -6.86337         5.16075
     2013.15537       -15.43128         5.15423
     2013.15811        -7.80220         5.12161
     2013.16084       -10.21812         5.24741
     2013.16358        -8.02804         5.18777
     2013.16632        -3.79996         5.15795
     2013.16906        -3.29688         5.13093
     2013.17180        -6.19080         5.10950
     2013.17402       -10.32323         6.58746
     2014.45585         3.10425         5.13372
     2014.45859        -2.57967         5.17659
     2014.46132        -0.39059         5.22505
     2014.46406         0.81649         5.27910
     2014.46680        -2.24343         5.29121
     2014.46954         0.50365         5.20828
     2014.47227         3.07973         5.18684
     2014.47501         4.68682         5.24369
     2014.47775        -0.91610         5.28376
     2014.48049         6.52498         5.22691
     2014.48323         9.26406         5.21200
     2014.48596         8.58814         5.40490
     2014.48870        15.80822         5.42168
     2014.49144         8.43930         5.09925
     2014.49418         7.28238         5.05824
     2014.49692         4.82246         5.09831
     2014.49965         6.48755         5.15516
     2014.50239         2.48563         5.15143
     2014.50513         5.26371         5.15982
     2014.50787         7.18479         5.17380
     2014.51060         3.44787         5.08899
     2014.51334         9.78895         5.06104
     2014.51608        11.22703         5.16541
     2014.51882         6.58811         5.17845
     2014.52156         9.83119         5.37322
     2014.52429         7.03728         6.36381
     2014.52703        14.48436         5.10297
     2014.52977         4.50044         5.08993
     2014.53251         6.11952         5.29774
     2014.53525         5.24360         5.16448
     2014.53798        15.79368         5.09645
     2014.54072        16.49276         5.25394
     2014.54346        11.52984         5.13652
     2014.54620         9.79592         5.19989
     2014.54893         6.41601         5.25580
     2014.55167         6.41009         5.16820
     2014.55441         7.91017         5.10856
     2014.55715        -4.15275         5.43472
     2014.55989         6.08033         5.13745
     2014.56262         7.34341         5.09086
     2014.56536         2.83749         5.14957
     2014.56810         7.89057         5.12907
     2014.57084         2.35066         5.18032
     2014.57357        -0.25326         5.10950
     2014.57631         4.58182         5.11695
     2014.57905         6.58090         5.13372
     2014.58179        11.92498         5.32849
     2014.58453         3.38206         5.28748
     2014.58726         2.39714         5.47386
     2014.59000         7.16122         5.19430
     2014.59274        15.32030         5.21946
     2014.59548         8.47339         5.22132
     2014.59822        10.70147         5.33408
     2014.60095         9.46355         5.29308
     2014.60369         1.51763         5.27817
     2014.60643         6.96171         5.26512
     2014.60917         9.86979         5.23250
     2014.61190        11.99387         5.45243
     2014.61464         8.58295         5.30146
     2014.61738         6.33303         5.36669
     2014.62012        10.43012         5.32383
     2014.62286         8.64120         5.25766
     2014.62559         7.24928         5.20548
     2014.62833         6.23836         5.22971
     2014.63107         3.78144         5.47479
     2014.63381         7.19752         5.40677
     2014.63655        11.46460         5.21387
     2014.63928         5.41468         5.18777
     2014.64202         6.54376         5.16541
     2014.64476         1.43385         5.26139
     2014.64750        12.57093         5.22412
     2014.65023         8.52301         5.12627
     2014.65297        13.63509         5.20268
     2014.65571        13.96917         5.17100
     2014.65845        11.71825         5.33128
     2014.66119         9.27533         5.28842
     2014.66392        15.76941         5.24928
     2014.66666        15.47349         5.13093
     2014.66940         9.93458         5.18498
     2014.67214        -1.37434         5.38440
     2014.67488         7.99674         5.18498
     2014.67761         7.09882         5.16261
     2014.68035         7.80090         5.11229
     2014.68309         7.98398         5.10297
     2014.68583         8.80606         5.24182
     2014.68856         5.16914         5.21014
     2014.69130         9.88222         5.14118
     2014.69404         3.63431         5.08806
     2014.69678         3.12839         5.13932
     2014.69952         9.35847         5.16354
     2014.70225        10.65955         5.17380
     2014.70499         7.94463         5.13559
     2014.70773        11.03371         5.13279
     2014.71047        10.90379         5.16914
     2014.71321        15.00887         5.13372
     2014.71594         5.87895         5.26885
     2014.71868        10.93904         5.14398
     2014.72142        12.14012         5.12534
     2014.72416        12.80720         5.09179
     2014.72689        11.38828         5.27351
