# ================= DQRFIT RESULTS ================
# INPUT FILE: series/RDL2.rad
# OUTPUT: LDETRENDED
# FILTER FUNCTION: f(t)
# f(t)=+line(t)+annual(t)
# line(t)=+P 1+P 2*t
# annual(t)=+P 3*sin(2*pi*t+P 4)
# heav(t)=(t<0?0:1)
# TOTAL OBSERVATIONS MTOT= 1100
# INITIAL TIME INTERVAL= 2022.7488 - 2019.6659 =  3.0829
# TOTAL OBSERVATIONS AFTER PREFILTER M= 1092
# TIME-SPAN= 2022.7488 - 2019.6659 =  3.0829
# OBSERVATIONS: USED M=  1092 REJECTED MTOT-M=     8 %USED=   99.2727
# N=  4 PARAMETERS
# MAXSIG= 175.00000
# MAXRES=  50.95723
# SCALE FACTOR FOR LENGTHS: SCL=  10.00000
# SCALE FACTOR FOR SIGMAS: SCLSIG=   1.00000
# CHI^2=    942.066 DOF=  1088 CHI^2/DOF=   0.86587
# RMS=     10.153 SDEV=     10.141 MEAN=   -0.58135
#  P #       PARAMETER +-    SIGMA %error PARAMETER NAME
# P 1 =     -2382.44899 +-  530.720  22.28 YZERO                              
# P 2 =         1.18710 +-    0.263  22.11 SLOPE                              
# P 3 =         5.13190 +-    0.316   6.15 ANNUAL AMPLITUDE                   
# P 4 =         2.58480 +-    0.072   2.77 ANNUAL PHASE                       
#       T            LDETRENDED       SIG_OBS
     2019.66586         4.16598         5.23790
     2019.66820         4.74720         6.31079
     2019.67077         5.13415         7.04777
     2019.67368         5.62470         6.30149
     2019.67613         8.60579         7.54373
     2019.67835        28.15015        84.02977
     2019.68235         0.04441         6.05955
     2019.68440         0.79597         7.48883
     2019.68708         4.81979         8.08995
     2019.69039         3.04986        11.02481
     2019.69336         4.91034         4.99131
     2019.69604         5.29416         5.18952
     2019.69883         1.86284         5.02388
     2019.70157         4.77059         4.97550
     2019.70431        12.28434         5.04808
     2019.70705         7.70509         5.28257
     2019.70978         8.88084         5.05831
     2019.71252         3.61759         5.04342
     2019.71526        11.65734         4.99225
     2019.71794         4.74116         5.94603
     2019.72073         5.94084         5.19882
     2019.72347        12.86359         5.16067
     2019.72541         6.43529         7.91408
     2019.75182        12.25394        18.02233
     2019.75359        11.79384         9.66346
     2019.75633        12.13259         9.16005
     2019.75906        -6.79466         9.07537
     2019.76180         7.27809         9.35081
     2019.76454         4.41984         9.71092
     2019.76728        13.38059         9.95192
     2019.77002         9.17534         9.62996
     2019.77275         5.48609         9.52761
     2019.77549         0.50384         9.66532
     2019.77823        10.77359         9.85050
     2019.78097        18.47734         9.64671
     2019.78371         9.51209         9.62531
     2019.78644         7.63584         9.70068
     2019.78918        26.41959        10.09243
     2019.79192       -17.05066         9.72488
     2019.79466         7.75109        10.26551
     2019.79739        -2.02516         9.91563
     2019.80013        17.64859         9.78722
     2019.80287         9.18134         9.51458
     2019.80561        -4.47291         9.70813
     2019.80835         5.83384         9.66439
     2019.81108        -0.07041         9.71836
     2019.81382        15.47334         9.37314
     2019.81656        10.55409         9.79094
     2019.81930        -7.70616         9.52667
     2019.82203        -0.97041         9.66160
     2019.82477         2.93834         9.87562
     2019.82751         6.36709         9.53040
     2019.83025         2.70784         9.56855
     2019.83299         3.58859         9.60112
     2019.83572         8.72234         9.65136
     2019.83846        14.20909         9.44107
     2019.84120        -1.20116         9.90633
     2019.84394         0.88759         9.49225
     2019.84668        -5.74366         9.51365
     2019.84941        -0.17591         9.44758
     2019.85215         3.30884         9.49411
     2019.85489         0.05559         9.77792
     2019.85763         7.02234         9.46991
     2019.86036         0.92209         9.62066
     2019.86310         4.54484         9.53040
     2019.86584         3.36459         9.51644
     2019.86858        20.85034         9.58995
     2019.87132         7.58309         9.86631
     2019.87405        13.42884         9.36569
     2019.87679        -1.13241        10.53722
     2019.87953        20.47334         9.94634
     2019.88227        16.95809         9.69324
     2019.88501        13.21084         9.38989
     2019.88774         6.09359        10.54839
     2019.89048        16.55133         9.41315
     2019.89322         4.43508         9.69975
     2019.89596        -2.69417         9.79653
     2019.89869       -12.33642        10.09243
     2019.90143         4.40733         9.72115
     2019.90417         1.59708         9.64020
     2019.90691        16.77583         9.42897
     2019.90965         6.81958         9.41594
     2019.91238         0.25933         9.43083
     2019.91512        20.37208         9.97798
     2019.91786        10.80783         9.46340
     2019.92060        15.01458         9.55552
     2019.92334         9.85933         9.59367
     2019.92607         5.59508         9.49038
     2019.92881         3.15183         9.90819
     2019.93155         2.04458         9.70068
     2019.93429         9.67033         9.69975
     2019.93702         4.93008         9.55273
     2019.93976         8.80683         9.81700
     2019.94250        -3.68742         9.70999
     2019.94524         3.62433        10.39857
     2019.94798         0.99908         9.72395
     2019.95071         0.50783         9.61321
     2019.95345         2.84558         9.54994
     2019.95619         6.41633         9.75744
     2019.95893        -1.46592         9.67370
     2019.96167         6.78683         9.64671
     2019.96440        -1.05842        10.64702
     2019.96714         8.26033        10.77450
     2019.96988         2.06708         9.66997
     2019.97262        -3.02917         9.68021
     2019.97535        -4.00542         9.37221
     2019.97809        -4.97967         9.63648
     2019.98083        -5.15392         9.61880
     2019.98357         0.86083         9.53691
     2019.98631       -13.16442         9.52667
     2019.98904        -5.31867         9.47270
     2019.99178        -2.96892         9.53505
     2019.99452       -13.53817         9.68393
     2019.99726        -1.09142         9.83282
     2020.00000         9.09233         9.95937
     2020.00273        -5.67692         9.53970
     2020.00547       -13.44617         9.60205
     2020.00821       -10.82942         9.94076
     2020.01095        -9.03267         9.19448
     2020.01368       -18.66692         9.73976
     2020.01642       -10.22817         9.65881
     2020.01916        -7.76842         9.59460
     2020.02190       -11.83567         9.65509
     2020.02464        -9.12692         9.50713
     2020.02737       -20.95617         9.77605
     2020.03011         2.17358         9.59926
     2020.03285        -6.19367         9.56762
     2020.03559        -9.28092         9.56948
     2020.03833       -10.86317         9.86725
     2020.04106         3.39058        11.40633
     2020.04380        -7.74967        10.43207
     2020.04654        -1.73292         9.51179
     2020.04928        -7.95717         9.43548
     2020.05201        -5.56742         9.47829
     2020.05475         0.02033         9.56203
     2020.05749        -4.22492         9.48480
     2020.06023         5.87083         9.50993
     2020.06297         0.61158         9.38524
     2020.06570        -7.73767        10.09615
     2020.06844        -8.87592         9.41687
     2020.07118        -2.17817         9.58064
     2020.07392        -1.75242         9.95658
     2020.07666        -8.77067         9.32475
     2020.07939        -6.15392         9.59181
     2020.08213        -4.71917         9.50341
     2020.08487         9.75658         9.61507
     2020.08761       -11.14767         9.66997
     2020.09034         1.13108         9.41687
     2020.09308         8.12883         9.63927
     2020.09582         4.31258         9.63741
     2020.09856        -8.73467         9.65695
     2020.10130        -4.12092         9.59646
     2020.10403       -11.43917         9.65229
     2020.10677        -1.22442         9.44293
     2020.10951         3.26633         9.60112
     2020.11225         0.11708         9.64299
     2020.11498        -3.89817         9.51179
     2020.11772        -8.73342         9.63368
     2020.12046        -1.87667         9.49969
     2020.12320        -7.16692         9.48294
     2020.12594        -3.42717         9.75558
     2020.12867       -11.43342         9.52202
     2020.13141        -9.80867         9.58716
     2020.13415        -4.70992         9.50341
     2020.13689        -1.26917        10.28505
     2020.13963        -2.81642        10.36600
     2020.14236        -7.46367         9.70440
     2020.14510        -5.55592         9.61321
     2020.14784        -5.75717         9.51923
     2020.15058        -8.50042         9.41594
     2020.15331        -9.09167         9.46340
     2020.15605       -14.04992         9.46154
     2020.15879        -8.18017         9.52574
     2020.16153        -6.86042         9.85980
     2020.16427        -4.71467         9.44200
     2020.16700        -1.57092         9.70068
     2020.16974        -2.78417         9.48759
     2020.17248        -0.77642         9.69324
     2020.17522        -8.15567         9.54528
     2020.17796        -6.60892         9.50341
     2020.18069        -2.43217         9.41222
     2020.18343         1.15658         9.33964
     2020.18617       -11.67067         9.41222
     2020.18891         0.69407        10.68796
     2020.19164        -8.71918        10.68331
     2020.19438       -10.34443        10.74007
     2020.19712         0.35432        10.70471
     2020.19986        11.92307        10.78846
     2020.20260        -6.59418        10.66284
     2020.20533        -6.72143        10.88989
     2020.20807        -1.87168        10.71867
     2020.21081        -0.05193        10.77264
     2020.21355        -6.36718        10.62934
     2020.21629        -7.70643        10.71309
     2020.21902        -9.24768        10.73728
     2020.22176        -3.55893        10.89547
     2020.22450        -1.10718        10.74752
     2020.22724         4.24557        10.80986
     2020.22997         0.18232        10.49535
     2020.23271         2.36507        10.55118
     2020.23545         3.69182        10.62283
     2020.23819       -11.12743        10.50186
     2020.24093         2.08232        10.57816
     2020.24366         9.89607        10.95316
     2020.24640        -3.48118        10.51675
     2020.24914        -0.17643        10.69913
     2020.25188        -3.90068        10.92711
     2020.25462        -3.00493        10.72426
     2020.25735         0.36982        10.72519
     2020.26009         4.62957        10.67028
     2020.26283         1.95732        10.89361
     2020.26557        -5.96093        10.76799
     2020.26830       -10.71018        10.80428
     2020.27104        -2.18143        10.66656
     2020.27378        19.93932        10.89733
     2020.27652       -12.52193        10.88989
     2020.27926        -3.50718        10.86197
     2020.28199        -5.44743        10.76241
     2020.28473         1.51332        10.87686
     2020.28747        -0.98993        10.77171
     2020.29021         2.62082        10.82196
     2020.29295        -7.97943        10.93455
     2020.29568         3.22932        11.03412
     2020.29842        -1.47493        10.72612
     2020.30116        -0.80718        10.53071
     2020.30390       -10.82143        10.73821
     2020.30663        -1.42068        10.59398
     2020.30937        -4.87593        11.02388
     2020.31211        -2.98718        10.70378
     2020.31485         0.99457        11.09367
     2020.31759       -18.88568        10.93269
     2020.32032         0.54107        11.14857
     2020.32306        -4.95118        10.71495
     2020.32580        -7.27543        10.68983
     2020.32854        -1.40168        10.82568
     2020.33128        -7.49293        10.93548
     2020.33401         2.99382        11.03319
     2020.33675        -5.07643        10.70471
     2020.33949        -2.93068        10.42742
     2020.34223         7.10907        11.08809
     2020.34496         4.89682        11.45564
     2020.34770        -5.71543        10.56514
     2020.35044        -8.90968        11.59894
     2020.35318        -5.39693        10.62655
     2020.35592        10.65682        10.63120
     2020.35865       -11.13643        11.37748
     2020.36139         8.91032        10.85081
     2020.36413         9.07307        10.84429
     2020.36687        -7.68318        10.94386
     2020.36961        -2.84343        10.88989
     2020.37234         4.66632        11.06855
     2020.37508         0.88507        11.20161
     2020.37782         1.64782        10.98852
     2020.38056        -6.37743        10.89640
     2020.38329        -2.45268        10.81079
     2020.38603       -13.42293        11.22115
     2020.38877         4.40182        12.41315
     2020.39151         0.11557        11.01272
     2020.39425        -3.58868        11.07320
     2020.39698        -3.54593        10.95316
     2020.39972        -9.31818        11.04715
     2020.40246       -15.51643        11.08623
     2020.40520        -6.92568        11.67153
     2020.40794        12.06107        11.27326
     2020.41067         2.58182        11.34398
     2020.41341       -12.32643        11.05552
     2020.41615        -4.71968        11.47053
     2020.41889        -7.77293        11.39237
     2020.42162        -2.66118        11.55893
     2020.42436         0.06557        11.50124
     2020.42710         0.36432        11.30955
     2020.42984         5.06807        11.38586
     2020.43258       -28.33318        11.27326
     2020.43531       -25.73743        11.54404
     2020.43805       -20.86768        11.71991
     2020.44079       -35.04593        11.87624
     2020.44353        -0.59118        11.85391
     2020.44626       -12.56843        11.70595
     2020.44900       -26.99468        12.00000
     2020.45174       -10.25493        11.62686
     2020.45448       -29.36818        12.12283
     2020.45722        -2.76443        11.99535
     2020.45995        -3.57668        11.39609
     2020.46269        -0.12993        11.55893
     2020.46543        -3.27618        11.65664
     2020.46817         3.83257        11.88275
     2020.47091        -7.00968        11.42308
     2020.47364        -0.91193        11.65292
     2020.47638       -15.15818        11.61011
     2020.47912         7.44157        11.70409
     2020.48186        -4.80368        11.67711
     2020.48459         2.07707        11.50403
     2020.48733        -2.01819        12.03071
     2020.49007        14.45056        11.12345
     2020.49281        -5.17669        11.19510
     2020.49555       -12.73194        11.01644
     2020.49828         5.08881        11.10019
     2020.50102         3.80656        11.34677
     2020.50376         1.57531        11.02947
     2020.50650        -1.50194        11.10205
     2020.50924       -10.39319        10.79497
     2020.51197        -0.92244        10.65447
     2020.51471         0.05031        10.69634
     2020.51745         3.13506        10.80056
     2020.52019         4.60181        10.87035
     2020.52292        -1.66444        12.49597
     2020.52566        -3.60669        12.62345
     2020.52840        11.69406        12.83933
     2020.53114         7.35481        12.47643
     2020.53388        16.95456        12.89981
     2020.53661        -5.15969        12.72115
     2020.53935         8.30006        12.53877
     2020.54209        12.14781        12.54808
     2020.54483        -8.07744        12.36104
     2020.54757         7.32431        12.51551
     2020.55030       -20.92594        12.78071
     2020.55304        -1.83519        11.99162
     2020.55578        13.24556        12.65695
     2020.55852        -2.68769        12.48480
     2020.56125         7.64806        12.87097
     2020.56399        18.47281        12.29684
     2020.56673        16.84156        12.21030
     2020.56947         4.81731        11.99907
     2020.57221         3.75106        12.18796
     2020.57494         1.05881        12.43734
     2020.57768         9.23856        11.88461
     2020.58042        15.62531        12.26985
     2020.58316        11.72906        11.85484
     2020.58590         6.74881        11.99069
     2020.58863        32.41456        12.52481
     2020.59137         1.75431        11.94975
     2020.59411         2.38706        11.90602
     2020.59685        11.63881        12.93424
     2020.59958         0.60056        12.20471
     2020.60232        17.25031        11.96650
     2020.60506         2.33006        12.20471
     2020.60780         6.29081        11.91067
     2020.61054         7.69356        12.09770
     2020.61327         8.71431        12.15912
     2020.61601         6.44106        11.90695
     2020.61875        12.02081        12.23170
     2020.62109       -17.72997        18.66718
     2020.62696         9.06706        12.12097
     2020.62970        15.99581        12.54622
     2020.63244        20.12056        12.46433
     2020.63518        17.11931        12.27729
     2020.63791        36.16806        14.29094
     2020.64065        -4.65919        12.50899
     2020.64339         8.89456        11.72736
     2020.64613        19.57631        12.17122
     2020.64887        -5.44494        13.58654
     2020.65160       -20.66619        12.40850
     2020.65434         5.43256        12.47457
     2020.65708        -0.86269        12.05118
     2020.65982        13.43706        12.43827
     2020.66256        11.71781        12.34894
     2020.66529        41.77356        12.72860
     2020.66803        15.48031        12.25031
     2020.67078        11.33104        12.86631
     2020.67351        11.85981        12.55459
     2020.67624         1.52456        12.17401
     2020.67898         6.81531        12.87190
     2020.68172        -0.28894        12.17401
     2020.68446        31.58481        13.25993
     2020.68720        -9.77544        12.65509
     2020.68993        -0.96869        12.11818
     2020.69267        -2.50194        12.31917
     2020.69541        -0.27219        12.35918
     2020.69815        11.01056        12.32754
     2020.70089        -7.92769        12.67370
     2020.70362       -18.22694        12.95471
     2020.70636       -11.61819        13.22363
     2020.70910        -2.87244        12.42525
     2020.71184         2.51131        12.75465
     2020.71457        -1.41394        13.28226
     2020.71731         1.72781        12.52202
     2020.72005       -16.29344        12.41408
     2020.72279        -6.94369        13.17246
     2020.72553        -0.85694        14.05273
     2020.72826        -7.06819        13.92059
     2020.73100       -19.92644        14.28629
     2020.73374       -16.06169        12.84119
     2020.73648        -4.83894        12.92680
     2020.73921        10.93781        12.87469
     2020.74195         7.44856        21.32754
     2020.74469         5.52631        12.72115
     2020.74743         4.07606        12.72394
     2020.75017         6.56681        12.68486
     2020.75290         2.02556        13.08871
     2020.75564        -0.05569        12.74628
     2020.75838        -0.78494        13.55490
     2020.76112         2.55781        12.85887
     2020.76386         2.28556        12.82723
     2020.76659        14.16331        12.78257
     2020.76933        16.40706        15.71743
     2020.77207         6.76381        13.23480
     2020.77481        21.63656        14.38213
     2020.77754         0.58131        13.14826
     2020.78028        29.43106        13.35391
     2020.78302        -6.07819        13.45906
     2020.78576         5.57356        12.93796
     2020.78850        -7.61270        12.85515
     2020.79123        -2.30995        12.94541
     2020.79397        -4.06020        13.03288
     2020.79671         0.00155        12.86911
     2020.79945        -3.59070        12.57785
     2020.80219         6.33005        12.73325
     2020.80492         1.57680        12.63555
     2020.80766         2.93055        13.64795
     2020.81040       -15.77470        13.52978
     2020.81314        10.27505        13.11011
     2020.81587         7.84580        12.81234
     2020.81861        10.36355        12.52760
     2020.82135         9.75330        12.76024
     2020.82409        10.20905        12.89330
     2020.82683        -9.52720        12.88679
     2020.82956        19.49955        13.60701
     2020.83230         4.10330        12.64113
     2020.83504        -0.24795        12.48294
     2020.83778        -4.38220        12.56948
     2020.84052        15.58155        13.27854
     2020.84325        -4.80970        12.76954
     2020.84599         7.64605        13.01427
     2020.84873        10.04880        12.86445
     2020.85147         8.50955        12.61600
     2020.85694        13.94105        12.64671
     2020.85968         2.15080        13.45068
     2020.86242        -6.14745        13.61445
     2020.86516        10.55630        13.82196
     2020.86789        -7.22895        14.42680
     2020.87063         9.43380        13.97084
     2020.87337         1.95455        13.66191
     2020.87611        14.21430        14.10391
     2020.87885        19.08505        14.31514
     2020.88158       -24.42520        15.91935
     2020.88432        -3.96345        13.91408
     2020.88706        -7.13070        13.52233
     2020.88980         4.43105        13.53722
     2020.89253       -20.44520        13.78009
     2020.89527        -0.52145        13.62283
     2020.89801         0.56030        13.62841
     2020.90075        -7.91195        13.90105
     2020.90349         0.55980        13.47022
     2020.90622       -15.86845        13.54466
     2020.90896        -3.98470        13.88244
     2020.91170       -34.15995        14.58406
     2020.91444       -21.26820        13.75124
     2020.91718       -11.14345        13.88337
     2020.91991         0.54530        13.79777
     2020.92265       -39.38095        14.73201
     2020.92539       -15.72720        13.35484
     2020.92813       -18.21045        13.49162
     2020.93086         8.92630        14.01365
     2020.94729       -20.29020        14.61849
     2020.95003       -15.27645        14.80273
     2020.95277       -16.86570        13.37066
     2020.95551        -4.21195        13.50186
     2020.95824        -0.32920        14.24814
     2020.96098       -25.39945        14.19603
     2020.96372       -31.24970        30.18610
     2020.96646         1.32305        14.56265
     2020.96919        -7.12120        13.53536
     2020.97193       -12.88645        13.59026
     2020.97467       -17.15070        13.83871
     2020.97741       -17.21795        14.10391
     2020.98015        -5.27020        13.89175
     2020.98288        -7.00845        14.38772
     2020.98562        -2.40070        14.27326
     2020.98836       -10.83095        14.13834
     2020.99110         4.79380        14.15416
     2020.99384        -7.95145        14.23976
     2020.99657        27.35230        14.97674
     2020.99931        -9.06595        13.94572
     2021.00205       -13.79620        14.11880
     2021.00479        -1.11645        13.93827
     2021.00752        12.13530        14.06110
     2021.01026        31.95505        14.77947
     2021.01300        -0.64220        13.83871
     2021.01574       -18.30145        14.19324
     2021.01848         3.22930        14.41284
     2021.02121       -20.76195        14.53288
     2021.02395        16.68780        13.77823
     2021.02669        -8.95745        13.72798
     2021.02943         9.79330        13.84708
     2021.03216         8.14205        13.85453
     2021.03450        21.55427        16.51768
     2021.04038        -7.06470        14.11414
     2021.04312        11.57005        13.54560
     2021.04585        52.31780        14.28722
     2021.04859        -6.97045        13.79684
     2021.05133        -4.59770        13.66098
     2021.05407         3.49105        13.54932
     2021.05681         6.68580        13.42091
     2021.05954         1.34055        13.52140
     2021.06776        14.94680        13.52885
     2021.07049         5.12755        13.49721
     2021.07323        21.30230        13.46557
     2021.07597        -0.72895        14.36073
     2021.07871         3.27280        13.53629
     2021.08145        24.35555        13.40043
     2021.08418        -7.57470        14.32630
     2021.08692         7.61704        13.35391
     2021.08966        -1.67521        13.64795
     2021.09240        -9.80246        13.89733
     2021.09514         0.88229        13.65912
     2021.09787         5.47104        13.60794
     2021.10061         0.16879        13.60515
     2021.10335         4.06354        13.60701
     2021.10609        -4.64471        13.44789
     2021.10882         0.22704        13.56514
     2021.11156       -12.54221        13.35949
     2021.11430        -0.51746        13.54466
     2021.11704         3.22329        13.64795
     2021.11978       -24.14396        13.87314
     2021.12251        -1.87421        13.60050
     2021.12525        15.31054        13.60329
     2021.12799         4.95129        13.38368
     2021.13073        -6.04296        13.63958
     2021.13347        -1.79621        13.82382
     2021.13620       -16.47446        13.77357
     2021.13894        -5.68671        13.67866
     2021.14168         0.52104        13.66563
     2021.14442        -3.43821        13.47488
     2021.14715       -15.32646        13.54280
     2021.14989       -10.67271        13.40509
     2021.15263        -0.87596        15.13679
     2021.15537        -5.39821        13.85546
     2021.15811       -12.73046        13.90385
     2021.16084        -0.13171        13.77636
     2021.16358       -23.40396        13.67773
     2021.16632       -14.11821        14.08437
     2021.16906        -7.29346        14.00620
     2021.17180         9.25929        13.97457
     2021.17453       -34.89696        14.41656
     2021.17727       -20.11921        13.37531
     2021.18001       -21.49646        13.82010
     2021.18275       -12.41271        13.65260
     2021.18548       -10.38896        13.73263
     2021.18822        -6.83421        13.36321
     2021.19096       -17.38746        13.17990
     2021.19370       -16.20571        15.21588
     2021.19644       -11.26796        13.29715
     2021.19917         7.13279        13.42835
     2021.20191       -17.61346        13.61631
     2021.20465        -3.10771        13.06638
     2021.20744        -7.15103        14.13927
     2021.21013        -1.51821        13.21805
     2021.21286         3.85454        13.46185
     2021.21560         9.80929        13.65354
     2021.21834        -0.33596        12.78815
     2021.22108        -4.55721        13.49162
     2021.22381       -14.52246        13.11197
     2021.22655       -14.45171        13.48697
     2021.22929        -7.15396        13.80893
     2021.23203         8.24779        13.35298
     2021.23477       -13.07046        13.58468
     2021.23750       -19.45571        13.97457
     2021.24024        -9.05696        13.46185
     2021.24298        -9.17821        13.72612
     2021.24572        -0.11546        12.62624
     2021.25119        -5.26196        12.73139
     2021.25393        -6.16721        13.08033
     2021.25667         0.06954        13.94293
     2021.25941        -2.66371        13.23387
     2021.26214        -2.20796        13.36973
     2021.26488         1.65679        12.61135
     2021.26762        28.54954        17.46867
     2021.27036        -4.98271        17.35515
     2021.27310        20.25704        14.72643
     2021.27583         0.14979        13.68517
     2021.27857        -2.59246        12.85329
     2021.28131        -3.45771        12.52295
     2021.28405        -4.94396        12.98542
     2021.28679        -3.68721        13.51024
     2021.28952       -12.91646        13.54839
     2021.29226       -12.72371        12.66904
     2021.29500         4.17704        12.62066
     2021.29774        -4.78121        13.37438
     2021.30047        -3.40446        14.08158
     2021.30321         1.11729        12.97519
     2021.30595        10.53604        12.88306
     2021.30869        -2.52721        13.52792
     2021.31143        24.12054        13.02171
     2021.31416        -0.26471        13.72332
     2021.31690        -5.16796        13.80893
     2021.31964       -11.86321        13.07754
     2021.32238        -1.14346        13.77823
     2021.32512        14.16229        13.40602
     2021.32785         4.31104        14.15974
     2021.33059         3.98179        13.75961
     2021.33333        14.25954        13.97829
     2021.33607       -14.54471        13.44231
     2021.33880       -10.97996        13.84336
     2021.34154        -1.28921        13.46836
     2021.34428       -45.97946        15.21681
     2021.34702       -15.73371        13.95502
     2021.34976       -21.25696        14.62500
     2021.35249       -11.88621        14.46867
     2021.35523         7.12554        14.54032
     2021.35797         5.47829        15.31638
     2021.36071        -3.32096        16.23573
     2021.36344       -21.54921        14.26675
     2021.36618       -25.21146        14.72363
     2021.36892       -14.94571        14.14950
     2021.37166        -4.97696        14.86228
     2021.37440       -29.00021        14.70875
     2021.37622       -30.89238        37.34274
     2021.37987       -10.54071        14.95347
     2021.38261       -48.13096        19.96805
     2021.38535       -33.01621        19.74100
     2021.38809        -8.33647        15.38989
     2021.39082       -26.69972        15.49783
     2021.39356       -23.07797        14.62500
     2021.39630        -7.52022        15.52854
     2021.39904       -10.19047        14.76830
     2021.40177         0.01228        16.49442
     2021.40451        -1.74397        17.62593
     2021.40725         3.11978        15.32289
     2021.40999        -7.52947        14.60174
     2021.41273       -21.98372        14.39888
     2021.41546         9.10203        16.04963
     2021.41820       -29.29922        15.68579
     2021.42094       -17.11847        15.96495
     2021.42368        -4.72572        15.19634
     2021.42642       -20.40997        14.37934
     2021.42915        -2.25422        15.21123
     2021.43189         5.09353        14.62314
     2021.43463       -20.95672        14.11600
     2021.43737        -9.33797        13.92432
     2021.44010       -19.32222        14.37004
     2021.44284       -25.33447        14.82041
     2021.44558       -17.43272        14.49193
     2021.44832       -13.92697        13.74752
     2021.45106       -16.16822        15.38617
     2021.45379        -0.79747        13.83313
     2021.45653        14.84028        15.26427
     2021.45927        -5.03197        13.62190
     2021.46201         1.93078        14.49659
     2021.46475        -6.83447        13.92059
     2021.46748        13.80628        14.98232
     2021.47022        -8.89497        14.40633
     2021.47296        13.42578        17.96557
     2021.47570       -17.45047        17.42959
     2021.47843         9.16728        17.95720
     2021.48117       -47.76197        20.76644
     2021.48391        22.80078        18.65416
     2021.48665       -43.63547        17.90229
     2021.48939       -17.37172        18.16005
     2021.49212       -41.23697        18.77791
     2021.49486        -4.72922        19.26644
     2021.49760        -9.53647        18.07444
     2021.50034        -9.18372        17.24535
     2021.50312        27.90197        28.86755
     2021.50582         0.69678        19.53815
     2021.50860       -20.42753        17.96278
     2021.51133       -12.77576        17.17928
     2021.51406        -6.79801        18.04746
     2021.51680        -0.85826        17.53660
     2021.51952        -1.96149        17.23976
     2021.52227        18.31025        16.74845
     2021.52498        14.61602        17.87159
     2021.52773        -8.13823        18.05862
     2021.53045        33.98054        17.50310
     2021.53317         8.16230        17.86880
     2021.53590        11.41506        19.29528
     2021.53864        16.64581        21.15912
     2021.54138        16.67556        17.42680
     2021.54411        12.50232        17.94603
     2021.54689         5.13002        17.71898
     2021.54962         1.19477        16.99876
     2021.55509        14.31028        17.70595
     2021.55783         9.64103        17.14392
     2021.56057        -5.89823        18.19076
     2021.56331        -1.35047        17.28815
     2021.56605       -26.64272        19.62934
     2021.56878       -30.44597        19.97643
     2021.57152       -32.37822        19.53257
     2021.57426        -3.12547        17.13275
     2021.57700        16.14928        17.41935
     2021.57974        -0.95597        19.23945
     2021.58247        12.47578        21.56017
     2021.58521       -20.12147        20.47239
     2021.58795        -2.02872        20.04808
     2021.59069       -10.11897         5.65943
     2021.59342        -5.99322         5.19324
     2021.59616        -0.89047         5.22674
     2021.59890         0.01928         5.13275
     2021.60164         2.32703         5.29373
     2021.60438         2.43378         5.05552
     2021.60711        -0.00247         5.13275
     2021.60985        -3.26572         5.13275
     2021.61259         0.65003         5.11135
     2021.61533        -5.72522         5.10763
     2021.61807         7.65853         5.05180
     2021.62080        -1.31172         5.01551
     2021.62354         4.05303         5.26675
     2021.62628         0.32678         5.63989
     2021.62902         8.28353         5.10019
     2021.63175        -3.90472         5.17649
     2021.63449        -4.79297         5.19789
     2021.63723        12.52578         5.34491
     2021.63997         5.97153         5.13275
     2021.64271         9.46128         5.17649
     2021.64544        -0.74597         5.07320
     2021.64818         5.04178         5.11880
     2021.65092        -1.89847         5.15788
     2021.65366        -5.70772         5.07506
     2021.65639         3.17603         5.05273
     2021.65913         7.31578         5.28164
     2021.66187         6.24253         5.08158
     2021.66461         1.21328         5.02109
     2021.66735         5.88803         5.01179
     2021.67008         5.31978         5.12903
     2021.67282         5.51153         5.35980
     2021.67556        -0.25172         5.31141
     2021.67830         0.23503         5.23232
     2021.68104         0.50678         5.01272
     2021.68377        -4.11347         5.07692
     2021.68651         1.71227         5.56731
     2021.68925         3.00202         5.07041
     2021.69199         1.00777         5.19510
     2021.69472         3.91752         5.10205
     2021.69746         1.55027         5.07413
     2021.70020         8.89502         5.06110
     2021.70294         4.12377         5.03784
     2021.70568         5.55252         5.19975
     2021.70841         1.37327         5.16904
     2021.71115         3.45602         5.06110
     2021.71389        -4.06223         5.57289
     2021.71663         2.53752         5.11414
     2021.71937         3.80227         5.05366
     2021.72210        -2.11198         5.03412
     2021.72484        -0.54023         5.08623
     2021.72758         3.78352         5.05180
     2021.73032        -2.61373         5.35050
     2021.73305         6.49302         5.07785
     2021.73579        13.33677         5.09553
     2021.73853        16.24652         5.34957
     2021.74127         4.40427         5.15509
     2021.74401         2.23102         5.08251
     2021.74674         3.99577         5.32723
     2021.74948         7.73952         5.10019
     2021.75222         4.13527         5.15043
     2021.75496        -0.58598         5.18672
     2021.75770         6.58877         5.17277
     2021.76043        14.21452         5.20347
     2021.76317         4.61127         5.18393
     2021.76591         9.13702         5.10205
     2021.76865        -0.12123         5.20254
     2021.77138        -0.37948         5.10019
     2021.77412        10.34027         5.21371
     2021.77686        11.22402         5.08716
     2021.77960        11.92177         5.13089
     2021.78234         8.56152         5.15788
     2021.78507        10.45827         5.13275
     2021.78781         9.69802         5.06762
     2021.79055        11.42477         5.06203
     2021.79329        14.60252         5.06855
     2021.79603         8.01227         5.03691
     2021.79876        10.31402         5.16532
     2021.80150         8.66677         5.23697
     2021.80424        13.20952         5.39423
     2021.80698         0.84827         5.18021
     2021.80971         7.42202         5.26024
     2021.81245        13.61877         5.36911
     2021.81519        19.15552         5.10763
     2021.81793        11.33327         5.29466
     2021.82067         6.63102         5.39702
     2021.82340        10.21777         5.32537
     2021.82614         7.77752         5.19510
     2021.82888        12.43427         5.23604
     2021.83162         6.32402         5.27326
     2021.83436        18.05077         5.26210
     2021.83709        14.86552         5.24814
     2021.83983         8.74427         5.19045
     2021.84257         5.91802         5.69758
     2021.84531        -0.88523         5.30211
     2021.84804         8.90352         5.18765
     2021.85078         3.17927         5.17277
     2021.85352         9.00302         5.16718
     2021.85626        15.26577         5.18393
     2021.85900         5.73252         5.11787
     2021.86173        -2.36773         5.05180
     2021.86447         2.21202         5.21929
     2021.86721         1.39077         5.30397
     2021.86995         2.72552         5.37004
     2021.87269         2.84627         5.41005
     2021.87542         0.99102         5.25279
     2021.87816         1.86477         5.10298
     2021.88090         6.57352         5.22208
     2021.88364         2.08127         5.16811
     2021.88637        -1.86998         5.05924
     2021.88911         1.52077         5.06390
     2021.89185        -3.95448         5.07413
     2021.89459        10.02127         5.25558
     2021.89733         2.42902         5.07320
     2021.90006        -1.90523         5.07785
     2021.90280        -0.34348         5.19045
     2021.90554        -2.77073         5.10019
     2021.90828        10.54802         5.15509
     2021.91102         5.25377         5.15230
     2021.91364         2.15365         5.40167
     2021.91649         2.35027         5.10484
     2021.91923         1.47302         5.51241
     2021.92197         2.03677         5.37934
     2021.92470         2.62152         5.19975
     2021.92744         3.70627         5.25465
     2021.93018        -5.92998         5.21557
     2021.93292         5.64277         5.32909
     2021.93566        11.55852         5.35887
     2021.93839        10.12527         5.37283
     2021.94113        10.62402         5.45564
     2021.94387        18.31277         5.28722
     2021.94661        -3.06548         5.20627
     2021.94935         7.28827         5.28815
     2021.95208         9.28502         5.18952
     2021.95482         6.90777         5.35980
     2021.95756         4.14352         5.35794
     2021.96030         0.70127         5.29466
     2021.96303         6.36702         5.37004
     2021.96577         4.79077         5.34398
     2021.96851         4.01652         5.42122
     2021.97125        10.17327         5.46867
     2021.97399         7.87402         5.48635
     2021.97672         3.02677         5.33654
     2021.97946         6.20652         5.41377
     2021.98220         9.49227         5.31048
     2021.99589        11.91001         5.37004
     2021.99863        -6.66224         5.26303
     2022.00136         2.35851         5.23790
     2022.00410         6.20926         5.25931
     2022.00684        -4.20799         5.29746
     2022.00958        -6.86824         5.25372
     2022.01232       -14.55749         5.18765
     2022.01505        -3.20774         5.30769
     2022.01779         8.70401         5.34677
     2022.02053        -1.87124         5.23139
     2022.02327        -1.37149         5.56731
     2022.02600        -7.75874         5.25558
     2022.02874        -3.92799         5.33189
     2022.03148        -9.23324         5.27698
     2022.03422        -3.43849         5.33654
     2022.03696        -5.01174         5.22301
     2022.03969       -11.57999         5.22860
     2022.04243        -3.43224         5.11042
     2022.04517        -0.49449         5.19417
     2022.04791        -0.84674         5.24256
     2022.05065        -1.05399         5.18579
     2022.05338        -4.81324         5.25651
     2022.05612        -9.21849         5.25931
     2022.05886       -10.73474         5.16811
     2022.06160       -12.33999         5.18672
     2022.06433        -2.17624         5.25744
     2022.06707        -9.74849         5.22860
     2022.06981        -2.94874         5.19510
     2022.07255       -10.65699         5.21278
     2022.07529        -2.07324         5.08995
     2022.07802         3.28251         5.14299
     2022.08076         8.31626         5.14020
     2022.08350         0.14901         5.18579
     2022.08624        -0.41724         5.07692
     2022.08898         0.09151         5.12345
     2022.09171        -1.52974         5.13555
     2022.09445        -2.25699         5.13275
     2022.09719        -8.17124         5.11228
     2022.09993        -5.44949         5.20533
     2022.10266        -8.57374         5.41284
     2022.10540        -5.15699         5.19789
     2022.10814         1.93976         5.19603
     2022.11088         4.55151         5.10763
     2022.11362         1.16526         5.07227
     2022.11635         4.41501         5.10949
     2022.11909        -2.20824         5.09739
     2022.12183         2.46751         5.24163
     2022.13278        -5.94249         5.07785
     2022.13552        -2.59774         5.09460
     2022.13826         4.88601         5.17370
     2022.14099        -4.51724         5.10577
     2022.14373        -6.34949         5.07413
     2022.14647         2.49626         5.07692
     2022.14921         3.36901         5.52357
     2022.15195        -0.07524         5.33282
     2022.15468         7.14551         5.15136
     2022.15742        10.57126         5.15230
     2022.16016        10.75901         5.15043
     2022.16290         8.17276         5.18207
     2022.16564         1.07851         5.13648
     2022.16837         1.03026         5.32630
     2022.17111        -1.52999         5.12159
     2022.17385         0.50776         5.11787
     2022.17659         4.54951         5.06483
     2022.17932         0.26926         5.24349
     2022.18206        -3.31499         5.11135
     2022.18480         2.39776         5.13555
     2022.18754        -0.45649         5.19789
     2022.19028        -3.31374         5.14950
     2022.19301         3.12501         5.20813
     2022.19575         6.83476         5.28536
     2022.19849         4.77351         5.13741
     2022.20123        -4.92574         5.27047
     2022.20397         2.89901         5.13089
     2022.20670        -1.24324         5.26861
     2022.20944         4.55151         5.17742
     2022.21218         6.26326         5.12810
     2022.21492         0.26801         5.13834
     2022.21765         1.27376         5.16532
     2022.22039        -2.97149         5.09553
     2022.22313         1.51026         5.21092
     2022.22587         1.39801         5.38958
     2022.22861        -0.88124         5.27140
     2022.23134         3.84951         5.18114
     2022.23408        -0.55474         5.13182
     2022.23682         3.17501         5.23511
     2022.23956         3.33076         5.10391
     2022.24230        12.29051         5.16718
     2022.24503         6.97226         5.14764
     2022.24777         8.45501         5.14113
     2022.25051        -2.84524         5.12624
     2022.25325         2.70451         5.11787
     2022.25598         3.17626         5.39330
     2022.25872         2.49901         5.20254
     2022.26146         2.52676         5.15695
     2022.26420        -1.82849         5.13927
     2022.26694        -1.55574         5.45564
     2022.26967         0.35401         5.15043
     2022.27241         4.01776         5.13555
     2022.27515         3.68451         5.43331
     2022.27789        -7.73674         5.27512
     2022.28062        -3.13299         5.24256
     2022.28336         1.02176         5.16439
     2022.28610        -1.01650         5.28443
     2022.28884        -2.94975         5.25744
     2022.29158        -2.93900         5.15881
     2022.29431        -2.67225         5.13462
     2022.29705        -4.08050         5.16997
     2022.29979         6.35125         5.34212
     2022.30253         3.75300         5.36631
     2022.30527         1.16075         5.23511
     2022.30800        -2.79850         5.10484
     2022.31074        -2.71175         5.12624
     2022.31348        -0.82500         5.14113
     2022.31622         0.07675         5.12903
     2022.31895       -18.29850         5.26861
     2022.32169        -3.47775         5.39423
     2022.32443        -2.72300         5.10577
     2022.32717       -10.68425         5.10670
     2022.32991        -1.49950         5.08344
     2022.33264        -6.93075         5.81948
     2022.33538        -4.54500         5.29560
     2022.33812        -2.46025         5.33747
     2022.34086        -5.52250         5.21557
     2022.34360        -4.21775         5.21836
     2022.34633       -10.44200         5.16253
     2022.34907        -6.90225         5.19603
     2022.35181        -7.79250         5.12717
     2022.35455        -4.26775         5.10298
     2022.35728        -5.47900         5.14020
     2022.36002         2.98075         5.11880
     2022.36276        -0.65950         5.12996
     2022.36550        -7.60075         5.10763
     2022.36824        -9.29600         5.26396
     2022.37097        -8.06425         5.10763
     2022.37371        -5.99850         5.12624
     2022.37645        -8.25275         5.15323
     2022.37919        -1.07300         5.27140
     2022.38193        -7.61925         5.33747
     2022.38466        -9.53250         5.11228
     2022.38740       -16.60575         5.20347
     2022.39014        -7.54200         5.13462
     2022.39288       -14.71325         5.29373
     2022.39561        -3.66350         5.12066
     2022.39835        -5.36575         5.30118
     2022.40109        -6.75700         5.18579
     2022.40383        -1.86025         5.13555
     2022.40657        -5.80050         5.08995
     2022.40930        -8.04375         5.36725
     2022.41204        -6.85000         5.22301
     2022.41478        -4.60225         5.17184
     2022.41752        -4.86450         5.20440
     2022.42026        -5.82675         5.28164
     2022.42299        -3.34300         5.09181
     2022.42573        -4.57825         5.31141
     2022.42847        -2.60150         5.13555
     2022.43121        -6.76275         5.24349
     2022.43394         1.50300         5.28257
     2022.43668        -6.53625         5.14113
     2022.43942        -1.75650         5.27512
     2022.44216        -2.15175         5.27233
     2022.44490         2.98500         5.31048
     2022.44763         1.20675         5.04901
     2022.45037         0.61250         5.01830
     2022.45311       -16.73075         5.23604
     2022.45585        -8.38100         5.19696
     2022.45859       -23.32125         5.14671
     2022.46132        -8.87850         5.07599
     2022.46406        -3.53575         5.07227
     2022.46680        -8.36000         5.08716
     2022.46954        -8.12325         5.07134
     2022.47227       -20.75150         5.12252
     2022.47501         3.23625         5.12252
     2022.47775        -1.97500         5.28908
     2022.48049       -10.02825         5.04342
     2022.48323        -1.19550         5.11600
     2022.48596         1.73125         5.37934
     2022.48870        -7.17200         5.18672
     2022.49144        -6.00425         5.17277
     2022.49418        -4.51350         5.34119
     2022.49692        -5.70775         5.11507
     2022.49965       -14.11900         5.18300
     2022.50513        -2.02750         5.49100
     2022.50787         3.94425         5.57289
     2022.51060       -11.69500         5.34305
     2022.51334       -10.14525         5.23046
     2022.51608       -11.49350         5.12624
     2022.51882       -10.71575         5.17463
     2022.52156       -12.96700         5.14950
     2022.52429        -6.66525         5.19417
     2022.52703         1.13950         5.11414
     2022.52977         8.47525         5.16346
     2022.53251        -8.12500         5.19882
     2022.53525        -9.00925         5.23790
     2022.53798        -9.37950         5.15043
     2022.54072        -6.32675         5.13462
     2022.54346        -2.87000         5.07599
     2022.54620        -7.54225         5.17370
     2022.54893        -6.67650         5.07878
     2022.55167        -6.11475         5.04156
     2022.55441        -5.10800         5.08716
     2022.55715         7.16775         5.18207
     2022.55989        -3.91350         5.11694
     2022.56262        -9.15975         5.20720
     2022.56810       -11.61525         5.18114
     2022.57084       -12.77650         5.34026
     2022.57357        -1.50275         5.17649
     2022.57631       -14.84800         5.09274
     2022.57905       -13.93325         5.14950
     2022.58179        -3.85550         5.24907
     2022.58453         0.05924         5.48728
     2022.58726       -13.05401         5.28815
     2022.59000         0.47674         5.29001
     2022.59274        -6.78751         5.23511
     2022.59548        -4.68076         5.10205
     2022.59822       -13.29101         5.11787
     2022.60095       -13.64826         5.24256
     2022.60369        -7.76251         5.07692
     2022.60643        -4.25976         5.03412
     2022.60917        -4.05901         5.19789
     2022.61190         3.43574         5.24721
     2022.61464         0.61149         4.98387
     2022.61738         4.89224         5.10019
     2022.62012        -3.62801         5.04622
     2022.62286        -3.76026         5.02295
     2022.62559        -3.07251         5.09926
     2022.62833         0.35524         5.18114
     2022.63107        -0.88201         5.08064
     2022.63381        -0.68826         5.01086
     2022.63655        -1.73851         5.02854
     2022.63928         3.59424         5.10856
     2022.64202         3.78599         5.39888
     2022.64430        -3.01272         6.45130
     2022.66512        36.53157        17.28629
     2022.66666         3.69974         4.96340
     2022.66940         7.32149         5.01644
     2022.67214         4.02824         5.11228
     2022.67488         5.39999         4.98666
     2022.67761         5.91774         5.07878
     2022.68035        12.04949         5.05924
     2022.68309         7.15624         5.08437
     2022.68583         3.77099         5.27885
     2022.68856         9.24974         5.09832
     2022.69130         6.44849         5.11507
     2022.69404         8.65324         5.11507
     2022.69678         5.80699         5.44727
     2022.69952        -3.08726         5.13462
     2022.70225         7.44949         5.14950
     2022.70499        11.16824         5.18672
     2022.70773        11.03299         5.12624
     2022.71047         5.88674         5.04901
     2022.71321         9.98749         5.02761
     2022.71594        10.20624         5.10298
     2022.71868         1.30399         5.07041
     2022.72142         4.94074         5.14857
     2022.72416         9.02749         5.07692
     2022.72689        10.29024         5.15974
     2022.72963         8.54899         4.97364
     2022.73237         2.13174         4.95875
     2022.73511         3.56349         5.06390
     2022.73785         4.50924         5.18579
     2022.74058        22.75799         5.71433
     2022.74332        11.23974         5.37655
     2022.74606        12.15349         5.11414
     2022.74880         5.76824         5.01923
