# ================= DQRFIT RESULTS ================
# INPUT FILE: series/RKD1.rad
# OUTPUT: LDETRENDED
# FILTER FUNCTION: f(t)
# f(t)=+line(t)+annual(t)+jumps(t)
# line(t)=+P 1+P 2*t
# annual(t)=+P 3*sin(2*pi*t+P 4)
# jumps(t)=+P 5*heav(t-2019.2218  )
# heav(t)=(t<0?0:1)
# TOTAL OBSERVATIONS MTOT= 3837
# INITIAL TIME INTERVAL= 2022.7488 - 2011.8220 = 10.9268
# TOTAL OBSERVATIONS AFTER PREFILTER M= 3821
# TIME-SPAN= 2022.7488 - 2011.8220 = 10.9268
# OBSERVATIONS: USED M=  3821 REJECTED MTOT-M=    16 %USED=   99.5830
# N=  5 PARAMETERS
# MAXSIG= 175.00000
# MAXRES=  25.59047
# SCALE FACTOR FOR LENGTHS: SCL=  10.00000
# SCALE FACTOR FOR SIGMAS: SCLSIG=   1.00000
# CHI^2=   5336.170 DOF=  3816 CHI^2/DOF=   1.39837
# RMS=      6.601 SDEV=      6.602 MEAN=   -0.00467
#  P #       PARAMETER +-    SIGMA %error PARAMETER NAME
# P 1 =       110.93327 +-  112.584 101.49 YZERO                              
# P 2 =        -0.06134 +-    0.056  91.05 SLOPE                              
# P 3 =         6.04670 +-    0.147   2.44 ANNUAL AMPLITUDE                   
# P 4 =         2.71553 +-    0.031   1.15 ANNUAL PHASE                       
# P 5 =        15.47350 +-    0.373   2.41 OFFSET 2019.2218                   
#       T            LDETRENDED       SIG_OBS
     2011.82203         6.14216         6.48024
     2011.82477         4.87333         6.71202
     2011.82752         8.78350         6.36908
     2011.83033         3.94067         6.70137
     2011.83299         0.72583         6.63870
     2011.83572        -1.45700         6.57603
     2011.83846         5.17117         6.59022
     2011.84120         7.43334         6.40811
     2011.84394         9.92750         6.65407
     2011.84668         8.36567         6.54883
     2011.84941         0.80884         6.55829
     2011.85215        -3.00999         6.59968
     2011.85489        -3.02282         6.46132
     2011.85763         3.09034         6.93197
     2011.86036         8.57651         6.61387
     2011.86310        10.12868         6.69428
     2011.86585         8.57285         6.57957
     2011.86858        11.78602         6.37027
     2011.87132         5.52718         6.54883
     2011.87405         1.08035         6.67299
     2011.87679         1.12052         6.68955
     2011.87953        -0.41531         6.82672
     2011.88227         1.88986         6.37973
     2011.88501         4.98802         6.37263
     2011.88774        -2.98881         6.36554
     2011.89048        -1.34564         6.43294
     2011.89322        -7.93847         6.61623
     2011.89596         3.60570         6.37381
     2011.89869         1.09586         6.41520
     2011.90143        -4.43297         6.39392
     2011.90417         3.13720         6.47078
     2011.90691        -1.97663         6.67772
     2011.90965         3.37054         6.45541
     2011.91238         5.96770         6.61387
     2011.91512        -1.90113         6.51453
     2011.91786        -3.24496         6.72502
     2011.92060        -2.56579         6.49088
     2011.92334        -6.34263         6.58430
     2011.92607        -8.32546         6.71083
     2011.92881        -3.54429         6.55119
     2011.93155        -0.19812         6.56420
     2011.93429        -2.08895         7.18503
     2011.93702        -2.02579         6.62451
     2011.93976        -0.13162         6.54173
     2011.94250         2.14755         6.49325
     2011.94524         2.58372         6.51690
     2011.94797         4.55389         6.58549
     2011.95072         4.18805         6.89294
     2011.95345       -10.61378         6.85274
     2011.95619        -4.71961         6.80662
     2011.95897         3.00856         6.50271
     2011.96165         2.69873         6.40929
     2011.99295         0.27265        15.22502
     2011.99452         1.71674         6.28749
     2011.99726         0.91891         6.31232
     2012.00273         1.50725         6.41639
     2012.00547         0.45741         6.32178
     2012.00821         2.48358         6.35371
     2012.01095         2.00775         6.35726
     2012.01368         4.28292         6.27921
     2012.01642         4.83909         6.38327
     2012.01916        -8.99375         6.27685
     2012.02190         0.94642         6.31705
     2012.02464         3.91459         6.27803
     2012.02737        -1.58024         6.26266
     2012.03011         1.46092         6.28867
     2012.03285        -3.66291         6.30405
     2012.03559         0.46626         6.29813
     2012.03833        -0.95057         6.28512
     2012.04106         4.28260         6.25320
     2012.04380         3.86176         6.28394
     2012.04654         4.07793         6.47315
     2012.04928        10.26110         6.26739
     2012.05201         4.88827         6.37736
     2012.05475        -3.48256         6.35608
     2012.05749         5.49060         6.28749
     2012.06023        -0.35123         6.33006
     2012.06297        -0.20106         6.25793
     2012.06570         8.52011         6.27921
     2012.06844        12.18328         6.37381
     2012.07118       -10.91656         6.31114
     2012.07392        -6.54939         6.33243
     2012.07666         0.51878         6.35844
     2012.07939         3.59495         6.31114
     2012.08213         4.66412         6.32060
     2012.08487         4.37428         6.39510
     2012.08761        -3.96455         6.30996
     2012.09034        -6.21438         6.34307
     2012.09308        -1.96021         6.34898
     2012.09582        -2.55104         6.36317
     2012.09856        -3.47388         6.33597
     2012.10130        -4.40571         6.40929
     2012.10403        -8.33154         6.28631
     2012.10682        -1.55737         6.49325
     2012.10951        -6.52520         6.37618
     2012.11225        -7.84704         6.36435
     2012.11498        -2.37887         6.33834
     2012.11772        -1.00570         6.41639
     2012.12046         7.53047         6.37854
     2012.12320         2.02864         6.52518
     2012.12594        -9.67820         6.39746
     2012.12867        -9.87603         6.36908
     2012.13141       -11.57886         6.42112
     2012.13415         0.05631         6.40811
     2012.13689         1.49447         6.42466
     2012.13963        -1.07836         6.53582
     2012.14236         4.17981         6.54173
     2012.14510         0.47298         6.84919
     2012.14784        -7.14485         6.26502
     2012.15058        -6.17369         6.31114
     2012.15332        -2.97952         6.29695
     2012.15605        -5.14935         6.63160
     2012.15879        -1.15218         6.49916
     2012.16153        -3.15401         6.29340
     2012.16427         2.96315         6.40338
     2012.16700        -3.35168         6.47196
     2012.16974        -2.53251         6.36199
     2012.17248         1.78466         6.36554
     2012.17522         1.11483         6.33006
     2012.17796        -0.69501         6.42585
     2012.18069        -8.15584         6.48142
     2012.18343        -8.11867         6.36672
     2012.18617        -5.43350         6.51572
     2012.18891         0.06367         6.37263
     2012.19164         1.14283         6.42703
     2012.19438         2.34400         6.41639
     2012.19712        -1.26283         6.37736
     2012.19986         2.37334         6.37973
     2012.20260        -7.54149         6.42939
     2012.20533         4.47067         6.42939
     2012.20807        -6.75916         6.27803
     2012.21081        -0.01999         6.33834
     2012.21355        -0.99182         6.28512
     2012.21629        -2.37865         6.27330
     2012.21902        -4.20749         6.32415
     2012.22176        -1.38432         6.25911
     2012.22450        -8.26115         6.29458
     2012.22724        -7.59698         6.34898
     2012.22998        -3.06681         6.24847
     2012.23271         3.15635         6.32415
     2012.23545        -4.13248         6.27921
     2012.23819        -3.00631         6.34307
     2012.24093        -3.23914         6.36081
     2012.24366        -4.24197         6.48379
     2012.24640        -2.56281         6.30759
     2012.24914        -3.61664         6.32178
     2012.25188        -5.65547         6.28749
     2012.25462        -8.18430         6.42348
     2012.25735        -5.48014         6.32415
     2012.26009        -6.77697         6.29458
     2012.26283        -6.06680         6.23428
     2012.26557        -9.73863         6.27566
     2012.26831       -10.61546         6.29932
     2012.27104        -6.58430         6.40456
     2012.27378        -5.74513         6.29695
     2012.27652        -2.15796         6.29222
     2012.27926        -0.53679         6.54410
     2012.28199        -6.14662         6.31232
     2012.28473        -2.13846         6.31351
     2012.28747        -2.08629         6.32060
     2012.29021        -4.84612         6.33479
     2012.29295        -9.16795         6.31824
     2012.29568        -8.06378         6.28867
     2012.29842       -11.19262         6.37973
     2012.30116        -9.09645         6.32415
     2012.30389       -11.41428         6.37500
     2012.30663       -15.56211         6.34307
     2012.30937        -3.91794         6.42112
     2012.31211        -2.96478         6.81963
     2012.31485        -0.04861         6.49680
     2012.31759        -1.76144         6.33479
     2012.32032       -13.18327         6.39037
     2012.32306        -7.05810         6.27685
     2012.32580       -10.34394         6.28631
     2012.32854        -5.17077         6.38682
     2012.33128        -5.89860         6.51099
     2012.33401        -8.34743         6.48497
     2012.33675        -3.17426         6.30641
     2012.33949        -9.41910         6.28394
     2012.34223       -21.98893         6.30286
     2012.34497       -16.69976         6.28276
     2012.34770       -11.29359         6.61387
     2012.35044        -6.67342         6.35135
     2012.35318        -5.58626         6.30996
     2012.35592        -5.01909         6.30641
     2012.35865        -9.51492         6.24610
     2012.36139       -10.21875         6.29695
     2012.36413       -13.25558         7.08215
     2012.36687       -11.34542         6.26857
     2012.36961        -7.25725         6.27921
     2012.37234        -1.58108         6.31824
     2012.37508        -6.66591         6.31587
     2012.37782        -5.08575         6.46960
     2012.38056        -7.90458         6.39155
     2012.38330        -4.34141         6.45186
     2012.38603        -8.88124         6.45423
     2012.38877        -2.63507         6.59968
     2012.39151        -3.10391         6.49088
     2012.39425        -3.28874         6.37618
     2012.39698        -2.72657         6.48142
     2012.39972        -5.20240         6.30759
     2012.40246        -3.61723         6.52399
     2012.40520        -7.96407         6.34662
     2012.40794        -7.29490         6.39746
     2012.41067        -7.51273         6.32533
     2012.41341        -1.31856         6.46605
     2012.41615        -0.64539         6.35135
     2012.41889        -1.79723         6.59258
     2012.42162        -6.77606         6.39628
     2012.42436        -4.82389         6.30878
     2012.42710        -5.35472         6.26739
     2012.42984        -0.84755         6.23782
     2012.43258        -6.35939         6.35962
     2012.43531        -3.96622         6.32178
     2012.43805        -6.99105         6.31351
     2012.44079       -12.02688         6.37145
     2012.44353       -16.46171         6.30641
     2012.44626        -2.67655         6.34543
     2012.44900        -9.96138         6.31824
     2012.45175        -5.57021         6.36435
     2012.45448        -8.40104         6.39746
     2012.45722        -7.51087         6.35135
     2012.45995        -2.82471         6.44713
     2012.46269        -1.30154         6.29932
     2012.46543        -8.81337         6.38564
     2012.46817        -8.01420         6.34070
     2012.47091        -5.48804         6.33006
     2012.47364         0.63713         6.34780
     2012.47638       -13.41270         7.44518
     2012.47912        -5.46153         6.45777
     2012.48186        -7.96436         6.51926
     2012.48459        -0.77820         6.33124
     2012.48733        -9.99203         6.32888
     2012.49007        -3.91486         6.30759
     2012.49281        -5.23169         6.33834
     2012.49555        -4.05552         6.39037
     2012.49833         1.13165         6.49088
     2012.50102        -2.47419         6.42939
     2012.50376         0.89498         6.37381
     2012.50650        -6.71785         6.26975
     2012.50924        -3.00568         6.43412
     2012.51197        -2.81952         6.79125
     2012.51471        -5.40535         6.30050
     2012.51745        -7.48218         6.33834
     2012.52019       -10.76101         9.74874
     2012.52292        -1.97284         6.53227
     2012.52566        -1.53268         6.39392
     2012.52840        -2.66151         6.30641
     2012.53114        -2.71734         6.38091
     2012.53388        -2.15917         6.44477
     2012.53661         1.29900         6.58549
     2012.53935        -2.44584         6.47788
     2012.54209         5.25433         6.35726
     2012.54483         5.02450         6.48734
     2012.54757        -1.15633         6.39155
     2012.55030        -2.45416         6.60086
     2012.55304        -1.84000         6.33361
     2012.55578         0.22617         6.34780
     2012.55852        -2.05766         6.43058
     2012.56125        -1.47549         6.30641
     2012.56399         0.26668         6.31705
     2012.56673         3.78184         6.37854
     2012.56947        -5.74599         6.67299
     2012.57221        -0.17182         6.54173
     2012.57494         1.03435         6.45659
     2012.57768         1.41252         6.32888
     2012.58042         6.41468         7.15428
     2012.58316        -4.68615         6.33716
     2012.58590         3.33502         6.53346
     2012.58858         9.36418         6.44831
     2012.59138         2.78936         6.30286
     2012.59411         1.69152         6.33006
     2012.59685         8.86669         6.37973
     2012.59958         3.37086         6.48261
     2012.60232         4.52103         6.68837
     2012.60506         5.58219         6.24610
     2012.60780         0.85536         6.29222
     2012.61054         3.87453         6.30168
     2012.61328         2.96370         6.31351
     2012.61601         9.30287         6.36435
     2012.61875        10.13803         6.41520
     2012.62149         8.39320         6.32770
     2012.62423         2.73737         6.31469
     2012.62696         2.11654         6.33361
     2012.62970        -0.08429         6.34425
     2012.63244        -1.13813         6.41402
     2012.63518        -1.78096         6.31705
     2012.63791         4.73721         6.34307
     2012.64065        10.50838         6.40219
     2012.64339        11.66855         6.33006
     2012.64613         7.80771         6.30759
     2012.64887         7.18188         6.31942
     2012.65161        10.93905         6.37500
     2012.65434         6.21422         6.36081
     2012.65708         3.70239         6.57484
     2012.65982         6.75255         6.58430
     2012.66256         4.56472         6.34662
     2012.66511         7.48888         6.65880
     2012.66813        11.81406         6.57603
     2012.67077         9.18523         6.38919
     2012.67351         6.33639         6.36554
     2012.67624         6.53556         6.39037
     2012.67898        11.44773         6.29932
     2012.68172        12.21990         6.35608
     2012.68446         6.89007         6.35726
     2012.68720         8.42823         6.30168
     2012.68993        11.69540         6.59731
     2012.69267         8.02157         6.64934
     2012.69541         9.49074         6.83145
     2012.69815         6.18790         6.52636
     2012.70089         6.66007         6.48734
     2012.70362         0.29624         6.36554
     2012.70636         7.59541         6.33834
     2012.70910        10.06458         6.34543
     2012.71184        12.51074         6.35608
     2012.71457         9.18791         6.31587
     2012.71731         8.09808         8.23274
     2012.72005        10.82125         6.28039
     2012.72279        10.25042         7.13891
     2012.72553        10.93958         6.29458
     2012.72826        11.92675         6.26502
     2012.73100        10.78692         6.48379
     2012.73374         6.91209         6.48142
     2012.73648         8.99626         6.36081
     2012.73921         9.37342         7.46883
     2012.74195         6.30059         6.74513
     2012.74469         8.45176         7.47948
     2012.74743         9.58693         6.72148
     2012.75017         4.40510         7.02893
     2012.75290         8.03226         7.37423
     2012.75564         7.47743         6.30050
     2012.75838         4.56460         6.29813
     2012.76112         9.99877         6.29458
     2012.76386         8.19794         6.30759
     2012.76659         7.15310         6.41875
     2012.76933         8.22027         6.44358
     2012.77207        15.65244         6.43531
     2012.77481         3.88061         6.34662
     2012.77754         4.11178         6.38446
     2012.78028        13.22894         6.44713
     2012.78302         9.62511         6.47078
     2012.78576        10.13228         6.39628
     2012.78850        19.67045         6.41639
     2012.79123        31.46262         6.61623
     2012.79397         8.11278         6.41875
     2012.79671         7.75195         6.41165
     2012.79945        20.58412         6.46369
     2012.80219        11.73429         6.44004
     2012.80493         9.24846         6.41757
     2012.80766         3.85062         6.85274
     2012.81040         4.61879         6.41639
     2012.81314         6.66096         6.42939
     2012.81587         3.75213         6.45659
     2012.81861         2.84429         7.09042
     2012.82135         3.16846         6.37973
     2012.82409         3.71663         6.41875
     2012.82683         7.24980         6.44477
     2012.82956         3.35797         6.41284
     2012.83230         4.04613         6.37973
     2012.83504         3.89130         6.43176
     2012.83778        -1.42353         6.41639
     2012.84052         8.76264         6.46842
     2012.84326         7.62081         6.43176
     2012.84599         5.12897         6.62569
     2012.84873         5.58214         6.61978
     2012.85147         6.30631         6.56184
     2012.85420         4.60448         6.42821
     2012.85694         3.66465         6.41165
     2012.85968         3.58481         6.48497
     2012.86242         1.00598         6.42348
     2012.86516         2.19415         6.45068
     2012.86789        -2.27368         6.64461
     2012.87063        -0.76351         6.52991
     2012.87337        -0.21835         6.43649
     2012.87611         4.88082         6.37854
     2012.87885         8.05999         6.39983
     2012.88158        10.98716         6.38327
     2012.88432         7.59833         6.38800
     2012.88706         5.17249         6.83736
     2012.88980         5.13966         6.45659
     2012.89253         0.11383         6.34189
     2012.89527         2.58800         6.36317
     2012.89801         0.66517         6.38682
     2012.90075         3.59033         6.31469
     2012.90349        -1.33550         6.33361
     2012.90622         1.32967         6.36199
     2012.90896         3.90684         6.37973
     2012.91170         4.76001         8.92334
     2012.91444         7.08817         8.24575
     2012.91718         6.79934         8.28478
     2012.91992         9.66551         9.06288
     2012.92265         7.08368         9.51224
     2012.92539         3.72984         8.88077
     2012.92816         3.13101        10.00062
     2012.93086        -2.87982         8.18190
     2012.93360        -3.27565         7.92884
     2012.93634        -7.47348         6.81253
     2012.93908        -7.25732         6.94379
     2012.94182         1.23385         7.84961
     2012.94459        14.65702         9.60447
     2012.94732         6.26619         9.93913
     2012.95003        10.52836        10.44762
     2012.95277         4.50952         7.19212
     2012.95551         7.05669         6.84682
     2012.95824         8.43186         6.50271
     2012.96098         5.65403         6.63515
     2012.96372         3.69320         6.36554
     2012.96646         3.37736         6.28749
     2012.96919        -1.67947         7.28081
     2012.97193        -1.58030         6.94970
     2012.97467        -1.46713         6.47906
     2012.97741         2.35604         6.41757
     2012.98015        -6.17080         6.81253
     2012.98288        -3.09863         6.24019
     2012.98562        -0.33246         6.28158
     2012.98836        -3.16729         6.26857
     2012.99110         0.38088         6.26029
     2012.99384        -3.89596         6.26029
     2012.99657        -0.75879         6.25793
     2012.99931        -3.40962         6.30878
     2013.00205        -0.31945         6.30168
     2013.00479        -1.48828         6.25674
     2013.00752        -4.82312         6.27803
     2013.01026        -4.58695         6.37736
     2013.01300        -0.22178         6.26975
     2013.01574        -0.39661         6.32297
     2013.01848        -2.25444         6.47906
     2013.02121         3.33372         6.26266
     2013.02395        -7.52111         6.34780
     2013.02669        -2.81394         6.42821
     2013.02943        -1.76177         6.29340
     2013.03216        -5.90961         6.30523
     2013.03491        -6.22044         6.29104
     2013.03764        -8.22327         6.31469
     2013.04038        -8.39310         6.30286
     2013.04312       -15.27593         6.46487
     2013.04585        -9.26177         6.45541
     2013.04859        -5.57160         6.52991
     2013.05133       -10.47643         6.31587
     2013.05407        -8.20426         6.31942
     2013.05681        -5.55009         6.31114
     2013.05954        -5.67093         6.35844
     2013.06228        -5.60676         6.46723
     2013.06502        -2.93859         6.46369
     2013.06776        -0.36842         6.35135
     2013.07049        -0.84025         6.35962
     2013.07324        -3.09009         6.85392
     2013.07597        -4.19192         6.29695
     2013.07871        -6.11075         6.33006
     2013.08145        -6.48258         6.28749
     2013.08418        -6.45141         6.35489
     2013.08692        -8.74725         6.34307
     2013.08966       -11.06508         6.40929
     2013.09240        -5.00991         6.33361
     2013.09514         2.15526         6.38327
     2013.09787        -0.98957         6.62569
     2013.10061        -0.82141         6.66353
     2013.10335        -4.88324         6.38327
     2013.10594        -5.97808         6.91423
     2013.11720       -11.84339         6.85983
     2013.11978        -3.16823         6.56775
     2013.12251       -10.27906         6.38091
     2013.12525       -13.82689         6.43058
     2013.12799        -3.51173         6.37618
     2013.13073        -6.94056         6.39273
     2013.13347        -5.90339         6.41047
     2013.13618        -3.81822         6.38446
     2013.13894        -0.60005         6.41639
     2013.14168         2.29411         6.45777
     2013.14442         2.77728         6.53700
     2013.14715         1.11745         6.59968
     2013.14990        -6.32438         6.36790
     2013.15263        -5.66522         6.36081
     2013.15537       -12.53305         6.36908
     2013.15811       -10.85588         6.36199
     2013.16084       -10.85271         6.35135
     2013.16358        -9.68054         6.34543
     2013.16632        -7.24038         6.36435
     2013.16906        -2.29321         6.37145
     2013.17180        -4.94404         6.33952
     2013.17453        -6.12787         6.32533
     2013.17727        -5.24570         6.47788
     2013.18001       -10.45554         6.50389
     2013.18275        -5.42937         6.29340
     2013.18548        -7.12320         6.30878
     2013.18823       -11.30103         6.37618
     2013.19096        -6.93086         6.36081
     2013.19370        -2.32270         6.33243
     2013.19644        -1.46953         6.36435
     2013.19917        -1.62636         6.33597
     2013.20191        -0.60019         6.35962
     2013.20465         0.25198         6.36908
     2013.20739        -0.37986         6.60559
     2013.21013        -1.70469         6.33006
     2013.21286        -3.29252         6.31705
     2013.21560        -2.43735         6.28985
     2013.21834        -4.54018         6.33243
     2013.22108        -6.80702         6.29577
     2013.22381        -7.34385         6.26147
     2013.22656        -9.41868         6.27685
     2013.22929       -10.23751         6.26739
     2013.23203        -8.24134         6.28276
     2013.23477        -7.74418         6.31587
     2013.23750        -9.14801         6.46487
     2013.24024       -10.81284         6.43412
     2013.24298        -8.31667         6.41165
     2013.24572        -1.03150         6.51335
     2013.24846        -2.10034         6.45541
     2013.25119        -3.89417         6.47906
     2013.25325        -9.72304         9.51460
     2013.25667        -3.91183         6.82436
     2013.25941         1.49333         6.67181
     2013.26214         1.58350         6.68245
     2013.26488        -0.07233         6.70610
     2013.26762        -5.35516         6.62096
     2013.27036       -10.39799         6.46605
     2013.27310        -4.43683         6.89294
     2013.27561        -8.78767         7.68760
     2013.29500        -8.81448         6.44240
     2013.29774        -9.40531         6.48852
     2013.30047       -10.77115         6.52163
     2013.30321       -11.41698         6.41875
     2013.30595       -15.21681         6.41402
     2013.30869       -14.40464         6.41639
     2013.31143       -13.16747         6.44713
     2013.31416        -6.94831         6.58430
     2013.31690        -4.34314         6.62687
     2013.31964        -5.64797         6.72739
     2013.32238        -3.75380         6.62333
     2013.32512         1.56637         6.64343
     2013.32785        -7.12047         6.58667
     2013.33059       -12.83930         6.51572
     2013.33333       -13.77413         6.54528
     2013.33607        -8.92296         6.70374
     2013.33869         1.46220         7.11762
     2013.34154        -7.26563         6.67299
     2013.34428        -5.56346         6.57839
     2013.34702        -5.73129         6.44477
     2013.34953        -2.86314         9.31830
     2013.35249       -10.27495         6.42821
     2013.35523        -6.17979         7.24179
     2013.35797        -2.12562         6.48024
     2013.36071        -3.71445         6.45777
     2013.36344        -0.75028         6.55947
     2013.36618        -4.84812         6.49798
     2013.36892        -4.42595         6.41875
     2013.37166        -4.93178         6.42230
     2013.37423        -8.35562         7.14364
     2013.37713        -6.95344         6.38446
     2013.37987       -10.60628         6.40574
     2013.38261        -8.85511         6.40929
     2013.38535        -5.66194         6.44122
     2013.38809        -7.07777         6.39865
     2013.39082        -0.52260         6.40692
     2013.39356        -7.15744         6.43294
     2013.39619        -3.76127         6.76168
     2013.39904        -0.61410         6.41520
     2013.40177        -2.14993         6.53937
     2013.40451        -2.45276         6.43294
     2013.40725        -0.34560         6.43885
     2013.40999        -3.31043         6.40219
     2013.41273        -5.71426         6.48497
     2013.41546        -6.63109         6.73094
     2013.41820        -6.28692         6.51572
     2013.42094        -1.18576         6.48615
     2013.42368        -8.75459         6.47315
     2013.42642         0.50258         6.60677
     2013.42915         0.26975         6.45068
     2013.43189        -5.42708         6.56302
     2013.43463        -1.38892         6.49916
     2013.43737         2.50825         6.40929
     2013.44010        -6.44858         6.40101
     2013.44284        -2.99041         6.48379
     2013.44558        -6.06324         6.71438
     2013.44832        -8.53708         6.59140
     2013.45106        -5.23691         6.44358
     2013.45379        -3.56674         6.52636
     2013.45653        -5.58857         6.48734
     2013.45927        -6.75840         6.51453
     2013.46187        -6.00425         7.01711
     2013.46479        -1.10607         6.82081
     2013.46748        -3.35890         6.39155
     2013.47022        -5.27673         6.38564
     2013.47284        -5.29157         6.57011
     2013.47570        -4.45840         6.33479
     2013.47843        -1.12423         6.38800
     2013.48117         4.26494         6.37854
     2013.48391        -2.58889         6.37973
     2013.48665        -4.08673         6.47078
     2013.48939        -7.98156         6.41993
     2013.49201        -4.62040         6.96626
     2013.49480        -5.70022         6.41520
     2013.49760        -1.16605         6.39392
     2013.50034        -0.11589         6.38209
     2013.50308        -0.31872         6.48497
     2013.50581        -0.87955         6.29577
     2013.50855        -1.07438         6.34307
     2013.51129         3.64279         6.29577
     2013.51403         2.20995         6.31351
     2013.51676        -5.16788         6.53227
     2013.51950        -1.19371         6.29340
     2013.52224         3.98346         6.32060
     2013.52498        10.35563         6.53937
     2013.52772         5.37879         6.33479
     2013.53045        -3.04604         6.36435
     2013.53313        -1.87687         6.39510
     2013.53593        -2.10070         6.41757
     2013.53867        -2.99753         6.26620
     2013.54141         4.38363         6.52518
     2013.54414         2.11180         6.37500
     2013.54688        -4.91403         6.35253
     2013.54962         3.70114         6.32888
     2013.55236         5.42931         6.36554
     2013.55509         3.38347         6.44595
     2013.55783         3.81464         6.34070
     2013.56057         0.19381         6.58312
     2013.56331        -0.70902         6.44240
     2013.56605        -1.87185         6.33479
     2013.56867        -1.03469         6.79952
     2013.57152         0.89248         6.40338
     2013.57426         5.56765         6.34780
     2013.57700         3.12682         6.34189
     2013.57974         0.23799         6.34780
     2013.58247         3.22415         6.59376
     2013.58521         2.76932         6.32533
     2013.58795         3.50749         6.51217
     2013.59069         2.99766         6.39510
     2013.59342         6.98482         6.43412
     2013.59616         2.92599         6.43176
     2013.59890         6.17716         6.33479
     2013.60164         3.91233         6.41639
     2013.60438         3.97150         6.44595
     2013.60711        10.03966         9.59738
     2013.60985         6.74183         6.49207
     2013.61259         2.34800         6.48261
     2013.61533         8.81717         6.49088
     2013.61807         8.55034         6.49325
     2013.62080         6.05650         6.43767
     2013.62354         7.55267         6.38682
     2013.62616         7.20983         6.71083
     2013.62902         5.50801         6.31114
     2013.63175         7.85318         6.31232
     2013.63449         5.43834         6.54173
     2013.63723         5.12251         6.28512
     2013.63997         7.22068         6.38209
     2013.64271         7.10185         6.37500
     2013.64533         6.15001         6.54410
     2013.64818        12.03318         6.38327
     2013.65092        10.53535         6.35135
     2013.65366         4.50952         6.45304
     2013.65639         9.27569         6.33597
     2013.65913        14.62886         6.57130
     2013.66187         5.60702         6.49680
     2013.66461         4.28519         6.32297
     2013.66735         9.70036         6.32888
     2013.67008         9.22053         6.39392
     2013.67282        15.68870         6.72266
     2013.67556        11.45586         6.81253
     2013.67830        12.52003         6.38800
     2013.68104        10.39620         6.73330
     2013.68377         4.20737         6.26857
     2013.68651         3.91454         6.32770
     2013.68925         2.14370         6.31351
     2013.69199         6.02587         6.38446
     2013.69472         9.85004         6.41165
     2013.69746         3.15321         6.27803
     2013.69921        22.01531        11.83354
     2013.70845         8.89188         8.91743
     2013.73153       -15.89270        23.48851
     2013.73305        13.82439         6.28039
     2013.73579         6.55956         6.29813
     2013.73853         5.23973         6.28985
     2013.74127         8.19789         6.34898
     2013.74401         9.42706         6.50862
     2013.74674        13.82823         6.45659
     2013.74948         6.35840         6.29458
     2013.75222        -0.84943         6.40338
     2013.75496         2.41373         6.45068
     2013.75770        -2.18110         6.86811
     2013.76043         0.08807         6.37618
     2013.76317        -1.64376         6.30759
     2013.76591        15.22441         6.48024
     2013.76865         6.45457         6.35844
     2013.77138         4.71074         6.39865
     2013.77412         6.83591         6.42466
     2013.77686         0.10208         6.41047
     2013.77960         2.54725         6.35016
     2013.78182        -0.41762         7.77865
     2013.78621       -11.36835        16.47022
     2013.78781        -9.47125         6.34543
     2013.79058         2.95292         6.45777
     2013.79329         3.83609         6.39983
     2013.79603         1.25725         6.35726
     2013.79876        -1.75758         6.29813
     2013.80150        -0.54541         6.53346
     2013.80424        -0.14824         6.37263
     2013.80698        -0.64907         6.32178
     2013.80971         1.47409         6.41047
     2013.81245         4.65926         6.32060
     2013.81519        -0.95857         6.28985
     2013.81793        -2.83840         6.28867
     2013.82067         7.88776         6.49916
     2013.82340         6.05893         6.35489
     2013.82569         7.12907         7.84606
     2013.82888         8.69027         6.31232
     2013.83162         1.33644         6.28394
     2013.83436        -1.78640         6.47433
     2013.83709        13.00777         6.42821
     2013.83983         7.47594         6.68009
     2013.84257         4.72511         6.42821
     2013.84531         0.87528         6.35489
     2013.84804        -2.64556         6.26502
     2013.85078         1.66561         6.36081
     2013.85352         4.55378         6.26975
     2013.85626        -0.69005         6.43531
     2013.85900        -1.91388         6.26975
     2013.86173         1.84528         6.28985
     2013.86447        -5.64455         6.34662
     2013.86721        -2.60938         6.25793
     2013.86995         0.27479         6.30050
     2013.87269         4.19796         6.31824
     2013.87542        13.11812         6.29104
     2013.87816         7.40229         6.27093
     2013.88090         5.92046         6.34070
     2013.88364         6.09863         6.85510
     2013.88637         3.99380         6.29577
     2013.88911        -3.20204         6.30641
     2013.89185       -10.11387         6.25674
     2013.89459        -6.21970         6.30878
     2013.89733        -1.76653         6.31469
     2013.90006        -4.02436         6.35489
     2013.90280        -4.16920         6.36908
     2013.90554         0.28797         6.30405
     2013.90828         0.22414         6.25793
     2013.91102        -5.70169         6.30286
     2013.91375        -4.87152         6.29104
     2013.91649         3.76564         6.30523
     2013.91923        -3.75919         6.38800
     2013.92197        -3.07302         6.36554
     2013.92470         0.75315         6.29577
     2013.92744        -1.02569         7.37305
     2013.93007         1.94448         6.67891
     2013.93663        -0.43812        11.02469
     2013.93839        -1.23701         6.27093
     2013.94113        -3.74185         6.29458
     2013.94301         0.29627        10.54222
     2013.94661         1.83349         6.37381
     2013.94935        -0.24434         6.24137
     2013.95208        -3.32817         6.28039
     2013.95482         9.67299        15.10558
     2013.95756         3.11716         6.30286
     2013.96030         1.81033         6.30996
     2013.96303         2.00750         6.24610
     2013.96577         5.05067         6.33124
     2013.96851         3.19883         6.31587
     2013.97125        -2.58500         6.28985
     2013.97399        -0.13583         6.29695
     2013.97672         0.39234         6.29695
     2013.97946        -4.10249         6.26266
     2013.98220        -5.24433         6.28985
     2013.98494         0.80584         6.29104
     2013.98767       -10.10699         6.28985
     2013.99041        -8.29982         6.30050
     2013.99315        -9.79265         6.28276
     2013.99589        -9.21249         6.31351
     2013.99863        -5.98432         6.36435
     2014.00410        -1.51098         6.32060
     2014.00684        -3.62181         6.38327
     2014.00958         1.41635         6.38091
     2014.01232        -5.86748         6.46842
     2014.01505        -4.87131         6.45423
     2014.01779        -2.70114         6.46487
     2014.02053        -2.29497         6.31351
     2014.02327        -0.99381         6.51572
     2014.02600         1.12936         6.51572
     2014.02874         6.99953         6.37381
     2014.03148        15.39270         6.37381
     2014.03422        -4.70713         6.31824
     2014.03696        -5.01797         6.38327
     2014.03969        -2.55980         6.41402
     2014.04243        -3.66263         6.48379
     2014.04517         0.70754         6.61860
     2014.04791        -1.61930         6.29577
     2014.05065        -1.86113         6.29458
     2014.05338        -4.27996         6.31114
     2014.05612        -6.79179         6.45304
     2014.05886        -4.09162         6.29340
     2014.06160        -4.22646         6.30523
     2014.06433        -2.95529         6.84091
     2014.06707        -1.01312         6.52045
     2014.06981        -0.86095         6.38209
     2014.07255        -3.49078         6.28749
     2014.07529        -4.69262         6.31942
     2014.07802        -3.40545         6.30878
     2014.08076         2.45372         6.38091
     2014.08350        -0.71211         6.28276
     2014.08624        -3.60094         6.38682
     2014.09017        16.00230        26.13264
     2014.09171        -4.26561         6.58194
     2014.09445        -4.70244         6.29458
     2014.09718        -8.41627         6.45423
     2014.09995         0.35490         6.56538
     2014.10266        -0.45994         6.50034
     2014.10543         4.44323         6.35962
     2014.10814         0.06940         6.30168
     2014.11088         2.60657         6.41875
     2014.11362         0.63374         6.37027
     2014.11635         5.05990         6.53937
     2014.11910         5.21107         6.37027
     2014.12183        -4.14076         6.41047
     2014.12457         0.78541         6.52636
     2014.12731        10.14258         6.26384
     2014.13004        11.33874         6.43531
     2014.13278         2.65891         6.54765
     2014.13552         3.58208         6.55711
     2014.13826         1.13225         7.35886
     2014.14099         4.32442         6.34898
     2014.14373        -1.13142         6.35962
     2014.14647        -2.92325         6.44831
     2014.14921        -2.76608         6.38091
     2014.15195        -6.49991         6.36199
     2014.15468        -2.27375         6.43412
     2014.15742         3.11642         6.43412
     2014.16016        -2.24141         6.63870
     2014.16290        -1.45224         6.49916
     2014.16564        -2.91507         6.52754
     2014.16837        -5.99491         6.53700
     2014.17111        -2.24474         6.58076
     2014.17385         4.34243         6.59495
     2014.17659         4.12360         6.48734
     2014.17932        -0.19223         6.73330
     2014.18206         1.22693         6.58312
     2014.18480        -0.00290         6.41520
     2014.18754        -0.01173         7.45110
     2014.19028        -3.42256         6.67418
     2014.19301        -2.51239         6.37381
     2014.19575        -3.38023         6.41520
     2014.19849         1.65094         6.42703
     2014.20123        -5.06689         6.47788
     2014.20397        -6.12272         6.40338
     2014.20670        -2.00555         6.46132
     2014.20944         1.31561         6.44713
     2014.21218         0.49978         6.45423
     2014.21492         1.00895         6.66117
     2014.21765        -7.61288         6.41284
     2014.22039        -3.77171         9.63049
     2014.22307        -1.91355         6.59849
     2014.22588        -3.49238         6.68364
     2014.22861         2.36079         6.39155
     2014.23134         2.54596         6.57484
     2014.23408         0.79613         6.38209
     2014.23682        -2.61271         6.36554
     2014.23956        -6.24754         6.54055
     2014.24227        -4.22637         6.69310
     2014.24578       -11.41116        10.45116
     2014.24787        -1.40403         7.04194
     2014.25051        -3.92287         6.41639
     2014.25325        -5.63670         6.35608
     2014.25598        -1.14453         6.60086
     2014.25872        -1.25236         6.43885
     2014.26146        -1.85320         6.58549
     2014.26420        -6.89403         6.39865
     2014.26694        -7.25686         6.37027
     2014.26967        -4.57269         6.48024
     2014.27241        -1.74152         6.55356
     2014.27455         1.74361        10.09049
     2014.28084        -5.92801         6.96626
     2014.28336        -5.94985         6.37500
     2014.28610         0.24132         6.51690
     2014.28884        -3.49652         6.70847
     2014.29158        -6.91535         6.44122
     2014.29431         0.06082         6.40338
     2014.29705        -4.64701         6.35726
     2014.29979        -6.38584         6.46014
     2014.30253        -2.12568         6.43058
     2014.30527        -0.74451         6.59731
     2014.30800        -4.55034         6.38327
     2014.31074        -3.23517         6.45423
     2014.31348        -2.10000         6.49798
     2014.31622        -3.48984         8.63835
     2014.31895        -0.79667         6.47551
     2014.32169       -11.83350         6.58076
     2014.32443       -13.61733         6.61623
     2014.32717       -16.15416         6.58312
     2014.32991        -5.64800         6.44240
     2014.33264        -2.72083         6.41757
     2014.33538        -7.57266         6.47906
     2014.33812        -1.29549         6.50389
     2014.34086        -4.91232         6.36435
     2014.34360        -8.08816         6.42230
     2014.34633       -12.45299         6.40692
     2014.34907        -5.11082         6.60322
     2014.35181        -1.95165         6.62333
     2014.35455        -3.66148         6.38209
     2014.35728        -8.89732         6.41284
     2014.36002       -12.69815         6.38446
     2014.36276        -9.21098         6.37618
     2014.36550        -9.27081         6.44713
     2014.36824        -8.59064         6.51453
     2014.37097        -6.14748         6.48734
     2014.37371        -6.38231         6.42939
     2014.37645        -7.99114         6.38091
     2014.37919        -2.09697         6.48142
     2014.38193        -8.50081         6.52873
     2014.38466        -4.61064         6.49443
     2014.38740        -6.76747         6.47196
     2014.39014        -4.32230         6.47196
     2014.39288        -5.46513         6.46842
     2014.39561        -3.02797         6.46487
     2014.39835        -9.48880         6.79598
     2014.40109        -6.90763         6.52518
     2014.40383        -8.62446         6.51690
     2014.40657        -5.81729         6.51808
     2014.40930        -9.30513         6.45541
     2014.41204       -13.27596         6.50744
     2014.41478        -5.84479         6.46132
     2014.41752        -2.61462         6.51572
     2014.41915        11.17548        18.56684
     2014.43796       -19.96437        49.37518
     2014.43942        -4.56028         6.39865
     2014.44216        -6.92011         6.39392
     2014.44490        -5.92994         6.59140
     2014.44763        -1.41677         6.54883
     2014.45037        -9.92361         6.40574
     2014.45311        -1.49544         6.48261
     2014.45585        -0.69927         6.39510
     2014.45859        -3.50810         6.39628
     2014.46132        -9.58393         6.48024
     2014.46406        -4.82177         6.50271
     2014.46680        -7.85560         6.47906
     2014.46954        -6.04343         6.42112
     2014.47227        -6.61526         6.44240
     2014.47501        -4.94209         6.43531
     2014.47775        -6.70293         7.02893
     2014.48049        -6.16776         6.46132
     2014.48323        -2.15359         6.60795
     2014.48596         4.54558         6.51217
     2014.48870        -3.34126         6.53227
     2014.49144         4.28491         6.32888
     2014.49418        -1.13192         6.31232
     2014.49692        -3.66275         6.36199
     2014.49965        -8.46658         6.40456
     2014.50239        -4.57742         6.64816
     2014.50513        -1.32625         6.69783
     2014.50787         0.38992         7.02420
     2014.51060        -5.66091         6.37145
     2014.51334        -2.35874         6.48497
     2014.51608         6.75542         6.40692
     2014.51882        -1.77341         6.41284
     2014.52156         0.21276         6.46723
     2014.52429         1.84493         6.45659
     2014.52703         5.51310         6.45659
     2014.52977        -5.77874         6.43767
     2014.53251         0.48543         6.56775
     2014.53525         4.51660         6.38091
     2014.53798         4.43577         6.34189
     2014.54072         1.28794         6.55711
     2014.54346         2.00210         6.54173
     2014.54620        -1.14373         6.52163
     2014.54893         6.39344         6.41284
     2014.55167         2.98061         6.41875
     2014.55441         4.81778         6.45777
     2014.55715        -3.11306         6.65289
     2014.55989         0.67311         6.73921
     2014.56262         5.25928         6.41402
     2014.56536        -3.00255         6.42821
     2014.56810         0.53662         6.40456
     2014.57084        -5.41722         6.50980
     2014.57357        -1.14105         6.55474
     2014.57631        -9.61788         6.50862
     2014.57905        -2.41171         6.38564
     2014.58179         1.49546         6.39273
     2014.58445         0.60362         6.64934
     2014.58725        -1.07721         8.53547
     2014.59084        -0.15699        10.75152
     2014.59274         1.33213         6.50862
     2014.59548         2.69829         6.52636
     2014.59822         6.16946         6.51572
     2014.60095         4.36963         6.54528
     2014.60369        -1.11920         6.52518
     2014.60643        -5.83103         6.47078
     2014.60917        -5.92687         6.49207
     2014.61190        -3.59170         6.66590
     2014.61464         8.94047         6.53582
     2014.61738         1.71964         6.69310
     2014.62012         4.84881         6.54765
     2014.62286         4.35197         6.57366
     2014.62559         0.30014         6.44595
     2014.62833         5.83431         6.47669
     2014.63107        13.47548         6.48261
     2014.63381        11.47965         6.61741
     2014.63655        16.74481         6.51926
     2014.63928         6.25498         6.57484
     2014.64202         8.59015         6.49443
     2014.64476         5.11832         6.43176
     2014.64750         1.56349         6.41047
     2014.65023         3.98465         6.33597
     2014.65297         8.01982         6.40456
     2014.65571         7.89499         6.49325
     2014.65845        14.40816         6.41402
     2014.66119        13.21033         6.42585
     2014.66392        14.78149         6.45541
     2014.66666        12.61466         6.34780
     2014.66940        12.80483         6.41875
     2014.67214         5.84900         6.44713
     2014.67488        -3.60183         6.45541
     2014.67761         3.98933         6.41757
     2014.68035         2.80150         6.41520
     2014.68309         3.72867         6.40219
     2014.68583         4.32684         6.44831
     2014.68856         9.97401         6.41402
     2014.69130        -2.55883         6.42348
     2014.69404         1.10334         6.38091
     2014.69678        -0.89649         6.34662
     2014.69952         6.38068         6.38327
     2014.70225         3.78785         6.37854
     2014.70499         3.79901         6.34425
     2014.70773         8.27318         6.41639
     2014.71047         8.93435         6.34307
     2014.71321         9.67452         6.26975
     2014.71594         4.33768         6.47315
     2014.71868         4.74685         6.48615
     2014.72142         3.69302         6.37145
     2014.72416         6.70919         6.39155
     2014.72689         4.80236         6.44713
     2014.72963         4.56652         6.66117
     2014.73237        12.12569         7.84251
     2014.73511         4.76286         6.37973
     2014.73785        -0.71597         6.40929
     2014.74058         2.42020         6.70374
     2014.74332         4.10236         6.54528
     2014.74690        14.77758        12.01328
     2014.74880         2.88470         6.46723
     2014.75154         5.26487         6.70137
     2014.75427         3.96804         6.46842
     2014.75701         2.39520         6.43767
     2014.75975         1.06137         9.43419
     2014.76249         1.23854         6.48497
     2014.76522         2.53471         6.50980
     2014.76791         3.31087         6.61387
     2014.77002         7.98800         8.52838
     2014.77344         4.96421         6.49207
     2014.77618        10.87438         6.42348
     2014.77891        10.07355         6.37027
     2014.78165        10.12472         6.34543
     2014.78439         6.12588         6.42112
     2014.78713        12.58405         6.43531
     2014.78987        -1.47178         6.35489
     2014.79260         6.40439         6.34898
     2014.79534         6.74256         6.36672
     2014.79808         8.00672         6.57839
     2014.80082         6.78789         6.42585
     2014.80355         8.50306         6.60795
     2014.80629         3.54823         6.60322
     2014.80903         6.67240         6.56065
     2014.81177         6.54756         6.33597
     2014.81451        10.16773         6.32533
     2014.81724        11.73490         6.40692
     2014.81998         7.42207         6.39746
     2014.82272         9.00923         6.60914
     2014.82546         5.28640         6.45659
     2014.82820        -0.07543         6.27448
     2014.83093         4.81974         6.40692
     2014.83367         6.52091         6.43885
     2014.83641         5.19307         6.49088
     2014.83915         2.47124         6.68482
     2014.84188        16.08541         6.58076
     2014.84462         2.28558         6.57721
     2014.84736         2.71375         6.69783
     2014.85010         4.09091         6.39273
     2014.85284         4.22608         6.45896
     2014.85557         5.61425         6.40811
     2014.85831         4.45842         6.50153
     2014.86105        -1.07441         6.42230
     2014.86379        -3.70125         6.41993
     2014.86653        -0.46808         6.43885
     2014.86926        -2.62191         6.38446
     2014.87200        -0.17474         6.41639
     2014.87474        -6.17057         6.38682
     2014.87748        -3.08341         6.43058
     2014.88021         0.99576         6.49680
     2014.88295         3.08093         6.38800
     2014.88569        -1.10290         6.62569
     2014.88843         7.51827         6.71320
     2014.89117        10.94043         6.98045
     2014.89390         2.62860         6.52754
     2014.89664        10.03777         6.50034
     2014.89938         0.93694         6.56420
     2014.90169        -4.99092         8.13105
     2014.90549         4.59831         8.98956
     2014.90759         0.38844         7.12590
     2014.91033         4.74461        13.06336
     2014.91307         5.03278         6.31942
     2014.91581         2.92195         6.27803
     2014.91854         4.17711         6.31351
     2014.92128        -0.46172         6.35489
     2014.92402         0.27745         6.33124
     2014.92676        -2.25138         6.34425
     2014.92950        -2.03021         7.19922
     2014.93223        -5.83905         6.33716
     2014.93497        -9.67788         6.33479
     2014.93771         0.60229         6.48142
     2014.94045        -3.76454         6.35135
     2014.94318        -1.06838         6.59495
     2014.94592         0.02979         6.47669
     2014.94866        -6.10604         6.32297
     2014.95140        -6.80987         6.26502
     2014.95414        -2.60170         6.26147
     2014.95687         2.93246         6.38091
     2014.95961         4.37963         6.37500
     2014.96235         1.23280         6.29695
     2014.96509         2.76497         6.47788
     2014.96783        -4.95986         6.29104
     2014.97056         0.20930         6.35135
     2014.97330        -9.18753         6.33124
     2014.97604       -10.27536         6.35726
     2014.97878        -4.60219         6.38327
     2014.98151         1.92298         6.49207
     2014.98425        -3.50286         6.38209
     2014.98699         0.91831         6.28276
     2014.98973        -3.80852         6.30405
     2014.99159        -7.90041        10.30689
     2015.24829         4.39534        17.62673
     2015.24982        -4.83756         6.24019
     2015.25256        -3.23940         6.30405
     2015.25530        -2.25323         6.28276
     2015.25804        -5.70406         6.33479
     2015.26078         2.64611         6.30405
     2015.26351        -3.73772         6.28158
     2015.26625        -0.26056         6.33716
     2015.26899        -1.83839         6.31705
     2015.27173         2.62178         6.49680
     2015.27446         7.75095         6.50153
     2015.27720         0.63311         6.29577
     2015.27994        -2.55372         6.30878
     2015.28268        -2.24855         6.35962
     2015.28542        -3.70938         6.45777
     2015.28815        -6.39421         6.55474
     2015.29089        -1.90205         6.36554
     2015.29363        -2.12588         6.49207
     2015.29637        -1.39171         6.46605
     2015.29911         1.31046         6.36317
     2015.30184        -0.28037         6.35962
     2015.30458         0.21779         6.33716
     2015.30732        -0.28904         6.17751
     2015.31006         0.75613         6.29577
     2015.31279        -1.30370         6.16687
     2015.31553        -7.41353         6.15268
     2015.31827        -7.38137         6.17988
     2015.32101        -3.79920         6.16214
     2015.32375        -7.35703         6.21063
     2015.32648        -2.44386         6.33243
     2015.32922        -1.60669         6.33006
     2015.33196        -0.17753         6.19407
     2015.33470        -1.79336         6.19525
     2015.33744        -2.29719         6.15032
     2015.34017        -7.01802         6.29458
     2015.34289        -5.59686         6.20708
     2015.34566        -3.40869         6.26975
     2015.34839        -1.07952         6.17278
     2015.35112        -2.80035         6.18106
     2015.35386         2.31782         6.17633
     2015.35660         2.66799         6.29458
     2015.35934        -1.46385         6.37145
     2015.36208        -2.22568         6.79243
     2015.36481        -3.44151         6.17278
     2015.36755        -3.31434         6.24137
     2015.37029         0.56183         6.19998
     2015.37303        -8.25901         6.21063
     2015.37577        -6.64484         6.24965
     2015.37850        -6.49667         6.37500
     2015.38124        -5.32650         6.23546
     2015.38398        -4.58234         6.19052
     2015.38672        -1.78617         6.22245
     2015.38945        -6.14600         6.19762
     2015.39219        -3.93183         6.24137
     2015.39493        -6.99566         6.22718
     2015.39767        -1.60350         6.39273
     2015.40041        -5.87433         7.78575
     2015.40314        -1.41416         6.44950
     2015.40588        -8.05499         6.39628
     2015.40862         1.70218         6.31824
     2015.41136         0.36834         6.37263
     2015.41410        -1.86049         6.22245
     2015.41683        -1.40432         6.27212
     2015.41957        -4.49815         6.21063
     2015.42231        -1.14498         6.30286
     2015.42505        -7.60982         6.38919
     2015.42778        -0.68865         6.17870
     2015.43052         1.04652         6.18343
     2015.43326        -8.32731         6.29577
     2015.43600        -1.66414         6.24847
     2015.43874         2.95402         6.24492
     2015.44147         2.60719         6.55474
     2015.44421        -2.94664         6.30996
     2015.44695        -4.11647         6.19525
     2015.44969        -4.73530         6.21181
     2015.45243        -7.48414         6.37736
     2015.45516        -2.14397         6.19052
     2015.45790        -1.58180         6.41639
     2015.46064         4.37337         6.36199
     2015.46330         5.55053         6.50862
     2015.46617         1.02771         6.28749
     2015.46885         3.15487         6.23782
     2015.47159         2.58404         6.18698
     2015.47433         0.79321         6.48734
     2015.47707        -0.65662         6.29458
     2015.47980         2.31554         6.39392
     2015.48254        -1.50829         6.53227
     2015.48528        -0.37612         6.24019
     2015.48802        -3.66595         6.25320
     2015.49076         3.50721         6.29932
     2015.49349         1.96738         6.53227
     2015.49623         6.68255         6.72502
     2015.49897        -4.40828         6.31469
     2015.50171         6.48189         6.21654
     2015.50444         7.39905         6.20944
     2015.50718        -1.66378         6.27448
     2015.50992         5.14039         6.18816
     2015.51266         1.89456         6.19052
     2015.51540        -2.30927         6.22363
     2015.51813         6.04689         6.40811
     2015.52087        12.31506         6.35135
     2015.52361         5.41923         6.43885
     2015.52635         2.10240         6.22600
     2015.52908         6.55257         6.33006
     2015.53180         6.36573         6.29813
     2015.53456         4.81690         6.25438
     2015.53730        10.48207         6.40811
     2015.54004         5.40024         6.39273
     2015.54277         6.19541         6.66117
     2015.54551         7.64857         6.36908
     2015.54825        -0.90426         6.59849
     2015.55099         7.94191         6.45541
     2015.55373         7.10808         6.40219
     2015.55646        11.76925         6.38564
     2015.55920         8.23941         6.29458
     2015.56194         6.53758         6.43885
     2015.56468        10.60675         6.39865
     2015.56741         2.55092         6.54883
     2015.57015         3.82209         6.68482
     2015.57289         2.66725         6.67772
     2015.57563         4.37342         6.44477
     2015.57837         7.04559         6.51099
     2015.58110         8.65076         6.55711
     2015.58384         9.54593         6.60204
     2015.58658        10.94409         6.82672
     2015.58932         3.39826         6.64106
     2015.59206         8.90843         6.56538
     2015.59479        11.45760         6.56657
     2015.59753         6.34277         6.53700
     2015.60027         5.95293         6.73330
     2015.60301         9.40710         6.89294
     2015.60574         4.00627         6.68600
     2015.60848         6.38244         6.78060
     2015.61122         9.75860         6.56184
     2015.61396        11.69177         6.56065
     2015.61670         7.52294         6.60086
     2015.61943         7.30511         6.60795
     2015.62217         6.14728         6.45423
     2015.62491        15.92844         6.37381
     2015.62765        13.01761         6.40338
     2015.63039         9.76378         6.58312
     2015.63312        12.76795         6.42230
     2015.63586        10.65812         6.48261
     2015.63860         7.37528         6.40811
     2015.64134         5.86445         6.32651
     2015.64407        10.39262         6.36435
     2015.64681         5.19179         6.47788
     2015.64955         9.72396         6.29813
     2015.65229         8.08112         6.44950
     2015.65503        17.01029         6.33597
     2015.65776         8.63946         6.42585
     2015.66050        19.24663         8.54848
     2015.66324        14.39480         6.37263
     2015.66598        22.75296         6.54410
     2015.66872        20.67413         6.54410
     2015.67145         9.34830         6.34307
     2015.67419         8.84747         6.32178
     2015.67693        12.91364         6.35253
     2015.67967         7.93380         6.39746
     2015.68240         3.26797         6.36199
     2015.68514         3.95214         6.39628
     2015.68788        11.61131         6.51690
     2015.69062         7.10248         7.14127
     2015.69336         6.51364         6.61741
     2015.69609         9.31481         6.44831
     2015.69883         8.13098         6.56657
     2015.70157        18.23415         6.52163
     2015.70431        12.07732         6.34780
     2015.70705         9.82448         6.36317
     2015.70978        14.69365         6.33361
     2015.71252        10.30482         6.37145
     2015.71526        11.75199         6.33952
     2015.71800        18.30515         6.39983
     2015.72073        15.74032         6.53819
     2015.72347         8.18549         6.36554
     2015.72621         4.40766         6.35608
     2015.72895         3.28883         6.39628
     2015.73169         8.10399         6.38800
     2015.73442         9.76516         6.50862
     2015.73713        10.21033         6.48497
     2015.73992        12.59750         6.52873
     2015.74264         6.67067         6.52518
     2015.74538         8.89983         6.64698
     2015.74811         1.10100         6.68009
     2015.75085         2.39317         6.42348
     2015.75359         2.79434         6.33716
     2015.75633         9.65251         6.39273
     2015.75906         8.88267         6.36790
     2015.76180         1.10084         6.43531
     2015.76454         5.06001         6.38919
     2015.76728         5.25518         6.45896
     2015.77002        10.33535         6.54410
     2015.77275        11.89751         6.43412
     2015.77549        12.57568         6.43412
     2015.77823        14.42985         6.39983
     2015.78097         8.32202         6.41639
     2015.78371         9.53019         6.35726
     2015.78644         7.30335         6.49207
     2015.78918         5.83452         8.74596
     2015.79192        10.65869         6.33952
     2015.79466        12.44786         6.49443
     2015.79739         9.41703         6.50271
     2015.80013         2.41219         6.64343
     2015.80287         3.19336         6.45896
     2015.80561         5.24553         6.36081
     2015.80835         4.45270         6.39983
     2015.81108         2.22487         6.43058
     2015.81382         4.79503         6.41639
     2015.81656         3.22620         6.51572
     2015.81930         1.11837         6.37854
     2015.82203         5.91454         6.39510
     2015.82477         8.46870         6.44358
     2015.82751        13.66687         6.56893
     2015.83025        12.83504         6.44358
     2015.83299         5.67221         6.41639
     2015.83572         5.50638         6.38682
     2015.83846         3.69054         6.56420
     2015.84120         5.43771         6.54646
     2015.84394         3.39188         6.54646
     2015.84668        -0.96495         6.54528
     2015.84941         9.10722         6.53464
     2015.85215         6.75238         6.53700
     2015.85489        11.28255         6.59258
     2015.85763         6.77672         6.54173
     2015.86036         5.66689         6.74040
     2015.86310         3.46206         6.50389
     2015.86584         8.68122         6.60677
     2015.86858         2.41539         6.56420
     2015.87132         4.80856         6.52281
     2015.87405         9.55273         6.72502
     2015.87679         9.94990         6.56065
     2015.87953         7.42806         6.60086
     2015.88227         6.06123         6.59613
     2015.88501        -4.19460         7.06441
     2015.88774        -2.78743         6.47196
     2015.89048         5.33074         6.49443
     2015.89322         4.57790         6.53582
     2015.89596         0.54007         6.50389
     2015.89869         4.26124         6.47788
     2015.90143        -2.96459         6.43412
     2015.90417        -1.51742         6.49798
     2015.90691         0.25574         6.50034
     2015.90965         1.82191         6.80662
     2015.91238         2.35008         6.50034
     2015.91512         1.94625         6.53819
     2015.91786         3.01442         6.55711
     2015.92060         2.76758         6.54646
     2015.92334         4.08075         6.50862
     2015.92607        -3.85008         6.51217
     2015.92881        -1.58491         6.47551
     2015.93155         6.66126         6.78297
     2015.93429         7.12742         6.83736
     2015.93702         5.96759         6.76050
     2015.93976        10.40676         6.79479
     2015.94250         6.14493         6.73921
     2015.94524        -3.55491         6.59849
     2015.94798         6.07926         6.64698
     2015.95071         6.85943         6.55001
     2015.95345        -0.98040         6.47906
     2015.95619         3.00477         6.55001
     2015.95893        -0.20207         6.67299
     2015.96167         0.86810         6.66117
     2015.96440         4.52527         6.48024
     2015.96714         3.75044         6.52754
     2015.96988         6.49561         6.48615
     2015.97262         7.13477         6.41284
     2015.97535         4.93594         6.43294
     2015.97809         1.55411         6.49680
     2015.98083        -1.23872         6.49088
     2015.98357        -9.89855         6.48497
     2015.98631        -8.69839         6.70374
     2015.98904        -6.24222         6.46487
     2015.99178        -4.05205         6.47551
     2015.99452        -4.41988         6.45423
     2015.99726        -4.79671         6.51572
     2016.00000        -6.56655         6.50626
     2016.00273        -6.18238         6.51099
     2016.00547        -3.60821         6.47669
     2016.00821        -8.92904         6.52163
     2016.01095       -19.65387         6.50153
     2016.01368        -9.44371         6.49798
     2016.01642        -1.85454         6.66472
     2016.01916        -0.20137         6.80544
     2016.02190        -1.19820         6.65999
     2016.02464        -2.05803         6.44240
     2016.02737        -5.67887         6.60441
     2016.03011        -7.80870         6.47551
     2016.03285        -2.26653         6.42585
     2016.03559         0.79164         6.41047
     2016.03833        -0.62319         6.63752
     2016.04106         2.57197         6.39273
     2016.04380         0.10414         7.69470
     2016.04654         7.53431        10.63209
     2016.04837         5.30942        11.20088
     2016.05303        -5.44129        12.84578
     2016.05475        -4.02119         6.40338
     2016.05749        -2.53302         7.37896
     2016.06023        -4.63885         6.41165
     2016.06184       -23.34875        15.50528
     2016.06669        -4.51445        12.36449
     2016.06844        -4.63135         6.40101
     2016.07118        -6.78618         6.55238
     2016.07392        -1.71401         6.55119
     2016.07549         3.34508        17.09105
     2016.08038         3.53839        12.27817
     2016.08213        -0.33251         6.51690
     2016.08487        -1.40534         6.35135
     2016.08761        -6.77917         8.12040
     2016.09034        -7.11400         6.76878
     2016.09308        -8.11784         6.59140
     2016.09516       -13.39071         9.05342
     2016.09962       -21.20043        14.05905
     2016.10130       -12.76833         6.35135
     2016.10403       -12.75516         6.32297
     2016.10677       -10.61200         6.45423
     2016.10951        -7.76783         6.34307
     2016.11225        -9.90366         6.58549
     2016.11498        -6.55349         6.32178
     2016.11772        -7.92432         6.30286
     2016.12046        -5.56616         6.58785
     2016.12320        -2.65899         6.30641
     2016.12594        -4.40982         6.33243
     2016.12867         1.00935         6.30050
     2016.13141         7.21352         6.28158
     2016.13415        -0.61632         6.30050
     2016.13689        -7.36815         6.45659
     2016.13957        -3.37498         6.37618
     2016.14239       -13.63381         6.35608
     2016.14510       -11.73364         6.28985
     2016.14784       -12.31848         6.27566
     2016.15058        -9.39531         6.29577
     2016.15331        -4.71714         6.41047
     2016.15605        -7.26697         6.21536
     2016.15879        -7.31080         6.32888
     2016.16153        -8.40064         6.39628
     2016.16427        -5.90247         6.27685
     2016.16700        -9.28430         6.22482
     2016.16974        -1.15013         6.32533
     2016.17248        -6.30997         6.46487
     2016.17522        -5.25980         6.28276
     2016.17796        -0.13463         6.41047
     2016.18069         2.69254         6.39628
     2016.18343       -10.99329         6.61860
     2016.18617        -5.03813         6.28394
     2016.18891        -4.73096         6.24255
     2016.19164        -3.89779         6.21181
     2016.19438        -1.76162         6.26975
     2016.19712         6.33355         6.14086
     2016.19986         0.77871         6.45896
     2016.20260        -9.24912         6.39746
     2016.20533        -5.12595         6.59495
     2016.20807        -3.09978         6.45541
     2016.21081       -10.78961         6.35726
     2016.21341       -10.26145         6.67299
     2016.21642        -7.95727         6.89294
     2016.21902        -6.41011         6.15978
     2016.22176        -1.68494         6.13494
     2016.22450        -9.82877         6.27448
     2016.22724        -9.23961         6.33716
     2016.22997        -5.35144         6.17633
     2016.23271        -9.02627         6.21654
     2016.23545        -4.94110         6.14559
     2016.23819        -1.79293         6.17633
     2016.24093         0.95123         6.28512
     2016.24366        -5.50360         6.21890
     2016.24640        -4.80443         6.26620
     2016.24914        -4.88426         6.19289
     2016.25188        -0.55209         6.36908
     2016.25462        -2.40093         6.48024
     2016.25735        -9.38276         6.23309
     2016.26009        -8.87959         6.32060
     2016.26283       -12.36442         6.22009
     2016.26557       -10.58825         6.19998
     2016.26830        -9.65109         6.21299
     2016.27104        -7.27192         6.19052
     2016.27378        -1.92775         6.28158
     2016.27652        -4.63058         6.20117
     2016.27926        -4.02842         6.19880
     2016.28199        -5.37425         6.52518
     2016.28473        -1.36708         6.20944
     2016.28747       -11.71791         6.36554
     2016.29021       -14.10274         6.23191
     2016.29295        -9.54558         6.22363
     2016.29568       -10.61641         6.25083
     2016.29842        -6.61924         6.38682
     2016.30116        -7.11007         6.43176
     2016.30390       -10.58090         6.25438
     2016.30663        -6.16174         6.32770
     2016.30937        -5.12957         6.22955
     2016.31211        -7.33840         6.31114
     2016.31485        -4.19623         6.26857
     2016.31759        -5.32106         6.31942
     2016.32032        -5.46590         6.30523
     2016.32306       -12.09573         6.27921
     2016.32579        -8.85256         6.25674
     2016.32854        -5.24539         6.21536
     2016.33128        -9.44822         6.28039
     2016.33401        -6.02706         6.36081
     2016.33675       -11.95189         6.39037
     2016.33949        -9.65772         6.38327
     2016.34223        -5.71855         6.34662
     2016.34496        -4.20338         6.45541
     2016.34770        -0.02522         6.39865
     2016.35044         0.80795         6.59376
     2016.35318        -2.87688         6.26147
     2016.35592        -9.00871         6.25674
     2016.35865        -8.88354         6.24610
     2016.36139        -8.71238         6.27803
     2016.36413         2.94779         6.29577
     2016.36687        -2.69204         6.17751
     2016.36961         4.45413         6.18461
     2016.37234         6.86130         6.22127
     2016.37508         1.89746         6.35253
     2016.37782        -3.90837         6.35135
     2016.38056         4.53280         6.30759
     2016.38329        -0.59003         6.18224
     2016.38603        -2.17887         6.24255
     2016.38877         7.51230         6.20826
     2016.39151        -0.36953         6.27921
     2016.39425        -8.17036         6.37145
     2016.39698         2.25581         6.20708
     2016.39972         3.36597         6.22836
     2016.40246        -5.16386         6.31824
     2016.40520        -2.29769         6.23428
     2016.40794        -4.55852         6.28512
     2016.41067        -9.49235         6.29458
     2016.41341        -5.53719         6.21417
     2016.41615        -3.40302         6.19880
     2016.41889        -3.28785         6.24137
     2016.42162        -2.62968         6.29577
     2016.42436        -8.09151         6.26029
     2016.42699        -7.99435         6.41757
     2016.42972        -2.63919         6.83973
     2016.43267         2.15800         6.84209
     2016.43531         0.64316         6.39865
     2016.43805        -0.08867         6.34898
     2016.44079         1.78849         6.37854
     2016.44355        -4.89934         6.21417
     2016.44626        -4.82717         6.21890
     2016.44900        -0.12700         6.33124
     2016.45174         4.23717         6.37500
     2016.45448         1.37533         6.26147
     2016.45722         0.40350         6.25911
     2016.45995         0.94967         6.23073
     2016.46269        -0.85416         6.22363
     2016.46543        -6.12699         6.25438
     2016.46817        -0.86783         6.29104
     2016.47091         1.81834         6.24137
     2016.47364        -5.30349         6.27685
     2016.47638         4.23968         6.30878
     2016.47912         1.55185         6.33243
     2016.48186         0.61801         6.51572
     2016.48459        -8.26282         6.28631
     2016.48733        -9.06265         6.27566
     2016.49007        -0.74548         6.29340
     2016.49268        -1.11432         6.62924
     2016.49566         2.92186         6.55592
     2016.49828        -4.25598         6.44358
     2016.50102         1.65019         6.28749
     2016.50376         3.34636         6.35844
     2016.50650         3.83252         6.36554
     2016.50924         3.30169         6.24255
     2016.51197        -2.81914         6.41520
     2016.51471         0.43803         6.23901
     2016.51745         1.48920         6.40219
     2016.52019        -3.87964         6.30286
     2016.52292         1.69053         6.18106
     2016.52566         2.26470         6.15859
     2016.52840         1.37887         6.26384
     2016.53114        -5.33596         6.21299
     2016.53388        -1.13680         6.25556
     2016.53661        -0.57563         6.29813
     2016.53935         2.93154         6.20353
     2016.54209         2.32571         6.20471
     2016.54483         3.17488         6.35489
     2016.54757        -5.15196         6.29695
     2016.55030        -4.47579         6.52281
     2016.55304        -3.02062         6.27448
     2016.55578         0.71155         6.48142
     2016.55852         2.22372         6.22955
     2016.56125         3.27688         6.17042
     2016.56386         0.04404         6.43294
     2016.56673        12.16522         6.52281
     2016.56936         2.33938         6.90122
     2016.57214         5.49755         6.74986
     2016.57478         4.98871         6.94734
     2016.57772         3.08189         6.71675
     2016.58042         6.53806         6.29577
     2016.58316        -3.66577         6.26739
     2016.58590        -3.10460         6.53464
     2016.58863        -2.72744         6.30405
     2016.59137        -3.76927         6.35135
     2016.59401         4.39989         6.50034
     2016.59688         7.49907         6.30286
     2016.59958         5.61124         6.36199
     2016.60232         5.45340         6.25438
     2016.60506         4.83157         6.28276
     2016.60780         6.04774         6.17988
     2016.61054         3.33591         6.18224
     2016.61316         0.86707         6.48379
     2016.61590         0.69824         6.44004
     2016.61862         5.70740         6.62451
     2016.62137         3.08857         6.81608
     2016.62434         5.63275         6.68127
     2016.62696         7.73691         6.17515
     2016.62970         0.46108         6.37263
     2016.63244         0.79925         6.32415
     2016.63518         5.40942         6.14795
     2016.63791         7.46259         6.19644
     2016.64065         7.54575         6.36081
     2016.64339         8.13392         6.23309
     2016.64613         0.89309         6.26502
     2016.64887         2.73826         6.39037
     2016.65183         6.56944         6.90477
     2016.65434         1.64959         6.22482
     2016.65708         0.71076         6.15859
     2016.65982         0.26093         6.33952
     2016.66256         3.26210         6.17751
     2016.66529         6.58627         6.17397
     2016.66803         6.68343         6.18343
     2016.67077         6.79360         6.44950
     2016.67351         3.12077         6.17633
     2016.67625         9.01594         6.15978
     2016.67898         9.53711         6.15859
     2016.68172        15.17427         6.30286
     2016.68446         7.04744         6.45304
     2016.68720         3.99961         6.65762
     2016.68991         5.06178         6.32178
     2016.69541        10.03711         6.35489
     2016.69815        10.30828         6.18106
     2016.70089         3.95645         6.17042
     2016.70362         7.28262         6.33124
     2016.70636         6.73579         6.65526
     2016.70910         8.05895         6.57011
     2016.71184        14.66312         6.15741
     2016.71457         5.76429         6.22836
     2016.71731        15.98346         6.35489
     2016.72005         7.77062         6.17633
     2016.72279         8.69579         6.13376
     2016.72553         6.32096         6.28158
     2016.72826         4.88713         6.44477
     2016.73100         2.29130         6.15859
     2016.73374         4.51646         6.14559
     2016.73648         3.91663         6.21063
     2016.73921         6.33180         6.25438
     2016.74195         5.77197         6.15623
     2016.74469         4.53514         6.13376
     2016.74743         5.93830         6.27093
     2016.75017        15.26647         6.21654
     2016.75290         7.44264         6.15032
     2016.75564        13.96881         6.17278
     2016.75838        13.23698         6.16214
     2016.76112        11.93814         6.16096
     2016.76386         6.74031         6.11248
     2016.76659         9.22448         6.16451
     2016.76933        11.65565         6.18579
     2016.77207         9.15982         6.16924
     2016.77481         4.72598         6.14913
     2016.77754         4.62315         6.17160
     2016.78028         2.39132         6.13613
     2016.78302         4.49149         6.22718
     2016.78576         9.31666         6.21417
     2016.78850        19.58182         6.15268
     2016.79123        14.55699         6.21772
     2016.79397        10.98716         6.14204
     2016.79671         0.75333         6.20708
     2016.79945        -4.39150         6.18934
     2016.80219         0.18266         6.17042
     2016.80492         3.94083         6.16451
     2016.80766         5.74900         6.12667
     2016.81040        -0.28983         6.17515
     2016.81314        -1.22566         6.18698
     2016.81587         0.75950         6.18579
     2016.81861        -3.81233         6.14086
     2016.82135         0.35184         6.16569
     2016.82409         2.17501         6.16332
     2016.82683        -0.52982         6.19052
     2016.82956         5.46534         6.11721
     2016.83230         7.29251         6.19407
     2016.83504         2.63468         6.25793
     2016.83778         6.58785         6.20590
     2016.84052        -2.19899         6.22600
     2016.84325        -0.48382         6.20708
     2016.84599        -3.06965         6.19998
     2016.84873         4.36652         7.37778
     2016.85147         1.07569         6.33124
     2016.85420        -0.58715         6.17397
     2016.85694         0.81502         6.20471
     2016.85968        -7.80581         6.28276
     2016.86242        -8.93764         6.17160
     2016.86516         8.43853         6.25793
     2016.86789        -2.07931         6.24610
     2016.87063         4.42586         6.18579
     2016.87337         4.31303         6.21299
     2016.87611         1.21420         6.24847
     2016.87885         0.51537         6.23073
     2016.88158        -5.62347         6.24374
     2016.88432         1.59770         6.25674
     2016.88706         1.04487         6.19644
     2016.88980         6.19604         6.15268
     2016.89253         2.88721         6.23073
     2016.89527         1.42537         6.29104
     2016.89801        -0.64746         6.24492
     2016.90075        -4.40129         6.22718
     2016.90349         1.79088         6.32297
     2016.90622         7.88105         6.28394
     2016.90896         4.52121         6.36435
     2016.91170        -1.56262         6.20590
     2016.91444         2.37255         6.24610
     2016.91718        -1.45628         6.31469
     2016.91953        -9.13414         8.33562
     2016.92341         3.92410         8.92570
     2016.92539        -1.34278         6.22363
     2016.92813        -4.31961         6.21772
     2016.93086        -4.54844         6.22482
     2016.93360        -4.46327         6.17042
     2016.93570        -9.76115         8.84884
     2016.94243        -3.42573         8.19845
     2016.94455       -12.96960         6.37500
     2016.94729        -8.92044         6.27448
     2016.95003        -4.18227         7.71835
     2016.95383         1.08297        12.37277
     2016.95551        -2.27593         6.25793
     2016.95824        -2.44776         6.30759
     2016.96098        -1.23660         6.19171
     2016.96372        -6.70543         6.29340
     2016.96646         5.22274         6.28394
     2016.96885        -2.07411         7.42981
     2016.97296        -3.81386        12.01564
     2016.97467         5.85224         6.34070
     2016.97741        -0.46959         6.19171
     2016.98015       -10.34342         6.15032
     2016.98288        -1.31525         6.15978
     2016.98562        -0.01508         6.25320
     2016.98836         2.30408         6.20471
     2016.99108         2.28025         6.22600
     2016.99384        -0.22058         6.15741
     2016.99657         1.29459         6.13849
     2016.99931         1.12876         6.15032
     2017.00074       -32.62016       140.24165
     2017.00479       -11.22391         6.16569
     2017.00752       -11.51574         6.15268
     2017.01026        -7.56957         6.14086
     2017.01300         0.33160         6.35371
     2017.01574        -1.02224         6.14559
     2017.01848        -2.53007         6.16687
     2017.02121        -1.28990         6.15032
     2017.02395        -7.90373         6.14086
     2017.02669        -8.73256         6.21299
     2017.02943         1.86260         6.14086
     2017.03216        -5.22223         6.10538
     2017.03490        -6.55206         6.12785
     2017.03764        -8.06289         6.13258
     2017.04038        -7.05372         6.31942
     2017.04312        -6.18556         6.13494
     2017.04585         1.78061         6.51572
     2017.04859         6.07278         6.48142
     2017.05133        -6.54505         6.17870
     2017.05407         8.56611         6.13731
     2017.05681         7.16428         6.13731
     2017.05954        -3.32855         6.16451
     2017.06228        -2.91538         6.13731
     2017.06502        -3.70121         6.14204
     2017.06776        -4.28405         6.17042
     2017.07049        -5.17088         6.21772
     2017.07323       -10.29571         6.28394
     2017.07597       -11.53154         6.14913
     2017.07871        -6.10737         6.24610
     2017.08145        -4.33621         6.57484
     2017.08391        -8.27705         7.02539
     2017.08802       -20.52080        13.99046
     2017.08966        -8.71370         6.15505
     2017.09240        -4.30553         6.21890
     2017.09514        -6.29537         6.28039
     2017.09787        -3.96820         6.18461
     2017.10061        -0.80903         6.15386
     2017.10335        -4.91286         6.22718
     2017.10609        -5.33569         6.13140
     2017.10882        -7.38553         6.29458
     2017.11156        -5.47536         6.28158
     2017.11430        -8.52519         6.17042
     2017.11704       -15.90902         6.17042
     2017.11978       -12.66085         6.30641
     2017.12251        -9.92069         6.15741
     2017.12525        -6.60252         6.17278
     2017.12799         1.96365         6.19052
     2017.13073         0.47582         6.17870
     2017.13347        -4.07401         6.18343
     2017.13620        -0.34685         6.16214
     2017.13894        -3.21568         6.18816
     2017.14168        -5.39351         6.18461
     2017.14442        -8.16034         6.21536
     2017.14715        -7.67517         6.19525
     2017.14989        -7.36201         6.17397
     2017.15263        -2.81984         6.13613
     2017.15537        -0.34167         6.16569
     2017.15811         0.50350         6.33597
     2017.16084        -4.78333         6.15268
     2017.16358        -7.09017         6.20471
     2017.16632        -5.98000         6.17988
     2017.16906         0.43917         6.20353
     2017.17180        -3.46966         6.18698
     2017.17453        -1.54350         6.18934
     2017.17727        -2.11633         6.25083
     2017.18001        -5.19616         6.22836
     2017.18275        -7.46199         6.18224
     2017.18548        -8.86482         6.18934
     2017.18822       -13.29966         6.22245
     2017.19096       -17.59949         6.37381
     2017.19370        -6.43032         6.20944
     2017.19644        -5.14915         6.17515
     2017.19917        -3.62498         6.17042
     2017.20191        -9.63782         6.24019
     2017.20465        -9.23765         6.55001
     2017.20740        -9.41048         9.50751
     2017.21013        -8.89631         6.22836
     2017.21286        -6.68014         6.19762
     2017.21560        -7.15898         6.25320
     2017.21834        -2.77881         6.46487
     2017.22108         1.06336         6.18816
     2017.22381        -2.92047         6.35962
     2017.22655        -4.84330         6.33597
     2017.22929        -7.09414         6.14440
     2017.23203        -4.32797         6.14559
     2017.23477        -7.16580         6.20471
     2017.23750       -10.13463         6.19052
     2017.24024        -8.64746         6.15623
     2017.24298       -12.02130         6.36199
     2017.24572       -12.67413         6.16332
     2017.24846        -8.81296         6.19052
     2017.25119       -11.54079         6.31942
     2017.25393       -12.56562         6.17397
     2017.25667       -11.84046         6.15741
     2017.25941       -10.76729         6.24137
     2017.26214        -5.82312         6.21890
     2017.26488        -0.16695         6.22718
     2017.26762        -1.30778         6.16805
     2017.27036        -5.93062         6.16687
     2017.27310       -12.59045         6.42585
     2017.27583       -13.68128         6.24019
     2017.27857       -12.97811         6.25911
     2017.28131       -15.47795         6.35016
     2017.28405       -16.88478         6.17870
     2017.28679       -11.80361         6.17515
     2017.28952       -12.27044         6.19289
     2017.29226       -10.69127         6.23309
     2017.29500       -14.78011         6.35962
     2017.29774       -13.61894         6.24137
     2017.30047       -10.21977         6.20235
     2017.30321       -13.74160         6.19880
     2017.30595       -15.87843         6.19880
     2017.30869       -11.90727         6.15741
     2017.31143        -6.83310         6.14086
     2017.31416       -12.35393         6.15505
     2017.31690        -6.52576         6.18106
     2017.31964       -10.06559         6.29577
     2017.32238       -12.52843         6.25320
     2017.32512       -14.69026         6.14322
     2017.32785       -11.66609         6.22955
     2017.33059       -16.31492         6.14440
     2017.33333       -14.95775         6.22127
     2017.33607       -18.77759         6.18934
     2017.33880       -12.01242         6.15032
     2017.34154       -10.01225         6.76641
     2017.34316        -5.10015        17.18447
     2017.34729       -16.29890         6.68600
     2017.34976       -10.25875         6.17633
     2017.35249       -10.11258         6.31232
     2017.35523       -15.72941         6.16687
     2017.35797       -14.75124         6.33952
     2017.36071       -14.01807         6.25793
     2017.36344       -13.52991         6.15032
     2017.36618        -8.92774         6.14677
     2017.36892        -9.49457         6.17278
     2017.37166        -9.23940         6.16569
     2017.37440       -12.98923         6.16451
     2017.37627        -9.13712        10.15080
     2017.38039       -16.44087         7.99506
     2017.38261       -10.44973         6.17397
     2017.38535       -12.33356         6.22127
     2017.38809       -15.52839         6.15505
     2017.39082       -11.47323         6.19880
     2017.39356         3.43994         6.56657
     2017.39630        -4.76489         6.20353
     2017.39904       -12.60472         6.28512
     2017.40177       -10.37356         6.12548
     2017.40451        -5.27539         6.44477
     2017.40725       -13.65022         6.24965
     2017.40999        -6.54705         6.25320
     2017.41273        -9.17788         6.38209
     2017.41546        -5.77772         6.34898
     2017.41820        -7.58955         6.28749
     2017.42094        -7.77038         6.28512
     2017.42368       -13.01621         6.20235
     2017.42642       -10.71804         6.32888
     2017.42915        -7.04688         6.22363
     2017.43189        -5.90171         6.22836
     2017.43463        -9.01754         6.23901
     2017.43737         1.64263         6.27212
     2017.44010        -1.04020         6.15859
     2017.44284        -4.46304         6.20708
     2017.44558        -3.62587         6.17515
     2017.44832        -0.29670         6.15623
     2017.45106        -1.42353         6.24610
     2017.45379        -2.73636         6.34307
     2017.45653        -0.14420         6.44240
     2017.45927        -3.68003         6.20471
     2017.46201        -4.57786         6.18579
     2017.46475        -5.03669         6.26975
     2017.46748        -8.26152         6.26029
     2017.47022       -12.89036         6.44240
     2017.47296        -3.48719         6.26739
     2017.47570        -6.35502         6.12430
     2017.47843        -7.91485         6.17751
     2017.48117       -11.80568         6.40456
     2017.48391        -0.42052         6.17278
     2017.48665        -7.86135         6.42821
     2017.48939        -1.31918         6.17870
     2017.49212         5.57899         6.23073
     2017.49486        -7.87484         6.20944
     2017.49760        -1.71768         6.24374
     2017.50034        -0.46051         6.22955
     2017.50308         8.88366         7.43690
     2017.50581        -3.78717         6.19525
     2017.50855        -4.49001         6.27803
     2017.51129        -1.68584         6.25556
     2017.51403        -8.82767         6.35844
     2017.51676        -6.59650         6.27685
     2017.51950        -2.89233         6.23546
     2017.52224         1.67283         6.22363
     2017.52498         2.31800         6.20471
     2017.52772        -3.99583         6.45304
     2017.53045         0.96134         6.22955
     2017.53319        -6.75949         6.25793
     2017.53593         3.14367         6.24492
     2017.53867        -2.08316         6.52991
     2017.54141         9.01301         6.26384
     2017.54414         3.42618         6.16214
     2017.54688        -0.10765         6.20353
     2017.54962         0.95351         6.33243
     2017.55236         4.28868         6.29458
     2017.55509        -1.45515         6.18343
     2017.55783         6.51302         6.39865
     2017.56057        -6.61981         6.38682
     2017.56331         0.84835         6.18934
     2017.56605        -0.76048         6.29104
     2017.56878         8.66569         6.26739
     2017.57152         3.96886         6.30405
     2017.57426        -1.95697         6.17870
     2017.57700         4.56119         6.20944
     2017.57974         1.23636         6.25083
     2017.58247         3.82253         6.22009
     2017.58521         0.80170         6.20944
     2017.58795        -4.10413         6.34780
     2017.59069        -0.49497         6.46132
     2017.59342         2.65920         6.34425
     2017.59616         1.62737         6.22482
     2017.59890         1.46554         6.16687
     2017.60164         3.77671         6.18816
     2017.60438        -0.38813         6.18816
     2017.60711        -0.68296         6.19407
     2017.60985        -0.98379         6.37381
     2017.61259         2.63538         6.26147
     2017.61533         7.95454         6.36908
     2017.61807        11.12471         6.36908
     2017.62080         5.72888         6.22718
     2017.62354         7.23605         6.26857
     2017.62628         0.70222         6.48261
     2017.62902         8.67838         6.63279
     2017.63175        -2.70745         6.31469
     2017.63449         3.97872         6.20826
     2017.63723         2.64889         6.20708
     2017.63997         7.70206         6.29340
     2017.64271         7.70222         6.26384
     2017.64544         6.55339         6.65053
     2017.64818         5.03656         6.37145
     2017.65092         6.39773         6.20590
     2017.65366         4.69990         6.17397
     2017.65639         8.99306         6.17042
     2017.65913         6.50423         6.19880
     2017.66187         8.35740         6.19407
     2017.66461        10.39557         6.44240
     2017.66735         9.51174         6.30759
     2017.67008         9.23090         6.18579
     2017.67282         5.99907         6.42939
     2017.67556         2.77624         6.22009
     2017.67830         2.24141         6.20235
     2017.68104         3.32658         6.16451
     2017.68377         9.21974         6.33952
     2017.68651        10.87691         6.46842
     2017.68925        19.40608         6.17988
     2017.69199        10.46725         6.26029
     2017.69472        12.63042         6.25911
     2017.69746         8.72758         8.52601
     2017.70020        13.73675         6.47315
     2017.70294        15.62492         6.46487
     2017.70568         6.35809         6.41639
     2017.70841         9.49926         6.12667
     2017.71115        10.56542         6.22600
     2017.71389        15.47559         6.31824
     2017.71663        14.13476         6.14440
     2017.71937        10.91693         6.13849
     2017.72210        10.63310         6.29695
     2017.72484         8.10226         6.29104
     2017.72758        10.04743         6.15859
     2017.73032         7.62660         6.20235
     2017.73305         8.03477         6.20708
     2017.73579         4.55893         6.15505
     2017.73853         5.50110         6.37027
     2017.74127         2.08127         6.17751
     2017.74401        10.85144         6.22009
     2017.74674         5.71861         6.19644
     2017.74948         7.62477         6.17515
     2017.75222         6.43494         6.13494
     2017.75496         6.32611         6.14322
     2017.75770         1.55828         6.33124
     2017.76043         2.40345         6.21654
     2017.76317         7.83361         6.19880
     2017.76591         5.68878         6.22600
     2017.76865        11.31095         6.15623
     2017.77138         3.26712         6.16805
     2017.77412         6.08729         6.56065
     2017.77686         6.15645         6.15150
     2017.77960         7.94762         6.24137
     2017.78234         3.85079         6.11721
     2017.78507         7.23596         6.12903
     2017.78781         4.24213         6.12194
     2017.79055         4.22129         6.25083
     2017.79329        19.59246         6.33124
     2017.79603        17.57463         6.17160
     2017.79876        15.13080         6.30286
     2017.80150        16.17897         6.30050
     2017.80424        11.97813         6.14677
     2017.80698         3.13730         6.29577
     2017.80971        -0.14953         6.17633
     2017.81245         0.30164         6.25556
     2017.81519         1.40481         6.27212
     2017.81793        -6.08503         6.16924
     2017.82067        -2.19886         6.28749
     2017.82340         3.74231         6.16214
     2017.82614        -6.08452         6.28039
     2017.82888         1.51165         6.19644
     2017.83162         6.29681         6.16924
     2017.83436         7.35098         6.18934
     2017.83709         7.59615         6.38446
     2017.83983        -5.69668         6.29695
     2017.84257         2.84748         6.19998
     2017.84531         3.96865         6.17988
     2017.84804        -0.53318         6.20944
     2017.85078         3.83399         6.24492
     2017.85352         6.46416         6.20471
     2017.85626        -3.09168         6.42939
     2017.85900         2.08749         6.36081
     2017.86173         8.37666         6.30878
     2017.86447         5.28283         6.21181
     2017.86721         8.49000         6.25911
     2017.86995         5.24516         6.18934
     2017.87269         7.56433         6.19998
     2017.87542        10.47550         6.15150
     2017.87816         9.78467         6.13731
     2017.88090         9.23184         6.15150
     2017.88364        12.15400         6.26975
     2017.88637        13.85117         6.37263
     2017.88858        -1.41169         8.57686
     2017.89185         7.61751         6.35489
     2017.89459        14.16268         6.19762
     2017.89733         4.73584         6.22718
     2017.90006         7.04001         6.17870
     2017.90280         4.60618         6.13967
     2017.90554         8.12235         6.09474
     2017.90828        10.15552         6.13376
     2017.91102         4.59568         6.38209
     2017.91375         3.27585         6.24965
     2017.91649         3.69002         6.17633
     2017.91821         9.41313        12.53241
     2017.92296         3.55042        11.43148
     2017.92470         1.72852         6.16569
     2017.92744        -5.21931         6.48024
     2017.93018        -4.86014         6.23901
     2017.93292        -4.28197         6.22245
     2017.93566        -2.40180         6.18579
     2017.93839        -0.25864         6.22363
     2017.94113        -3.46547         6.19880
     2017.94387         2.16370         6.21890
     2017.94661        -2.66813         6.23428
     2017.94935         0.07503         6.50034
     2017.95208         2.28520         6.32297
     2017.95482         1.44737         7.00292
     2017.95756         3.19954         6.50626
     2017.95951         4.52966         9.93322
     2017.96952        -3.46073        11.57102
     2017.97125        -2.73562         6.17988
     2017.97399        -2.97045         6.13021
     2017.97672        -1.24829         6.11129
     2017.97946        -2.49612         6.12785
     2017.98220        -0.95795         6.09237
     2017.98494        -2.37178         7.10580
     2017.98767        -1.10761        13.91478
     2017.99041         0.93955        12.67313
     2017.99315        -3.94028         6.12194
     2017.99589        -2.54211         6.14322
     2017.99863        -2.43794         6.08646
     2018.00136        -6.83977         6.12430
     2018.00410        -5.36961         8.76606
     2018.00684        -9.43344         9.65059
     2018.00958        -3.85627         6.14322
     2018.01232       -11.76410         6.12075
     2018.01505        -1.74293         6.09474
     2018.01779        -2.06077         6.18343
     2018.02053        -0.69860         6.19171
     2018.02285         2.00254         7.53742
     2018.02707         2.81880        13.27267
     2018.02874         1.24991         6.07227
     2018.03065        -5.47998        10.34828
     2018.03794        -8.79053        11.50598
     2018.03969        -8.42442         6.15386
     2018.04243       -10.59025         6.15859
     2018.04510        -5.10809         6.27330
     2018.04894         3.13614        12.49220
     2018.05065         1.80825         6.16924
     2018.05338         0.62142         6.15268
     2018.05612        -1.44741         6.15859
     2018.05886       -10.90325         8.32380
     2018.06160        -6.86408         6.13140
     2018.06433       -12.30191         6.29577
     2018.06707         0.28326         6.28512
     2018.06981        -4.85758         6.33361
     2018.07255        -7.42241         6.23309
     2018.07529       -11.04024         6.21536
     2018.07802        -8.94207         6.29577
     2018.08076        -5.03290         6.27212
     2018.08350        -4.26174         6.24965
     2018.08624        -7.26557         6.25201
     2018.08898       -11.67740         6.24847
     2018.09171        -8.16223         6.75222
     2018.09445        -2.44206         6.30050
     2018.09719        -7.60890         6.44240
     2018.09993        -8.55273         6.26739
     2018.10266       -11.03756         6.26857
     2018.10540       -13.48139         6.70492
     2018.10814         1.46078         6.37027
     2018.11088        -6.47806         6.29695
     2018.11362        -4.54889         6.24137
     2018.11635        -7.33172         6.25083
     2018.11909        -6.25555         6.35608
     2018.12183         0.42162         6.38327
     2018.12457        -0.94022         6.27330
     2018.12731        -7.01105         6.25083
     2018.13004        -0.43188         6.25911
     2018.13278         1.27829         6.24255
     2018.13552         1.26546         6.23546
     2018.13826        -3.12138         6.29458
     2018.14099        -3.94821         6.25556
     2018.14373       -10.00404         6.31824
     2018.14647        -2.99587         6.54646
     2018.14921        -2.97970         6.37973
     2018.15195         6.82546         6.33834
     2018.15468        -0.29437         6.24965
     2018.15742         5.28380         6.26620
     2018.16016         0.66297         6.27330
     2018.16290       -18.02186         6.35962
     2018.16564        -6.06770         6.38682
     2018.16837       -11.68653         6.27685
     2018.17111        -3.56036         6.26857
     2018.17385        -6.28519         6.31824
     2018.17659        -5.86103         6.24255
     2018.17932        -3.96586         6.27330
     2018.18206        -2.16769         6.45186
     2018.18480         2.98948         6.36554
     2018.18754        -3.78135         6.16924
     2018.19028        -7.69819         6.14440
     2018.19301        -6.01002         6.12312
     2018.19575        -1.02185         6.14440
     2018.19849         1.71232         6.15268
     2018.20123         2.86649         6.22363
     2018.20397         0.97765         6.13258
     2018.20670         0.37082         6.11248
     2018.20944        -1.51101         6.10775
     2018.21218        -5.13584         6.15859
     2018.21492       -16.62967         6.17515
     2018.21765        -1.92151         6.16569
     2018.22039        -0.71734         6.14795
     2018.22313        -2.83317         6.15032
     2018.22587        -6.09200         6.16332
     2018.22861       -10.26483         6.15623
     2018.23134        -3.48967         6.16332
     2018.23408        -8.02950         6.15032
     2018.23682       -10.54033         6.29458
     2018.23956        -6.52716         6.21417
     2018.24230       -10.35399         6.21063
     2018.24503        -6.38283         6.19880
     2018.24777        -3.91666         6.18816
     2018.25051         0.78651         6.12430
     2018.25325        -7.04232         6.13021
     2018.25598        -4.21615         6.09829
     2018.25872        -8.70199         6.31469
     2018.26146        -5.19082         6.32178
     2018.26420        -1.81065         6.15505
     2018.26694        -4.53448         6.11366
     2018.26967       -12.08131         6.17870
     2018.27241        -5.47615         6.16096
     2018.27515         1.28602         6.19998
     2018.27789         4.64719         6.33834
     2018.28062        -5.35764         6.28985
     2018.28336       -18.95247         6.22955
     2018.28610        -6.99931         6.07345
     2018.28884        -3.72014         6.28158
     2018.29158        -0.17197         6.33124
     2018.29431        -7.02580         6.19171
     2018.29705        -8.55664         6.12312
     2018.29979        -6.66847         6.16332
     2018.30253        -3.95330         6.15386
     2018.30527        -9.31513         6.14559
     2018.30800       -10.25396         6.12548
     2018.31074        -8.59180         6.11248
     2018.31348        -5.68063         6.08764
     2018.31622        -9.42546         6.06636
     2018.31895        -2.68629         6.23901
     2018.32169        -1.24012         6.25556
     2018.32443        -8.02696         6.16332
     2018.32717        -8.24479         6.12312
     2018.32991        -5.49062         6.26502
     2018.33166        -5.56251        12.03693
     2018.33538        -5.72928         6.62333
     2018.33812        -8.81712         6.37618
     2018.34086        -4.17595         6.11248
     2018.34360        -6.03578         6.11957
     2018.34633        -4.81161         6.12667
     2018.34907        -7.03844         6.11484
     2018.35181        -4.96828         6.27330
     2018.35455        -3.08911         6.13613
     2018.35728        -2.43594         6.10893
     2018.36002        -0.17077         6.21299
     2018.36276         2.08940         6.20708
     2018.36550        -2.64844         6.11129
     2018.36824         0.47673         6.17751
     2018.37097        -3.55510         6.30168
     2018.37371        -4.43693         6.10302
     2018.37645        -4.75776         6.28631
     2018.37919        -1.94060         6.13258
     2018.38193        -5.45043         6.18343
     2018.38466         1.97774         6.24610
     2018.38740        -3.62509         6.17397
     2018.39014         2.71708         6.22482
     2018.39288         6.48624         6.20235
     2018.39561         0.89441         6.22955
     2018.39835         0.10358         6.22245
     2018.40109         3.29075         6.16805
     2018.40383         2.81491         6.18461
     2018.40657         4.50208         6.28394
     2018.40930         8.03925         6.32178
     2018.41204         5.69642         6.18224
     2018.41478         0.33159         6.21063
     2018.41752         1.22275         6.16687
     2018.42026        -3.85908         6.19525
     2018.42299        -2.69791         6.23782
     2018.42573         2.99326         6.15978
     2018.42847         4.67043         6.16332
     2018.43121        -2.54541         6.10183
     2018.43394        -1.05724         6.16332
     2018.43668         3.92193         6.20708
     2018.43942         2.31410         6.12430
     2018.44216         3.74327         6.09474
     2018.44490        -0.08057         6.10893
     2018.44763         5.14560         6.21772
     2018.45037         2.67777         6.10183
     2018.45311         2.29394         6.09829
     2018.45585         0.03111         6.20235
     2018.45859         7.77127         6.16687
     2018.46132        -1.01156         6.19407
     2018.46406         0.81361         6.11602
     2018.46680         5.18578         6.15386
     2018.46954         2.28995         6.16451
     2018.47227         5.46311         6.29813
     2018.47501         7.21528         6.14086
     2018.47775         1.05845         6.14677
     2018.48049         8.12862         6.52399
     2018.48323         0.57679         6.12667
     2018.48596         0.88695         6.14204
     2018.48870         4.19212         6.12312
     2018.49099         6.53526         7.18739
     2018.49466         3.48649         8.04118
     2018.49692         9.10463         6.39510
     2018.49965        -2.28721         6.16451
     2018.50239         2.81696         6.16332
     2018.50513        -0.95587         6.10065
     2018.50787         1.15030         6.16332
     2018.51060        -6.15854         6.29695
     2018.51334         0.56763         6.23664
     2018.51608        -1.71020         6.20590
     2018.51882         1.50497         6.19998
     2018.52156         4.06214         6.28039
     2018.52429         2.12030         6.18816
     2018.52703         2.35047         6.14677
     2018.52882        13.32558        11.03060
     2018.53312         6.45885         8.74360
     2018.53525         1.81698         6.09592
     2018.53798         2.37014         6.09710
     2018.54072         5.23031         6.15623
     2018.54346         1.14048         6.25083
     2018.54620         5.74665         6.19998
     2018.54893         4.20082         6.19407
     2018.55167         3.06398         6.22482
     2018.55441         4.16015         6.16687
     2018.55715         1.22232         6.51335
     2018.55989         4.95449         6.34070
     2018.56262         7.21866         6.14204
     2018.56536         3.96482         6.11839
     2018.56810         7.23699         6.13967
     2018.57084         5.97916         6.15741
     2018.57357        -2.35167         6.42703
     2018.57631         1.22850         6.52636
     2018.57905         4.46266         6.50271
     2018.58179         5.46283         6.33834
     2018.58453         9.82500         6.37500
     2018.58726         8.45217         6.15150
     2018.59000         7.27634         6.18224
     2018.59274         8.42150         6.18461
     2018.59548         3.97167         6.17988
     2018.59822        10.05084         6.16924
     2018.60095         8.94801         6.14322
     2018.60369         9.79118         6.14322
     2018.60643         2.76634         6.20471
     2018.60917         5.74051         6.33597
     2018.61190         1.99768         6.24255
     2018.61464         1.85785         6.20708
     2018.61738        11.49302         6.10183
     2018.62012        10.90718         6.09356
     2018.62286        10.94335         6.23901
     2018.62559        10.44152         6.32888
     2018.62833         3.82969         6.16214
     2018.63107         6.53085         6.14677
     2018.63381         6.31902         6.31705
     2018.63655        10.92719         6.13494
     2018.63928        10.05936         6.41993
     2018.64202        14.31753         6.44358
     2018.64476        12.99769         6.19762
     2018.64750         9.01986         6.10893
     2018.65023         8.16103         6.53937
     2018.65297        11.94820         6.17397
     2018.65571        12.50537         6.14559
     2018.65845        10.83853         6.15268
     2018.66119        12.63970         6.12075
     2018.66392        13.48087         6.08883
     2018.66666        11.98004         6.15741
     2018.66940        11.19321         6.14086
     2018.67214         2.76437         6.37736
     2018.67488         6.84754         6.12785
     2018.67761         7.15471         6.09592
     2018.68035         3.99088         6.20590
     2018.68309         2.85205         6.21654
     2018.68583         7.22821         6.25911
     2018.68856        10.73138         6.13376
     2018.69130        14.48855         6.15741
     2018.69404        11.91472         6.24019
     2018.69609         5.56784         8.83583
     2018.69986         6.02807         7.19567
     2018.70225         4.03322         6.26147
     2018.70499         2.82439         6.15741
     2018.70773        10.21956         6.21063
     2018.71047         2.10973         6.13376
     2018.71321         3.03689         6.17751
     2018.71594         4.21506         6.11248
     2018.71868        -0.23677         6.18579
     2018.72142         4.73440         6.11957
     2018.72416         5.19957         6.23664
     2018.72689        -0.29327         6.16687
     2018.72963         3.16290         6.16214
     2018.73237        -1.86793         6.10420
     2018.73511         1.92824         6.12194
     2018.73785         4.44540         6.10302
     2018.74058        -0.36543         6.14322
     2018.74332         8.98474         6.10775
     2018.74606         7.70591         6.06517
     2018.74880         6.83408         6.29932
     2018.75154         2.76524         6.39273
     2018.75427        11.66741         6.11011
     2018.75701         8.27358         6.20117
     2018.75975         5.33875         6.15741
     2018.76249         3.32492         6.13258
     2018.76522         4.94908         6.22955
     2018.76796         5.51625         6.09119
     2018.77070         6.53042         6.12548
     2018.77344         5.50859         6.18698
     2018.77618         8.42176         6.11248
     2018.77891         4.00592         6.24019
     2018.78165        11.98309         6.34662
     2018.78439         3.20226         6.10302
     2018.78713        -0.65057         6.16451
     2018.78987        -7.12440         6.22482
     2018.79260        -2.95324         6.17751
     2018.79534        10.19593         6.15268
     2018.79808         0.36410         6.16332
     2018.80082         1.03727         6.16451
     2018.80355         6.11144         6.22245
     2018.80629         6.62860         6.40101
     2018.80903         3.42177         6.18698
     2018.81177         8.48894         6.48379
     2018.81450         6.48311         6.29458
     2018.81778        14.99031        10.25841
     2018.81998         3.85444         6.26739
     2018.82272        15.07561         6.24610
     2018.82546         6.88478         6.13021
     2018.82820         5.53095         6.17397
     2018.83093         6.79812         6.16096
     2018.83367         9.27528         6.13849
     2018.83641         7.33645         6.38091
     2018.83915         4.00862         6.16687
     2018.84188         4.31679         6.25911
     2018.84462        13.39595         6.11484
     2018.84736         3.95012         6.13731
     2018.85010         7.27829         6.15623
     2018.85284        -1.36254         6.19289
     2018.85557        -0.70537         6.11839
     2018.85831        -1.07121         6.09710
     2018.86105         2.38196         6.11957
     2018.86379         1.00213         6.27330
     2018.86653         6.46130         6.22955
     2018.86926        -0.50153         6.18816
     2018.87200         4.10063         6.21417
     2018.87474         7.89180         6.11484
     2018.87748         5.48797         6.24374
     2018.88021         3.19914         6.39746
     2018.88295         5.74631         6.30168
     2018.88569         4.72447         6.31351
     2018.88843        10.69164         6.34189
     2018.89117         7.61781         6.39628
     2018.89390         7.25498         6.28158
     2018.89664         1.94015         6.50034
     2018.89938         2.30431         6.19525
     2018.90212         6.11848         6.25674
     2018.90485        12.49865         6.29695
     2018.90759         7.55982         6.24492
     2018.91033         9.44799         6.17988
     2018.91307        11.89615         6.25793
     2018.91581         8.24932         6.16451
     2018.91854        13.72349         6.16687
     2018.92128         6.19866         6.18816
     2018.92402         6.56083         6.21299
     2018.92676         6.58999         6.10893
     2018.92950         7.31516         6.15741
     2018.93223         5.89733         6.29813
     2018.93497         3.90650         6.19525
     2018.93771         4.75867         6.21536
     2018.94045         0.67183         6.09356
     2018.94318         6.92000         6.06872
     2018.94592         7.37117         6.17633
     2018.94866        16.00334         6.19289
     2018.95140        14.16751         6.41284
     2018.95414        17.48567         6.17515
     2018.95687         8.04384         6.10538
     2018.95961         6.74601         6.09710
     2018.96235        19.74718         6.33006
     2018.96509         9.91034         7.37305
     2018.96783         1.22951         6.14795
     2018.97056        11.32568         7.37423
     2018.97330         3.47985         6.30878
     2018.97501         2.47295        12.11971
     2018.98256        -2.85758        12.85642
     2018.98425         3.19452         6.41284
     2018.98699        -8.95931         6.32415
     2018.98914         1.57682         8.50473
     2018.99620         2.16325        12.16583
     2018.99794        -5.37864         6.28158
     2019.00068        -4.32747         6.31587
     2019.00342        -4.23230         6.27685
     2019.00616         1.64186         6.24847
     2019.00889         2.64103         6.27093
     2019.01163         2.93020         6.17160
     2019.01437        11.58437         6.19525
     2019.01711        12.26254         6.21772
     2019.01984        -3.47630         6.24492
     2019.02258        -7.51413         6.27330
     2019.02532        -6.76596         6.22245
     2019.02806        -2.15579         6.23073
     2019.03080        -4.46562         6.24728
     2019.03353        -5.20346         6.24374
     2019.03627        -7.62829         6.80780
     2019.03901         2.71688         8.42904
     2019.04117        -5.70999        10.13070
     2019.04719         1.26438         7.36714
     2019.05210        -6.90732        10.63918
     2019.05609        -4.02907       118.82256
     2019.05737        -6.95399        12.65657
     2019.06092        -8.57378         7.36359
     2019.06365        -1.22961         6.80544
     2019.06639         0.39456         6.86693
     2019.06913        -3.59127         7.34940
     2019.07187        -0.53010         7.12827
     2019.07461        -4.64494         6.83145
     2019.07734         2.02023         7.03012
     2019.08282         0.57457         6.77587
     2019.08555         5.66273         6.48852
     2019.08828         5.22590         7.03248
     2019.09103         8.20007         6.94734
     2019.09377         7.79524         6.73567
     2019.09651        10.00141         6.53700
     2019.09925         2.40357         6.43649
     2019.10198        -1.66326         6.82081
     2019.10472        -3.74109         6.62096
     2019.10636        -0.30499        14.62784
     2019.11019         1.48125         6.80898
     2019.11293        -2.43259         7.96076
     2019.11567        -7.51442         7.11171
     2019.11841         6.64675         7.09752
     2019.12115        13.86792         7.36359
     2019.12388         7.20509         7.11526
     2019.12662         4.00325         6.37027
     2019.12936         3.32942         6.10538
     2019.13210        -3.50841         6.14322
     2019.13483         0.38276         6.18579
     2019.13757         3.56493         6.18224
     2019.14031         4.16209         6.14086
     2019.14305         4.08226         6.10302
     2019.14579         0.75343         6.14795
     2019.14852         4.94660         6.14322
     2019.15126         5.45077         6.16451
     2019.15400         0.21093         6.10183
     2019.15674         0.89710         6.10302
     2019.15948        -5.00773         6.08528
     2019.16221        -2.74156         6.23428
     2019.16495        -1.00739         6.12194
     2019.16769        -6.12423         6.14086
     2019.17043        -6.39106         6.38919
     2019.17316        -2.40789         6.11129
     2019.17590         0.23228         6.08173
     2019.17864         0.64644         6.09947
     2019.18138         1.06261         6.13140
     2019.18412        -7.66722         6.11957
     2019.18685        -2.02805         6.11248
     2019.18959         2.20712         6.15741
     2019.19233         2.36828         6.09237
     2019.19507        -0.25555         6.18698
     2019.19780        -7.40338         6.14086
     2019.20054        -1.65221         6.24610
     2019.20328        -6.91004         6.19525
     2019.20602        -7.36288         6.48615
     2019.20876        -7.96271         6.11602
     2019.21149        -6.87354         6.10065
     2019.21423        -3.58837         6.09356
     2019.21688        -4.61421         6.33479
     2019.22245        12.79313         6.12075
     2019.22518        13.22130         6.07818
     2019.22792        16.83947         6.18579
     2019.23066        13.91064         6.11248
     2019.23340        12.70380         6.10183
     2019.23613        12.20397         6.09947
     2019.23887        14.09314         6.11484
     2019.24161         8.92431         6.46250
     2019.24435        10.49948         6.25556
     2019.24709        10.42964         6.20944
     2019.24982        14.11981         6.11011
     2019.25256        17.76298         6.27212
     2019.25530        11.53515         6.15032
     2019.25804        17.21132         6.08173
     2019.26078        15.80648         6.07109
     2019.26351        16.18665         6.20235
     2019.26625        14.81882         6.12667
     2019.26899        16.82599         6.22009
     2019.27173        17.33816         6.37500
     2019.27446        13.61132         6.09592
     2019.27720        16.97149         6.20353
     2019.27994        20.81466         6.08291
     2019.28268        13.96683         6.20117
     2019.28542        21.29500         6.10420
     2019.28815        20.36816         6.15859
     2019.29089        11.35033         6.09592
     2019.29363        15.39750         6.09237
     2019.29637        18.63867         6.27093
     2019.29911        19.95483         6.22955
     2019.30184        12.54700         6.17278
     2019.30458         9.99317         6.13021
     2019.30732        13.68834         6.12430
     2019.31006        17.59451         6.23309
     2019.31279         8.36967         6.22363
     2019.31553        20.16484         6.11484
     2019.31827        21.91201         6.18224
     2019.32101        14.68818         6.12785
     2019.32375         3.00335         6.14559
     2019.32648         9.54151         6.12667
     2019.32922        10.22268         6.23309
     2019.33196        16.38685         6.24019
     2019.33470        11.81802         6.27803
     2019.33744        12.73819         6.19998
     2019.34017        11.47435         6.09710
     2019.34291        12.46152         6.14086
     2019.34565        15.74269         6.25556
     2019.34839         4.88386         6.23428
     2019.35112         6.13203         6.11366
     2019.35386         8.38519         6.12312
     2019.35660         8.73736         6.11957
     2019.35934        18.16953         6.23546
     2019.36208        11.83170         6.19171
     2019.36481        14.04187         6.14795
     2019.36755        12.64903         6.38800
     2019.37029        13.60520         6.27448
     2019.37303        17.36237         6.14322
     2019.37577        10.70954         6.35489
     2019.37850        16.06171         6.22836
     2019.38124        12.53187         6.21890
     2019.38398        14.74704         6.17397
     2019.38672        14.03821         6.16569
     2019.38945         9.10738         6.15032
     2019.39219        13.37755         6.16096
     2019.39493        12.03671         6.14677
     2019.39767        17.38688         6.17870
     2019.40041        10.69405         6.15623
     2019.40314        15.57922         6.31705
     2019.40580        11.54238         6.60677
     2019.44969        12.06407         6.54765
     2019.45243        13.70724         6.24965
     2019.45516         5.55741         6.23546
     2019.45790        10.95858         6.41757
     2019.46064        13.26374         6.32651
     2019.46338         8.53791         6.83382
     2019.46611        19.21508         6.52399
     2019.46885        14.47525         6.59731
     2019.47159        13.25742         6.28749
     2019.47433        17.91758         6.59140
     2019.47707        14.61575         6.27212
     2019.47980        14.69692         6.34662
     2019.48254         7.23009         6.41639
     2019.48528        16.45326         6.39273
     2019.48802        12.01742         6.34662
     2019.49076         7.31759         6.17042
     2019.49349        10.01976         6.16451
     2019.49623         8.50493         6.20708
     2019.49897         9.75110         6.26147
     2019.50171        11.56226         6.22009
     2019.50444        10.16843         6.40929
     2019.50718         7.54460         6.20353
     2019.50992        10.23377         6.20826
     2019.51266        10.76394         6.18579
     2019.51540        15.38810         6.17988
     2019.51813         7.49527         6.19289
     2019.52087         9.58744         6.31469
     2019.52361         6.02961         6.19171
     2019.52635         8.99677         6.18461
     2019.52908         9.51394         6.52518
     2019.53182         6.47611         6.33834
     2019.53456         9.12328         6.35489
     2019.53730         6.61945         6.34543
     2019.54004        12.81561         6.36908
     2019.54277        15.54278         6.39037
     2019.54551        10.05795         6.54173
     2019.54825        13.30512         6.14204
     2019.55099         3.97129         6.32415
     2019.55373        12.80245         6.29695
     2019.55646        13.04862         6.48024
     2019.55920        -0.65821         6.98400
     2019.56194        16.93196         6.18816
     2019.56468         7.78113         6.30050
     2019.56741         5.22829         6.30641
     2019.57015         8.82346         6.27212
     2019.57289         9.16563         6.35489
     2019.57563        12.31780         6.17751
     2019.57837         7.98197         6.23191
     2019.58110        10.49013         6.28631
     2019.58384        14.84130         6.50626
     2019.58658        12.33747         6.23428
     2019.58932        11.65664         6.20117
     2019.59206        10.30881         6.22600
     2019.59479        11.77997         6.19171
     2019.59753        20.21314         6.38209
     2019.60027        12.98231         6.46842
     2019.60301         9.81148         6.36908
     2019.60574        12.14265         6.55119
     2019.60848        17.72281         6.44713
     2019.61122        14.69198         6.18224
     2019.61396        13.22515         6.32888
     2019.61670        17.86932         6.19644
     2019.61943        15.99049         6.18224
     2019.62217        12.40165         6.36199
     2019.62491        24.61482         6.18698
     2019.62765        15.88299         6.15741
     2019.63039        19.37516         6.24255
     2019.63312         8.96532         6.17633
     2019.63586        14.74049         6.37736
     2019.63860        15.40866         6.46723
     2019.64134        18.08283         6.36554
     2019.64407        18.96600         6.39392
     2019.64681         9.73716         6.20944
     2019.64955         9.09433         6.15150
     2019.65229        15.61250         6.19052
     2019.65503        12.59667         6.36199
     2019.65776         8.87284         6.27093
     2019.66050        14.46700         6.28158
     2019.66324         5.16117         6.26857
     2019.66598        17.53934         6.42821
     2019.66872        11.93951         6.21299
     2019.67145         9.43868         6.19880
     2019.67419       -10.22516        27.60370
     2019.67695        13.59201         6.33716
     2019.67967        10.23018         6.34780
     2019.68240         6.90835         6.16332
     2019.68514        15.07952         6.23191
     2019.68788        21.38068         6.31942
     2019.69062        11.54185         6.28394
     2019.69336        10.15902         6.15505
     2019.69609        15.78319         6.22600
     2019.69883        17.79936         6.49325
     2019.70157        16.48352         6.18816
     2019.70431        18.47869         6.25674
     2019.70705        15.65586         6.21654
     2019.70978        18.48603         6.23191
     2019.71252        13.65720         6.13258
     2019.71526        16.10236         6.11248
     2019.71800        16.81553         6.49325
     2019.72073        18.75870         6.56302
     2019.72347        16.31787         6.19052
     2019.72621        18.31604         6.33124
     2019.72895         9.78620         6.25201
     2019.73169        24.91037         6.16214
     2019.73442        26.19654         6.16451
     2019.73716        21.22271         6.18224
     2019.73990        20.33487         6.41047
     2019.74264        20.44404         6.23901
     2019.74538        21.09521         6.11248
     2019.74811        18.93638         6.27566
     2019.75085        19.45455         6.31587
     2019.75359        18.40471         6.52281
     2019.75633        21.64888         6.27566
     2019.75906        17.41505         6.20353
     2019.76180        19.16922         6.18343
     2019.76454        17.44639         6.36317
     2019.76728        18.82655         6.55474
     2019.77002        19.13372         6.36435
     2019.77275        17.16289         6.46487
     2019.77549        19.23706         8.33681
     2019.77823        22.04723         6.32178
     2019.78097        22.56539         6.36554
     2019.78371        19.95556         6.35016
     2019.78644        19.88273         6.40692
     2019.78918        23.20190         6.41875
     2019.79192        29.64007         6.39155
     2019.79466        31.27023         6.58194
     2019.79739        22.20840         6.25438
     2019.80013        25.96057         6.28276
     2019.80287        23.58374         6.28867
     2019.80561        23.92191         6.43767
     2019.80835        14.55207         6.30523
     2019.81108        16.43624         6.30878
     2019.81382        25.37241         6.41047
     2019.81656        20.55658         6.31824
     2019.81930        18.41775         6.29222
     2019.82203        17.18491         6.34780
     2019.82477        12.42908         6.27685
     2019.82751        13.43525         6.54292
     2019.83025        19.19242         6.45541
     2019.83299        17.08659         6.41875
     2019.83572        19.85675         6.30759
     2019.83846        21.19492         6.26266
     2019.84120        16.71309         6.25674
     2019.84394        17.42126         6.45777
     2019.84668        15.04843         6.30996
     2019.84941        18.18759         6.29577
     2019.85215        19.36076         6.32533
     2019.85489        19.47993         6.30878
     2019.85763        14.56310         6.35135
     2019.86036        14.39226         6.36554
     2019.86310        17.83043         6.31469
     2019.86584        25.24860         6.40101
     2019.86858        24.18877         6.28158
     2019.87132        19.92094         6.38919
     2019.87405        21.37710         6.27212
     2019.87679        18.69027         6.48024
     2019.87953        27.06544         6.31942
     2019.88227        28.98861         6.24019
     2019.88501        21.08978         6.28394
     2019.88774        21.97594         6.43885
     2019.89048        26.76011         6.23546
     2019.89322        28.22828         6.51690
     2019.89596        25.10345         6.28394
     2019.89869        27.43262         6.24728
     2019.90143        23.92378         6.18816
     2019.90417        24.66795         6.31705
     2019.90691        22.64112         6.23191
     2019.90965        19.34729         6.21654
     2019.91238        23.79746         6.20590
     2019.91512        25.18362         6.22245
     2019.91786        30.52179         6.22718
     2019.92060        20.45896         6.25320
     2019.92334        26.49713         6.25674
     2019.92607        21.81930         6.19407
     2019.92881        21.57346         6.20944
     2019.93155        25.68363         6.22127
     2019.93429        23.06080         6.24255
     2019.93702        22.53497         6.23309
     2019.93976        21.53314         6.26384
     2019.94250        22.50530         6.19289
     2019.94524        18.89047         6.19644
     2019.94798        17.04764         6.24492
     2019.95071        23.36181         6.50507
     2019.95345        25.71898         6.23428
     2019.95619        25.54514         6.22363
     2019.95893        21.41631         6.21536
     2019.96167        22.75848         6.27330
     2019.96440        23.52865         6.42939
     2019.96714        19.66681         6.36317
     2019.96988        17.78098         6.27921
     2019.97262        19.19215         6.29222
     2019.97535        22.23332         6.20353
     2019.97809        18.52349         6.20826
     2019.98083        21.67965         6.26266
     2019.98357        17.01282         6.42348
     2019.98631        20.13399         6.24492
     2019.98904        17.74816         6.25320
     2019.99178        18.47733         6.23428
     2019.99452        17.74649         6.23782
     2019.99726        26.34366         6.28039
     2020.00000        30.48183         6.25556
     2020.00273        29.08600         6.30050
     2020.00547        20.04517         6.41402
     2020.00821        19.53333         6.42939
     2020.01095        23.35450         6.43058
     2020.01368        20.23967         6.48142
     2020.01642        19.97584         6.43649
     2020.01916        23.25101         6.25911
     2020.02190        19.36817         6.38327
     2020.02464        18.77434         6.38091
     2020.02737        20.24651         6.26857
     2020.03011        16.87068         6.24610
     2020.03285         8.13485         6.23309
     2020.03559        15.33301         6.09947
     2020.03833        18.16918         6.14795
     2020.04106         1.03135         6.38091
     2020.04380        -4.72748         6.21417
     2020.04654        -0.63131         6.10420
     2020.04928         5.58785         6.09592
     2020.05201        12.95302         6.07937
     2020.05475        18.24819         6.13731
     2020.05749        18.14236         6.11129
     2020.06023        28.97853         6.13967
     2020.06297        17.22269         6.13258
     2020.06570        17.49486         6.10302
     2020.06844        15.98903         6.23428
     2020.07118        18.94420         6.14086
     2020.07392        19.47236         6.15268
     2020.07666        18.21253         6.14086
     2020.07939        15.95870         6.14204
     2020.08213        21.47287         6.15386
     2020.08487        22.14304         6.24728
     2020.08761        17.26720         6.16569
     2020.09034        16.29837         6.13849
     2020.09308        15.23154         6.14913
     2020.09582        19.57371         6.20117
     2020.09856        19.56588         6.13849
     2020.10130        18.02604         6.11129
     2020.10403        17.60821         6.18816
     2020.10677        11.34738         6.26266
     2020.10951         8.72455         6.23546
     2020.11225        19.00572         6.18343
     2020.11498        12.63988         6.17633
     2020.11772        21.24405         6.33361
     2020.12046        11.75422         6.38327
     2020.12320        14.56639         6.18106
     2020.12594        14.45756         6.20117
     2020.12867        11.71272         6.18934
     2020.13141         9.43489         6.27566
     2020.13415         9.94706         6.11248
     2020.13689        14.06023         6.31942
     2020.13963        16.20940         6.30996
     2020.14236        14.54756         6.19052
     2020.14510        21.07473         6.22245
     2020.14784        14.92990         6.15623
     2020.15058         9.05207         6.17042
     2020.15331        12.70924         6.15032
     2020.15605         9.72540         6.23191
     2020.15879        16.10857         6.15978
     2020.16153        16.37574         6.16805
     2020.16427        16.11791         6.14204
     2020.16700        20.13108         6.17751
     2020.16974        17.89824         6.26739
     2020.17248        21.99841         6.65644
     2020.17522        18.88858         6.12312
     2020.17796        17.16275         6.11839
     2020.18069        11.61792         6.05808
     2020.18343        16.44008         6.15150
     2020.18617        10.47425         6.16569
     2020.18891        11.82242         6.31351
     2020.19164        16.37459         6.36908
     2020.19438        11.51275         6.23782
     2020.19712        11.48392         6.22600
     2020.19986         8.26509         6.27921
     2020.20260         7.12326         6.42821
     2020.20533         9.62243         6.30996
     2020.20807        10.07459         6.29222
     2020.21081         7.85276         6.34898
     2020.21355         6.14793         6.94261
     2020.21629         9.28210         6.58549
     2020.21902         8.66227         6.42821
     2020.22179         8.35444         6.40456
     2020.22450        15.24760         6.28867
     2020.22724        12.11877         6.25674
     2020.22997        12.87994         6.25674
     2020.23271        13.96111         6.29458
     2020.23545        11.79427         6.34425
     2020.23819        14.53144         6.25674
     2020.24093         6.43461         6.37618
     2020.24366        11.69678         6.35726
     2020.24640        14.07595         6.29577
     2020.24914         5.80211         6.28512
     2020.25188         8.56528         6.28867
     2020.25462        13.19745         6.28985
     2020.25735        14.22962         6.43767
     2020.26009        16.75279         6.27093
     2020.26283        14.55795         6.31824
     2020.26557         5.86412         6.28039
     2020.26830        10.56729         6.29813
     2020.27104         7.94846         6.30286
     2020.27378        10.94663         6.29577
     2020.27652        18.35479         6.38091
     2020.27929         8.42896         6.48379
     2020.28199        16.99013         9.76648
     2020.28473         5.59330         9.45193
     2020.28747        16.00147         9.40463
     2020.29021        11.38263         6.28985
     2020.29295         6.48880         6.29695
     2020.29568         8.14897         6.28631
     2020.29842        12.19914         6.28512
     2020.30116        13.40830         6.28512
     2020.30390         9.85747         6.30286
     2020.30663         9.16064         6.32060
     2020.30937         6.22881         6.41993
     2020.31211         6.17398         6.53227
     2020.31485         8.98914         6.38446
     2020.31759         9.53731         6.26857
     2020.32032        11.11048         6.47196
     2020.32306        12.33265         6.26857
     2020.32580         2.20482         6.23664
     2020.32854         9.12298         6.28749
     2020.33128         6.73215         6.22718
     2020.33401        10.42632         6.22955
     2020.33675        14.52549         6.32060
     2020.33949        12.63866         6.23546
     2020.34223         4.80482         6.40811
     2020.34496        10.06499         6.23664
     2020.34770         6.81616         6.26266
     2020.35044         4.21233         6.30641
     2020.35318         1.15050         6.30050
     2020.35592         2.16666         6.33952
     2020.35865         7.74983         6.28631
     2020.36139        10.52300         6.19762
     2020.36413         7.17017         6.31114
     2020.36687        11.95434         6.27212
     2020.36961         6.51450         6.28512
     2020.37234         8.41067         6.26147
     2020.37508        11.60884         6.23428
     2020.37782         9.51601         6.33006
     2020.38056        10.42718         6.26975
     2020.38329        14.02534         6.18343
     2020.38603        14.61551         6.24137
     2020.38877        11.67968         6.31942
     2020.39151         6.17585         6.19525
     2020.39425         5.03302         6.23309
     2020.39698         9.44418         6.32533
     2020.39972         9.70035         6.19998
     2020.40246         6.88752         6.28512
     2020.40520         3.03169         6.29695
     2020.40794         2.91685         6.19407
     2020.41067         8.50902         6.28631
     2020.41341        16.44619         6.32888
     2020.41615         8.40436         6.26739
     2020.41889         6.79753         6.21299
     2020.42162         6.94769         6.39155
     2020.42436         8.54686         6.59258
     2020.42710         9.60603         6.48970
     2020.42984         9.75820         6.36554
     2020.43258        15.05937         6.43294
     2020.43531         6.90253         6.38800
     2020.43805        12.32670         6.36908
     2020.44079         8.56187         6.37736
     2020.44353         2.76804         6.46132
     2020.44626        11.43221         6.38564
     2020.44900        10.68037         6.29932
     2020.45174        11.55454         6.23546
     2020.45448        12.28171         6.24965
     2020.45722        12.41688         6.24728
     2020.45995        10.95405         6.23309
     2020.46269         5.13221         6.24374
     2020.46543         2.27438         6.21063
     2020.46817        10.24255         6.25674
     2020.47091        10.96372         6.29104
     2020.47364         8.37689         6.17870
     2020.47638         8.75605         6.25438
     2020.47912        12.33022         6.50626
     2020.48186        11.01139         6.28039
     2020.48459        10.81156         6.39983
     2020.48733         6.40273         6.49088
     2020.49007        17.77689         6.46605
     2020.49281        16.21006         6.40101
     2020.49555        10.30523         6.45896
     2020.49828         9.66240         6.26502
     2020.50102         3.70357         6.21299
     2020.50376         4.38173         6.25793
     2020.50650         3.22390         6.20117
     2020.50924         1.56507         6.29222
     2020.51197         3.50224         6.25438
     2020.51471         9.50941         6.30405
     2020.51745         6.61557         6.19052
     2020.52019        14.81474         6.39510
     2020.52292         7.76891         6.40574
     2020.52566        11.05308         6.43649
     2020.52840         5.45524         6.45304
     2020.53114         6.67941         6.34425
     2020.53388         7.79858         6.34898
     2020.53661         7.16175         6.43767
     2020.53935         9.62192         6.52399
     2020.54209        15.37208         7.88508
     2020.54483         7.37625         6.37973
     2020.54757         2.10542         6.36908
     2020.55030         8.49059         6.39510
     2020.55304         1.33276         6.45186
     2020.55578         4.37492         6.56065
     2020.55852        17.31609         6.57011
     2020.56125        14.73626         6.48497
     2020.56399        13.26743         6.35135
     2020.56673         7.34260         6.32651
     2020.56947         4.31776         6.37973
     2020.57221        11.30193         6.64225
     2020.57494         4.62610         6.38091
     2020.57768         7.44827         6.36672
     2020.58042         6.00544         6.44358
     2020.58316         5.60560         6.60559
     2020.58590         8.01377         6.53346
     2020.58863        10.00094         6.40692
     2020.59137         9.12511         6.38327
     2020.59411        12.68628         6.35016
     2020.59685        14.34944         7.39552
     2020.59958        13.94561         6.65171
     2020.60232        10.41678         6.35962
     2020.60506        10.25095         6.39746
     2020.60780        13.26112         6.46605
     2020.61054        16.52428         6.58667
     2020.61327        10.39445         6.52399
     2020.61601        12.48762         6.41993
     2020.61875        13.72279         6.43176
     2020.62149         8.48796         6.41757
     2020.62423        16.46612         6.51099
     2020.62696         5.22529         6.61505
     2020.62970         2.70146         6.75932
     2020.63244        18.55163         6.45068
     2020.63518        17.45079         6.47788
     2020.63791         9.16496         6.74040
     2020.64065         5.78213         6.57130
     2020.64339         5.55330         6.45541
     2020.64613        10.76647         6.36081
     2020.64887        17.39263         6.48024
     2020.65160        11.26780         6.38564
     2020.65434        11.98497         6.51926
     2020.65708        10.60514         6.39037
     2020.65982        17.19731         6.38327
     2020.66256        15.76247         6.33243
     2020.66529        14.65464         6.44004
     2020.66803        16.41881         6.41047
     2020.67077        21.54498         6.82199
     2020.67351        16.35715         6.33716
     2020.67624         9.68731         6.30286
     2020.67898         5.92448         6.52163
     2020.68172        10.92765         6.43649
     2020.68446        18.13182         6.79361
     2020.68720         6.45199         6.37736
     2020.68993        14.66015         6.28631
     2020.69267        12.08232         6.41639
     2020.69541        10.62349         6.73212
     2020.69815        11.15666         6.51926
     2020.70089        14.55583         6.32178
     2020.70362        14.57299         6.41993
     2020.70636        16.37116         6.84682
     2020.70910         7.49233         6.78533
     2020.71184         9.61250         6.57130
     2020.71457        14.01367         6.56184
     2020.71731        13.49083         6.60204
     2020.72008         9.98700         6.62333
     2020.72279        15.63617         6.49798
     2020.72553        12.89434         6.56657
     2020.72826        16.94951         6.67181
     2020.73100        27.22667         6.54292
     2020.73374        25.31984         6.42466
     2020.73648        28.48701         6.51099
     2020.73921        18.58018         6.44950
     2020.74195        13.77135         6.39746
     2020.74469        16.81551         6.38446
     2020.74743        13.79068         6.46723
     2020.75017        15.48985         6.40101
     2020.75290        15.37602         6.45777
     2020.75564        13.57218         6.32178
     2020.75838        26.21035         6.40101
     2020.76112        23.64452         6.33834
     2020.76386        23.72269         6.32178
     2020.76659        26.21786         6.35608
     2020.76933        29.33002         6.47551
     2020.77207        25.02019         6.32651
     2020.77481        29.23136         6.37500
     2020.77754        30.41453         6.29932
     2020.78028        29.71370         6.37736
     2020.78302        35.74786         6.35608
     2020.78576        33.33303         6.44477
     2020.78850        30.27320         6.25911
     2020.79123        22.54337         6.49916
     2020.79397        26.45254         6.38091
     2020.79671        23.87170         6.35726
     2020.79945        28.60287         6.23546
     2020.80219        28.40204         6.49443
     2020.80492        25.83521         6.25438
     2020.80766        25.22738         6.35135
     2020.81040        23.86754         6.31942
     2020.81314        27.22871         6.21536
     2020.81587        25.99388         6.28985
     2020.81861        27.04205         6.22718
     2020.82135        27.24722         6.28749
     2020.82409        35.61438         6.35135
     2020.82683        29.74955         6.32415
     2020.82956        31.61872         6.43531
     2020.83230        27.38289         6.31705
     2020.83504        29.55006         6.33006
     2020.83778        26.97522         6.26266
     2020.84052        28.38339         6.27212
     2020.84325        27.06556         6.42230
     2020.84599        32.13573         6.47433
     2020.84873        27.72490         6.18816
     2020.85147        26.61806         6.25438
     2020.85420        35.92223         6.21299
     2020.85694        39.06140         6.31587
     2020.85968        38.38257         6.24137
     2020.86242        32.35573         6.28867
     2020.86516        32.15990         6.41639
     2020.86789        46.81307         6.47906
     2020.87063        40.94224         6.32770
     2020.87337        44.42041         6.35371
     2020.87611        39.92757         6.40692
     2020.87885        29.63574         6.43294
     2020.88158        37.04191         6.49325
     2020.88432        34.18108         6.27921
     2020.88706        32.04325         6.70492
     2020.88980        29.58741         6.48261
     2020.89253        28.77558         6.35371
     2020.89527        32.54275         6.51926
     2020.89801        32.47292         6.53464
     2020.90075        35.89209         6.32060
     2020.90349        34.69525         6.31824
     2020.90622        34.59042         6.33479
     2020.90896        30.52859         6.48142
     2020.91170        29.76976         6.67891
     2020.91444        36.01193         6.47433
     2020.91718        28.67909         6.32651
     2020.91991        20.53626         6.30641
     2020.92265        26.97043         6.37027
     2020.92539        19.41460         6.36435
     2020.92813        22.27977         6.34307
     2020.93086        25.43193         6.35253
     2020.93360        29.92710         6.33952
     2020.93634        28.38127         6.30523
     2020.93908        23.52644         6.35608
     2020.94182        22.29061         6.34189
     2020.94455        24.45177         6.30641
     2020.94729        19.71094         6.28512
     2020.95003        20.72311         6.32888
     2020.95277        15.87628         6.30523
     2020.95551        21.32545         6.29340
     2020.95824        24.15061         6.52163
     2020.96098        29.10878         6.60441
     2020.96372        27.54095         6.30641
     2020.96646        25.33612         6.41993
     2020.96919        35.06628         6.46842
     2020.97193        25.73945         6.25201
     2020.97467        32.36362         6.49561
     2020.97741        22.27879         6.44122
     2020.98015        17.66896         6.58076
     2020.98288        19.65212         6.42821
     2020.98562        34.05529         6.28039
     2020.98836        27.76446         6.38209
     2020.99110        28.23763         6.26266
     2020.99384        26.47880         6.23782
     2020.99657        28.45496         6.24019
     2020.99931        27.17913         6.20826
     2021.00205        23.78630         6.23664
     2021.00479        39.00147         6.24610
     2021.00752        35.22464         6.25556
     2021.01026        29.23080         6.21299
     2021.01300        24.69397         6.21536
     2021.01574        25.40114         6.47196
     2021.01848        21.47531         6.24492
     2021.02121        18.92248         6.21654
     2021.02395        21.52564         6.22009
     2021.02669        19.18881         6.35844
     2021.02943        23.32198         6.27330
     2021.03216        24.82815         6.24847
     2021.03490        34.56232         6.47788
     2021.03764        20.59748         6.27803
     2021.04038        20.46765         6.27566
     2021.04312        25.04182         6.25201
     2021.04585        19.34299         6.29577
     2021.04859        25.92016         6.31232
     2021.05133        20.66532         6.32415
     2021.05407        21.98449         6.55474
     2021.05681        25.17566         6.50389
     2021.05930        16.92781         6.97690
     2021.07428        27.98773        12.62110
     2021.07597        23.81484         6.23901
     2021.07871        18.73700         6.26266
     2021.08145        20.29317         6.20944
     2021.08418        15.06034         6.26975
     2021.08692        16.94751         6.25674
     2021.08966        18.88067         6.30405
     2021.09240        12.46284         6.26739
     2021.09514        17.77801         6.41520
     2021.09787        28.04918         6.45304
     2021.10061        20.98435         6.29340
     2021.10335        23.87051         6.25674
     2021.10609        21.62668         6.23901
     2021.10882        18.61885         6.21654
     2021.11156        15.36902         6.24847
     2021.11430        10.56719         6.30050
     2021.11704        16.29635         6.26975
     2021.11978        20.41952         6.25793
     2021.12251        19.32169         6.25320
     2021.12525        23.27586         6.27330
     2021.12799        23.44203         6.24137
     2021.13073        21.89719         6.39746
     2021.13347        15.46636         6.33834
     2021.13620        20.12753         6.28749
     2021.13894        20.81470         6.20944
     2021.14168        20.93587         6.34780
     2021.14442        28.30703         6.28985
     2021.14715        18.37620         6.42230
     2021.14989        12.45137         6.20826
     2021.15263        21.03954         6.38682
     2021.15537        21.66871         6.35489
     2021.15811        18.44187         6.52754
     2021.16084        21.01904         6.38682
     2021.16358        20.89021         6.40811
     2021.16632        22.06238         6.41757
     2021.16906        19.96255         6.57957
     2021.17180        17.09071         6.26739
     2021.17453        12.02988         6.39983
     2021.17727        16.14905         6.39510
     2021.18001        16.76122         6.36435
     2021.18275        12.42539         6.53346
     2021.18548         9.43155         6.24255
     2021.18822        13.47272         6.27803
     2021.19096        17.69789         6.18106
     2021.19370        14.57606         6.30996
     2021.19644         9.81422         6.21654
     2021.19917        12.07339         6.25793
     2021.20191        15.04756         6.23428
     2021.20465        19.17673         6.25793
     2021.20739        16.19290         6.21299
     2021.21013        16.48806         6.38682
     2021.21286        14.06923         6.38800
     2021.21560        13.64940         6.25911
     2021.21834        15.87057         6.37736
     2021.22108        16.20474         6.21772
     2021.22381        14.35390         6.27093
     2021.22655        16.12307         6.41047
     2021.22929        19.60224         6.25793
     2021.23203        18.68341         6.25320
     2021.23477        12.75358         6.23901
     2021.23750        15.88074         6.23191
     2021.24024        21.19791         6.29932
     2021.24298        14.92008         6.40811
     2021.24572         4.66625         6.20590
     2021.24846        11.04142         6.38919
     2021.25119        13.14758         6.25911
     2021.25393        14.88975         6.37618
     2021.25667        15.72292         6.22482
     2021.25941         7.39109         6.22009
     2021.26214        13.63926         6.35489
     2021.26488        17.45142         6.24374
     2021.26762        18.03259         6.30759
     2021.27036        16.82576         6.41402
     2021.27310        14.12293         6.26029
     2021.27583         6.50210         6.20117
     2021.27857        13.59726         6.32415
     2021.28131        15.22643         6.33124
     2021.28297        13.51553        13.80244
     2021.28766         6.35382        10.92063
     2021.28952        13.88094         6.42939
     2021.29226        10.17710         6.34189
     2021.29500        16.19227         6.36908
     2021.29774        15.12944         6.61860
     2021.30047        14.54061         6.46369
     2021.30321        16.95177         6.37973
     2021.30595        20.73094         6.58785
     2021.30869        25.87411         6.56538
     2021.31143        18.58928         6.21772
     2021.31416        21.59845         6.28039
     2021.31690        21.98061         6.26266
     2021.32021        17.72982         8.88313
     2021.32295        23.31099         8.71403
     2021.32569        10.98215         8.36164
     2021.32842        21.99132         8.50236
     2021.33116        20.14949         8.24220
     2021.33390        14.94666         8.30015
     2021.33664        15.66883         8.29187
     2021.33937        23.23999         8.22920
     2021.34211        20.26316         8.30015
     2021.34485        19.40533         8.39830
     2021.34759        18.47050         8.30370
     2021.35033        19.27867         8.63007
     2021.35306        13.05483         8.33089
     2021.35580        13.97700         8.32735
     2021.35854        12.80517         8.36992
     2021.36128        14.40134         8.29542
     2021.36402        10.07150         8.34863
     2021.36653         5.97366         7.51613
     2021.36892         9.61481         6.25320
     2021.37166         6.65697         6.24965
     2021.37440        15.86714         6.30050
     2021.37770        18.00134         8.43377
     2021.38044        18.59951         8.57922
     2021.38318        17.48668         9.03095
     2021.38592        14.98085         8.62889
     2021.38866        18.15902         8.56976
     2021.39413        16.68535         8.35927
     2021.39687        17.77252         8.49763
     2021.39938        10.71467         7.46174
     2021.40177        14.05982         6.42112
     2021.40451        18.58599         6.35844
     2021.40782        14.24219         8.37347
     2021.41056        19.78636         8.46688
     2021.41330        19.01753         8.52956
     2021.41603        10.13970         8.39712
     2021.41877        13.39086         8.43614
     2021.42151        22.20203         8.50000
     2021.42425        17.96220         8.94226
     2021.42699        26.53037         8.47753
     2021.42972        27.84154         8.35454
     2021.43246        26.00570         8.33681
     2021.43520        20.28387         8.36282
     2021.43794        13.25004         8.81809
     2021.44068        20.94621         8.55203
     2021.44341        18.75538         8.49645
     2021.44615        19.01054         8.45861
     2021.44889        22.54771         8.40421
     2021.45163        19.25388         8.62534
     2021.45436        16.63005         9.07707
     2021.45710        21.03222         8.44678
     2021.45984        25.23138         8.27295
     2021.46258        13.43355         8.18544
     2021.46527        18.00672         8.59105
     2021.46805        11.12689         8.17480
     2021.47079        15.58905         8.27177
     2021.47353        17.87222         8.61115
     2021.47627        13.06139         8.97655
     2021.47901        16.12956         8.50473
     2021.48174        11.11773         8.38884
     2021.48448        -0.64611         8.31670
     2021.48722        -0.77094         8.56030
     2021.48996         9.91723         8.27413
     2021.49269        15.06840         8.34035
     2021.49520         2.16355         7.91819
     2021.49817        13.03073         8.65964
     2021.50091         5.01190         8.74596
     2021.50365         5.74007         8.52838
     2021.50638         6.56924         8.61234
     2021.50912        14.39341         8.84293
     2021.51186        10.35657         9.00730
     2021.51458        22.33574         8.96473
     2021.51733        20.02491         8.41485
     2021.52007         7.40808         8.73177
     2021.52281         5.77325         8.59223
     2021.52555         6.80341         8.78617
     2021.52829        14.24658         8.57331
     2021.53102        16.18775         8.48344
     2021.53376        22.17292         8.67501
     2021.53650        12.48609         8.65845
     2021.53924        16.14525         8.70930
     2021.54198        17.96542         8.61825
     2021.54471        10.56359         8.49054
     2021.54745         4.00876         8.47635
     2021.55019         6.48193         8.54966
     2021.55293        25.52109         8.60169
     2021.55566        18.83526         8.40185
     2021.55840        13.10843         8.54375
     2021.56114        15.95560         8.29660
     2021.56388        19.47677         8.41604
     2021.56605        20.73490         6.38682
     2021.56878        16.33307         6.41047
     2021.57152         7.54823         6.47196
     2021.57426        10.11940         6.46250
     2021.57700        21.20357         6.98400
     2021.57974        18.63274         6.49088
     2021.58247        11.71191         6.48734
     2021.58521        15.69707         6.51335
     2021.58795        10.34824         6.58785
     2021.59069        11.15941         6.63752
     2021.59342        11.42458         6.49325
     2021.59616        15.39275         6.75814
     2021.59890        20.23191         6.52281
     2021.60164        15.71808         6.58785
     2021.60438        19.81225         6.38209
     2021.60711        19.74842         6.40338
     2021.60985        18.23159         6.43176
     2021.61259        16.45075         6.47315
     2021.61533        11.89192         6.44122
     2021.61807        18.00809         6.50271
     2021.62080        22.26326         6.50744
     2021.62354        26.16643         6.50862
     2021.62628        20.85259         6.41639
     2021.62902        14.89776         6.47433
     2021.63175        16.50293         6.53700
     2021.63449        16.46710         6.69664
     2021.63723        20.27727         6.76641
     2021.63997        28.14843         6.66826
     2021.64271        22.02860         6.58076
     2021.64544        14.26577         6.39037
     2021.64818        23.23494         6.40101
     2021.65092        21.58310         6.44477
     2021.65366        17.20627         6.40929
     2021.65639        18.53944         6.40929
     2021.65913        17.13061         6.39628
     2021.66187        23.15678         6.42585
     2021.66461        23.14494         6.39273
     2021.66735        23.99211         6.33479
     2021.67008        17.46528         6.52636
     2021.67282        25.98545         6.71556
     2021.67556        25.67862         6.76523
     2021.67830        22.71478         6.61268
     2021.68104        26.12395         6.45777
     2021.68377        22.42212         6.36435
     2021.68651        21.33929         6.56893
     2021.68925        24.01346         6.42466
     2021.69199        21.08862         6.42703
     2021.69472        20.04079         6.35844
     2021.69746        22.30396         6.53700
     2021.70020        19.41113         6.49207
     2021.70294        19.64530         6.52873
     2021.70568        31.78346         6.66945
     2021.70841        29.66263         6.55119
     2021.71115        28.66980         6.57366
     2021.71389        33.03997         6.74040
     2021.71663        25.53214         6.57603
     2021.71937        23.48330         6.59258
     2021.72210        19.43647         6.53109
     2021.72484        20.86364         6.54646
     2021.72758        25.81481         6.58194
     2021.73032        15.22998         6.90004
     2021.73305        25.50714         6.55592
     2021.73579        29.76331         6.57366
     2021.73853        25.93748         6.75577
     2021.74127        32.82365         6.63515
     2021.74401        27.09582         6.56657
     2021.74674        32.49998         6.63160
     2021.74948        23.07715         6.55947
     2021.75222        23.56632         6.51572
     2021.75496        32.09749         6.63397
     2021.75706        30.74862         8.85475
     2021.76043        31.09482         6.68955
     2021.76317        22.12599         6.66472
     2021.76591        23.76916         6.54410
     2021.76865        24.07833         6.51335
     2021.77138        28.78049         6.61032
     2021.77412        28.10966         6.81963
     2021.77686        26.44583         6.59022
     2021.77960        28.38100         6.55592
     2021.78234        26.52217         6.57011
     2021.78507        36.00633         6.50626
     2021.78781        34.67550         6.56302
     2021.79055        26.60567         6.50744
     2021.79329        25.90984         6.55474
     2021.79603        28.15501         6.54646
     2021.79876        28.36717         6.49680
     2021.80150        27.81634         6.70610
     2021.80424        25.74351         6.66590
     2021.80698        28.71868         6.53109
     2021.80971        27.44585         6.60559
     2021.81245        36.81501         6.70492
     2021.81519        37.25318         6.56302
     2021.81793        34.66035         6.55119
     2021.82067        25.87652         6.67418
     2021.82340        33.68569         6.79834
     2021.82614        28.56785         6.65407
     2021.82888        32.37302         6.60441
     2021.83162        30.83819         6.64580
     2021.83436        32.10936         6.63752
     2021.83709        28.11253         6.68364
     2021.83983        24.48769         6.76405
     2021.84257        24.52986         6.94379
     2021.84531        25.44903         6.66472
     2021.84804        35.62520         6.63160
     2021.85078        39.56337         6.63988
     2021.85352        27.73453         6.66117
     2021.85626        30.36770         6.54410
     2021.85900        31.84787         6.49088
     2021.86447        25.70320         6.76996
     2021.86721        26.55037         6.80780
     2021.86995        35.25854         6.83618
     2021.87269        29.09871         6.72384
     2021.87542        29.57588         6.86456
     2021.87816        21.97504         6.55829
     2021.88090        26.45721         6.53464
     2021.88364        28.02738         6.49443
     2021.88637        20.62255         6.58785
     2021.88911        16.25272         6.53819
     2021.89185        19.52788         6.55829
     2021.89459        24.77205         6.55592
     2021.89733        21.89022         6.51926
     2021.90006        23.11439         6.52045
     2021.90280        23.90056         6.55947
     2021.90554        21.13772         6.56420
     2021.90828        30.02189         6.52754
     2021.91102        23.81606         6.57957
     2021.91375        23.07823         6.62096
     2021.91649        21.33440         6.62806
     2021.91923        23.91356         6.72266
     2021.92197        15.89473         6.88703
     2021.92470        17.76490         6.66590
     2021.92744        20.15007         6.63870
     2021.93018        19.28424         6.64580
     2021.93292        27.44340         6.79716
     2021.93566        27.54957         6.79361
     2021.93839        28.30574         6.74513
     2021.94113        32.74691         6.84919
     2021.94387        42.66108         6.72384
     2021.94661        20.14624         6.73685
     2021.94935        25.84041         6.68127
     2021.95482        26.42375         6.68600
     2021.95756        30.30792         6.65289
     2021.96030        24.55508         6.68482
     2021.96303        22.28225         6.66472
     2021.96577        29.62742         6.67418
     2021.96851        23.66559         6.74867
     2021.97125        26.64076         6.62806
     2021.97399        28.67192         6.66353
     2021.97672        32.27309         6.64816
     2021.97946        33.31126         6.65407
     2021.98220        32.72143         6.73094
     2021.98494        35.23459         6.64698
     2021.98767        30.60276         6.64225
     2021.99041        31.80693         6.62451
     2021.99315        27.45210         6.68364
     2021.99589        34.45527         6.69310
     2021.99863        24.65143         6.69191
     2022.00136        27.61160         6.63042
     2022.00410        25.23377         6.62569
     2022.00684        23.24094         6.60914
     2022.00958        25.01011         6.63988
     2022.01232        13.83727         6.66708
     2022.01505        29.28044         6.70847
     2022.01779        32.40961         6.68245
     2022.01937        35.59771        18.84118
     2022.02345        17.05396         7.50431
     2022.02600        15.24011         6.68364
     2022.02874        20.31428         6.73921
     2022.03148        14.56645         6.67299
     2022.03422        19.04762         6.77114
     2022.03696        11.05179         6.56657
     2022.03969        10.24295         7.04312
     2022.04243        17.54612         6.71556
     2022.04517        17.92929         6.83973
     2022.04791        15.83746         6.64698
     2022.05065        17.18063         6.58785
     2022.05338        28.43579         6.69546
     2022.05612        13.65196         6.70019
     2022.05886         6.37713         6.69664
     2022.06160        13.61930         6.72384
     2022.06433        17.63747         6.69073
     2022.06707        10.24963         6.61860
     2022.06981        16.40480         6.62096
     2022.07255         8.14197         6.51335
     2022.07529        14.09414         6.52399
     2022.07802        16.71931         6.57839
     2022.08076        21.34947         6.48497
     2022.08350        21.41364         6.47315
     2022.08624        20.11481         6.53109
     2022.08898        21.93298         6.58312
     2022.09171        17.40314         6.55001
     2022.09445        14.48231         6.45068
     2022.09719        14.27548         6.45659
     2022.09993        14.40065         6.80071
     2022.10266        13.76282         6.73212
     2022.10540        17.44498         6.53700
     2022.10814        22.60715         6.47315
     2022.11088        22.42832         6.61268
     2022.11362        18.77049         6.45186
     2022.11635        19.55366         6.54528
     2022.11909        18.33782         6.51690
     2022.12183        22.51899         6.44477
     2022.12457        26.14616         6.58194
     2022.12731        23.87333         6.45777
     2022.13004        16.66150         6.58667
     2022.13278        19.88166         6.62214
     2022.13552        20.39583         6.51572
     2022.13826        20.07300         6.47669
     2022.14099        20.00517         6.37854
     2022.14373         9.48234         6.44240
     2022.14647        18.07450         6.57603
     2022.14921        19.94867         6.75695
     2022.15195        13.88984         6.64698
     2022.15468        20.23401         6.40456
     2022.15742        21.42018         6.43767
     2022.16016        23.53634         6.48615
     2022.16290        20.44551         6.50980
     2022.16564        14.98968         6.50744
     2022.16837        19.87585         6.43885
     2022.17111        16.52602         6.44831
     2022.17385        22.54218         6.56420
     2022.17659        25.79535         6.52636
     2022.17932         8.54752         6.49207
     2022.18206         7.16069         6.41875
     2022.18480        13.95786         6.43176
     2022.18754        18.43902         6.56184
     2022.19028        12.03019         6.53937
     2022.19301        16.91836         6.45777
     2022.19575        21.39453         6.44240
     2022.19849        16.37769         6.49088
     2022.20123        19.90086         6.47669
     2022.20397        23.33803         6.49916
     2022.20670        13.97120         6.68364
     2022.20944        19.07237         6.62214
     2022.21218        21.15453         6.55001
     2022.21492        16.22570         6.47078
     2022.21765        14.28887         6.45541
     2022.22039        13.04504         6.46487
     2022.22313        17.94821         6.57721
     2022.22587        12.03437         7.11762
     2022.22861        14.28454         6.57603
     2022.23134        20.34171         6.47551
     2022.23408        17.57488         6.48970
     2022.23682        16.20805         6.73212
     2022.23956         9.66121         6.52281
     2022.24230        11.99138         6.84564
     2022.24452        15.92552         9.16576
     2022.24777        23.74372         6.93788
     2022.25051        12.88189         7.30328
     2022.25325        12.56905         6.83500
     2022.25598        19.14622         6.58194
     2022.25872        14.53939         6.52873
     2022.26146        10.90056         6.49916
     2022.26420        10.73373         6.48379
     2022.26694        12.37389         6.78179
     2022.26967        18.02506         6.67299
     2022.27241        20.15823         6.48615
     2022.27515        22.36140         6.65644
     2022.27789        16.30757         6.41993
     2022.28062        13.32073         6.47196
     2022.28336        -0.73910         6.47196
     2022.28610        -3.66893         6.58903
     2022.28884        -5.76576         6.59613
     2022.29158        -7.21459         6.44831
     2022.29431        -4.34343         6.47078
     2022.29705         0.34674         6.42348
     2022.29979         3.80291         6.46723
     2022.30253         1.91408         6.65171
     2022.30527         2.51125         6.57011
     2022.30800        -5.73359         6.44358
     2022.31074        -5.07142         6.50034
     2022.31348        -1.14125         6.45541
     2022.31622        -2.51108         6.52045
     2022.31895       -15.42892         6.70374
     2022.32169        -0.22175         6.66590
     2022.32443        -0.10758         6.42703
     2022.32717        -5.66241         6.44477
     2022.32991        -3.15224         6.43767
     2022.33264        -3.60008         6.65289
     2022.33538        -9.04591         6.72384
     2022.33812        -4.47774         6.71438
     2022.34086         2.99843         6.52754
     2022.34360        -0.72140         6.45896
     2022.34633         1.13776         6.43058
     2022.34907        -0.15907         6.47196
     2022.35181         2.56510         6.47196
     2022.35455         0.57727         6.48970
     2022.35728        -7.79356         6.45896
     2022.36002        -2.76440         6.46723
     2022.36276        -1.52723         6.45896
     2022.36550        -3.81006         6.45186
     2022.36824         1.14011         6.46369
     2022.37097        -6.17272         6.50389
     2022.37371        -8.37756         6.48261
     2022.37645         0.12961         6.52636
     2022.37919        -1.04622         6.60677
     2022.38193        -9.16505         6.62569
     2022.38466        -7.37988         6.50153
     2022.39014        -5.24655         6.46369
     2022.39288        -5.52838         6.40692
     2022.39561        -4.68221         6.43649
     2022.39812        -2.00206         7.90164
     2022.40109        -0.69988         6.78415
     2022.40383         0.21429         6.41757
     2022.40657         1.92046         6.38091
     2022.40930        -8.20437         6.49916
     2022.41204        -4.15420         6.53227
     2022.41478        -3.86904         6.40574
     2022.41752        -5.61187         6.59968
     2022.42026        -6.01570         6.59140
     2022.42299        -2.31653         6.42703
     2022.42573        -3.37137         6.50389
     2022.42847         0.75780         6.44004
     2022.43121        -4.48303         6.51335
     2022.43394         3.45014         6.68955
     2022.43668        -8.36169         6.37263
     2022.43942        -5.27053         6.44831
     2022.44216        -3.84636         6.77233
     2022.44490         3.06881         6.60914
     2022.44763         4.02998         6.35844
     2022.45037        -1.99585         6.33952
     2022.45311       -10.02469         6.34070
     2022.45585        -4.22352         6.46842
     2022.46132        -5.33118         6.35371
     2022.46406        -8.75701         6.32533
     2022.46680        -8.41185         6.37145
     2022.46954        -3.65568         6.39273
     2022.47501         5.50966         6.63160
     2022.47775        -3.85917         6.56538
     2022.48049       -12.48101         6.37145
     2022.48323        -9.94184         6.38327
     2022.48596        -3.42367         6.41993
     2022.48870        -8.70650         6.69901
     2022.49144        -2.11233         6.39037
     2022.49418        -9.65717         6.61860
     2022.49692       -12.30100         6.43885
     2022.50513        -2.69649         6.83973
     2022.50787         3.77367         6.91423
     2022.51060        -6.04316         6.52045
     2022.51334       -12.44699         6.50626
     2022.51608       -11.98982         6.64580
     2022.52156        -7.24749         6.35489
     2022.52429        -5.84832         6.41875
     2022.52703       -10.13815         6.51690
     2022.52977         6.24102         6.50034
     2022.53251        -7.01982         6.46605
     2022.53525        -6.31365         6.47669
     2022.53798        -5.34348         6.55238
     2022.54072        -9.44231         6.52636
     2022.54347        -2.03514         6.52163
     2022.54620        -4.04998         6.49916
     2022.54893         2.34219         6.38564
     2022.55167        -2.79564         6.47433
     2022.55441        -3.82147         6.62214
     2022.55715         7.03270         6.52045
     2022.55989         1.60086         6.34780
     2022.56262        -5.84997         6.35135
     2022.56810        -5.37363         6.46369
     2022.57084        -4.37346         6.45304
     2022.57357        -2.37530         6.77942
     2022.57631        -5.45213         6.33952
     2022.57905        -6.01796         6.39273
     2022.58179        11.28521         6.53582
     2022.58453        13.89338         6.80662
     2022.58726        -3.35246         6.44004
     2022.59000         4.51271         6.54646
     2022.59274        -3.42112         6.34543
     2022.59548        -5.94895         6.37145
     2022.59822        -8.75478         6.34898
     2022.60369        -5.27745         6.36672
     2022.60643        -0.28528         6.43767
     2022.60917        -7.88011         6.97454
     2022.61190         8.59106         6.88112
     2022.61464         0.81522         6.99701
     2022.61738         5.84139         6.33716
     2022.62012         2.14356         6.29104
     2022.62286         1.87673         6.38800
     2022.62559        -1.80610         6.27566
     2022.62833        -1.61194         6.31469
     2022.63107         1.94023         6.38209
     2022.63381         7.49940         6.37854
     2022.63655         2.11357         6.46369
     2022.63928         2.78574         6.42466
     2022.64202        -2.06610         6.92369
     2022.64476         3.47107         6.87166
     2022.64750         5.63524         6.74513
     2022.65023         8.73541         6.57130
     2022.65297        12.96357         6.65289
     2022.65571         7.16174         6.54055
     2022.65845        11.78791         6.51335
     2022.66119         5.70308         6.35253
     2022.66392         6.66125         6.37854
     2022.66666         6.51941         6.40811
     2022.66940         9.71558         6.36317
     2022.67214         9.50675         6.36554
     2022.67488         9.11292         6.42821
     2022.67761        10.69209         6.42939
     2022.68035         8.80325         6.27685
     2022.68309         8.27742         6.35371
     2022.68583         7.56859         6.58903
     2022.68856         9.68276         6.46014
     2022.69130         7.63393         6.39628
     2022.69404         6.33209         6.53582
     2022.69678        12.02026         6.55829
     2022.69952         2.40043         6.49561
     2022.70225         7.02660         6.79006
     2022.70499         7.27977         6.57839
     2022.70773         9.41893         6.53582
     2022.71047        14.42710         6.37618
     2022.71321        21.01727         6.35608
     2022.71868        11.46561         6.33361
     2022.72142        11.96477         6.36908
     2022.72416         8.14994         6.47433
     2022.72689        14.44711         6.46723
     2022.72963        11.99928         6.37145
     2022.73238        11.69245         6.30050
     2022.73511         9.11261         6.52281
     2022.73785         8.98278         6.39392
     2022.74058        14.27195         6.58076
     2022.74332        14.60912         6.67891
     2022.74606        12.71929         6.49325
     2022.74880         9.49345         6.32651
