# ================= DQRFIT RESULTS ================
# INPUT FILE: series/RPUB.rad
# OUTPUT: LDETRENDED
# FILTER FUNCTION: f(t)
# f(t)=+line(t)+annual(t)
# line(t)=+P 1+P 2*t
# annual(t)=+P 3*sin(2*pi*t+P 4)
# heav(t)=(t<0?0:1)
# TOTAL OBSERVATIONS MTOT= 3372
# INITIAL TIME INTERVAL= 2022.7488 - 2012.5147 = 10.2341
# TOTAL OBSERVATIONS AFTER PREFILTER M= 3321
# TIME-SPAN= 2022.7488 - 2012.5147 = 10.2341
# OBSERVATIONS: USED M=  3321 REJECTED MTOT-M=    51 %USED=   98.4875
# N=  4 PARAMETERS
# MAXSIG= 175.00000
# MAXRES=  44.20588
# SCALE FACTOR FOR LENGTHS: SCL=  10.00000
# SCALE FACTOR FOR SIGMAS: SCLSIG=   1.00000
# CHI^2=   4363.715 DOF=  3317 CHI^2/DOF=   1.31556
# RMS=      6.687 SDEV=      6.688 MEAN=   -0.01186
#  P #       PARAMETER +-    SIGMA %error PARAMETER NAME
# P 1 =      -624.17518 +-   78.119  12.52 YZERO                              
# P 2 =         0.31076 +-    0.039  12.46 SLOPE                              
# P 3 =         5.47433 +-    0.154   2.82 ANNUAL AMPLITUDE                   
# P 4 =        -2.80407 +-    0.037   1.34 ANNUAL PHASE                       
#       T            LDETRENDED       SIG_OBS
     2012.51471        -6.63435         6.16960
     2012.51745        -3.47520         6.21892
     2012.52019        -1.00205         6.30953
     2012.52292         6.30610         6.35656
     2012.52566         0.51124         6.27627
     2012.52840        -7.64961         6.17304
     2012.53114         6.54054         6.20401
     2012.53388         8.23969         6.43455
     2012.53661         4.76684         6.39441
     2012.53935         4.57499         6.36688
     2012.54209         5.73314         6.15010
     2012.54448        -4.09860         7.06883
     2012.55125        -2.07571        12.58695
     2012.55304         0.44674         6.26365
     2012.55578        -1.42912         6.19369
     2012.55852        -2.16797         6.30724
     2012.56125        -2.30882         6.08472
     2012.56399        -1.42667         6.17533
     2012.56673        -1.55052         6.32788
     2012.56947         2.06563         6.33476
     2012.57221         1.82678         6.24759
     2012.57495         0.33093         6.16960
     2012.57762        -2.72790         6.25218
     2012.70461         3.76464        13.20287
     2012.70636        11.02309         6.25448
     2012.70910         9.45024         6.27856
     2012.71184        12.73939         6.24874
     2012.71457        15.15154         6.18680
     2012.71731        15.20469         6.20974
     2012.72005        10.93284         6.18795
     2012.72279        12.87699         6.08702
     2012.72439        15.53749        14.09522
     2012.73725        13.73749         9.93628
     2012.73921         8.30488         6.19942
     2012.74195        13.08903         6.63986
     2012.74469        11.63318         6.29462
     2012.74743        12.61633         6.17648
     2012.75017        11.34648         6.45979
     2012.75290        16.11363         6.22810
     2012.75564         7.28478         6.15813
     2012.75838         5.95493         6.21204
     2012.76105         8.94210         6.99313
     2012.76377        -9.84875        62.48856
     2012.76662        16.67736        37.35022
     2012.76933        13.07152        19.71427
     2012.77204         6.22468        52.32288
     2012.77490        13.85079        41.67089
     2012.77741         5.10401        12.29561
     2012.78038        16.32709        10.52927
     2012.78304        16.59226        11.55122
     2012.78573         2.03242        10.41457
     2012.78848        11.75657        11.55467
     2012.79122        -1.35728        12.54910
     2012.79401        12.17885        14.04476
     2012.79665        11.73903        12.90581
     2012.79945         2.55816        10.78963
     2012.80222         5.41830        45.20703
     2012.80470        -0.26347        63.88214
     2012.80763        19.12962        44.65074
     2012.81040        -3.30124        41.73627
     2012.81313         9.61991        48.46445
     2012.81589        20.75005        49.74448
     2012.81755         0.32254        22.36150
     2013.13894        -0.26134         6.27168
     2013.14168         5.57681         6.20745
     2013.14442         0.96896         6.37376
     2013.14715         6.00811         6.27283
     2013.14990        -4.26774         6.12831
     2013.15263        -4.92759         6.13290
     2013.15537        -8.02544         6.16272
     2013.15811        -7.80129         6.15928
     2013.16084        -7.38914         6.16960
     2013.16358        -6.22399         6.17763
     2013.16632       -13.51985         6.10537
     2013.16906         3.20830         6.25677
     2013.17180        -3.12555         6.16272
     2013.17453        -7.86640         6.07899
     2013.17727        -3.72225         6.28659
     2013.18001       -16.31110         7.45192
     2013.18275        -1.36195         6.20974
     2013.18548        -6.41980         6.09734
     2013.18823        -5.43165         6.15125
     2013.19096        -4.13150         6.46552
     2013.19370        -7.87935         6.08587
     2013.19644        -9.12520         6.09849
     2013.19917        -1.51006         6.26021
     2013.20191        -1.96091         6.14551
     2013.20465         0.98424         6.42308
     2013.20739         7.90639         6.22351
     2013.20987        -1.53538         6.86352
     2013.21688         7.75944        25.67168
     2013.21834         0.67299         6.05949
     2013.22108        -3.37786         6.04114
     2013.22381        -2.10971         6.10996
     2013.22655        -8.04056         6.10422
     2013.22929        -8.42341         6.08243
     2013.23203        -7.45927         6.04458
     2013.23477        -5.43012         6.06752
     2013.23750        -5.20897         6.26939
     2013.24024        -5.55682         6.52172
     2013.24298        -6.27867         6.26365
     2013.24572         2.49248         6.17992
     2013.24846         0.78563         6.22351
     2013.25119         0.13378         6.22580
     2013.25393        -4.63307         6.26709
     2013.25667        -2.82592         6.43111
     2013.25941         0.59223         6.22810
     2013.26214        -1.69462         6.63757
     2013.26488        -1.01547         6.19254
     2013.26762        -4.01033         6.26709
     2013.27036       -11.24618         6.35082
     2013.27310        -3.65103         6.28889
     2013.27583        -1.87888         6.34394
     2013.27857        -0.94473         6.34394
     2013.28131         4.54342         6.22924
     2013.28405        -1.75543         6.17075
     2013.28679        -6.12328         6.17533
     2013.28952        -4.10213         6.31527
     2013.29226        -7.42298         7.01148
     2013.29500        -5.43183         6.23612
     2013.29765        -8.73266         6.72703
     2013.31690        -3.04964         6.35656
     2013.31964         7.34851         6.51140
     2013.32238        -1.03334         6.23612
     2013.32512         8.30881         6.38408
     2013.32785        -0.65204         6.26136
     2013.33059        -6.45389         6.22121
     2013.33333       -11.17775         6.16042
     2013.33607        -6.62860         6.15813
     2013.33880        -2.06045         6.30150
     2013.34154        -0.49630         6.18336
     2013.34428        -1.92315         6.59283
     2013.34702        -8.69200         6.23268
     2013.34976        -1.88485         6.87843
     2013.35249        -6.62370         6.18795
     2013.35523        -1.08655         6.82682
     2013.35797         4.71160         6.18336
     2013.36071        -2.54225         6.29462
     2013.36344         2.20290         7.22023
     2013.36618         4.89805         6.20745
     2013.36892         0.74219         6.28889
     2013.37166         1.25334         6.14437
     2013.37440        -5.74051         6.22695
     2013.37713        -4.09536         6.20516
     2013.37987        -5.55821         6.23957
     2013.38261        -8.81806         6.77635
     2013.38535        -1.01791         6.39555
     2013.38809        -3.88876         6.23383
     2013.39082        -0.05961         6.40932
     2013.39907        -2.16418         7.29249
     2013.40177         1.83098         6.34738
     2013.40451         1.90113         6.15928
     2013.40725         3.39928         6.39785
     2013.40999         1.23643         6.34968
     2013.41273        -1.18742         6.22695
     2013.41546        -8.93627         7.05507
     2013.41821        -1.07012         6.23268
     2013.42094         5.43403         6.25218
     2013.42369        -8.64482         6.29233
     2013.42642         1.14233         6.25104
     2013.42915         0.74548         6.22465
     2013.43190         3.24562         6.34738
     2013.43463         1.96777         6.28315
     2013.43737         5.19192         6.20401
     2013.44010         2.44007         6.24415
     2013.44284        -1.22778         6.32329
     2013.44558        -1.57763         6.43685
     2013.44832        -0.00948         6.35082
     2013.45106        -8.12733         6.26365
     2013.45377        -0.56418         6.68459
     2013.45653        -6.37003         6.27512
     2013.45927        -1.40588         7.59644
     2013.46201         7.08727         6.31871
     2013.46475        -0.32058         6.19942
     2013.46748        -3.67643         6.18107
     2013.47022         0.28171         6.37376
     2013.47296        -6.11314         6.11684
     2013.47570        -4.51599         6.17419
     2013.47763         8.05541        12.97921
     2013.48121         5.37030         8.58858
     2013.48391         2.07546         6.64560
     2013.48665        -1.47939         8.27775
     2013.48939        -5.79824         7.04474
     2013.49212         7.40891         7.97265
     2013.49486        -2.14394         7.67788
     2013.49760         7.03621         6.62380
     2013.50034         1.11836         6.38294
     2013.50308         8.26650         6.30265
     2013.50581         0.11865         6.14895
     2013.50855         1.06780         6.13748
     2013.51129         1.71595         6.51713
     2013.51403         1.98410         6.11684
     2013.62440        17.86980        10.66576
     2013.62628        12.26622         6.71327
     2013.62902         4.99237         6.15239
     2013.63175        10.77352         6.07096
     2013.63449         8.79167         6.40817
     2013.63723        12.72381         6.11913
     2013.63997        13.86696         6.26136
     2013.64271        17.37911         6.12601
     2013.64544         6.20826         6.14551
     2013.64818        10.11741         6.17878
     2013.65092        14.38256         6.32329
     2013.65366         7.55671         6.54351
     2013.65639         7.65086         6.13748
     2013.65913        13.97901         6.27971
     2013.66187         5.11416         6.20630
     2013.66461         8.39831         6.09849
     2013.66735        12.76046         6.15469
     2013.67008        14.28060         6.24530
     2013.67282         8.56075         6.54237
     2013.67556        10.99890         6.38753
     2013.67830        17.43805         6.19942
     2013.68104        20.30020         6.51713
     2013.68377         6.37335         6.08014
     2013.68651         1.81450         6.05605
     2013.68925         9.58565         6.11799
     2013.69199         4.19680         6.06637
     2013.69472        11.03795         6.08587
     2013.69746         5.71310         6.08931
     2013.70020         7.84325         6.10078
     2013.70294        15.55540         6.08128
     2013.70568        15.37054         6.08358
     2013.70841         9.81669         6.26250
     2013.71115        11.30384         6.13404
     2013.71389        13.05099         6.10078
     2013.71663         5.29314         6.09161
     2013.71937         9.50829         6.02967
     2013.72210        17.44044         6.09849
     2013.72484        20.01259         6.12716
     2013.72758        10.48474         6.12946
     2013.73032         9.47089         6.15469
     2013.73305        13.53804         6.07555
     2013.73579         9.12319         6.07096
     2013.73853         7.81533         6.09734
     2013.74127         8.13448         6.18222
     2013.74401        17.75363         6.27971
     2013.74674        13.01778         6.21777
     2013.74948        11.72093         6.03884
     2013.75222         2.45808         6.21548
     2013.75496         0.66823         6.06522
     2013.75770        -1.02962         6.73735
     2013.76043        -0.15247         6.07325
     2013.76317         2.96068         6.04687
     2013.76591        13.34183         6.28086
     2013.76865        -1.33302         6.12487
     2013.77138         7.30712         6.25333
     2013.77412        13.74527         6.23154
     2013.77686         5.61242         6.09390
     2013.77960         8.78957         6.07096
     2013.78182         2.69388         7.48748
     2013.78621       -10.53648        16.62317
     2013.78781        -1.52698         6.13060
     2013.79055         7.77817         6.12372
     2013.79329         2.55232         6.05605
     2013.79603         9.43747         6.08128
     2013.79876         5.22562         6.10537
     2013.80150        11.31677         6.28544
     2013.80424         3.23292         6.22121
     2013.80698         1.36906         6.05949
     2013.80971         6.08121         6.05146
     2013.81245         5.34636         6.06178
     2013.81519         1.70851         6.08014
     2013.81793         1.24866         6.12257
     2013.82067        10.96481         6.20974
     2013.82340         8.61496         6.09161
     2013.82569         8.67425         7.70082
     2013.82888         9.10926         6.17419
     2013.83162         1.22141         6.11454
     2013.83436         4.50656         6.29691
     2013.83709         7.93071         6.18451
     2013.83983        11.39585         6.16960
     2013.84257         5.17200         6.15125
     2013.84531        -3.35385         6.14895
     2013.84804       -13.37370         6.09849
     2013.85078        -2.51455         6.17189
     2013.85352         9.38360         6.02852
     2013.85626         1.20475         6.16731
     2013.85900        -8.54210         6.05375
     2013.86173        -0.38195         6.05949
     2013.86447        -3.82280         6.08702
     2013.86721         1.23735         6.03426
     2013.86995         8.93350         6.01820
     2013.87269         9.67264         6.17189
     2013.87542        -0.07921         6.06408
     2013.87816         9.66894         6.06408
     2013.88090        10.18709         6.21663
     2013.88364         8.48224         6.42308
     2013.88637         7.93239         6.09734
     2013.88911        -2.14346         6.09619
     2013.89185        -5.00831         7.19959
     2013.89459        -5.56916         6.15239
     2013.89733         1.14899         6.09734
     2013.90006         0.53714         6.19827
     2013.90280        -1.96271         6.17878
     2013.90554         0.80044         6.08472
     2013.90828         1.22358         6.05949
     2013.91102         1.23073         6.08931
     2013.91375        -8.45412         6.08587
     2013.91649        -4.02897         6.12601
     2013.91923         7.55618         6.17075
     2013.92197         1.59133         6.11340
     2013.92470         0.48048         6.07440
     2013.92744         2.71063         7.44619
     2013.93007         3.17281         6.56990
     2013.93663        -0.74123        10.76096
     2013.93839         3.71223         6.06064
     2013.94113         0.91837         6.23498
     2013.94301         2.26479         9.65642
     2013.94661        -0.75033         6.11799
     2013.94935         2.98382         6.04687
     2013.95208         1.29897         6.05146
     2013.95482        -1.11088         6.63413
     2013.95756         2.98427         6.09963
     2013.96030         2.92242         6.08014
     2013.96303         8.24457         6.05605
     2013.96577         2.56972         6.10193
     2013.96851         5.01787         6.14437
     2013.97125        -1.18198         6.13175
     2013.97399       -13.93984         6.11454
     2013.97672       -19.35169         6.13978
     2013.97946        -8.02054         6.11225
     2013.98220        -9.75039         6.12028
     2013.98494        -8.35824         6.16616
     2013.98767       -11.93909         6.11340
     2013.99041       -11.90794         6.08472
     2013.99315       -14.67379         6.10307
     2013.99589       -12.15864         6.15584
     2013.99863        -8.62649         6.16386
     2014.00410        -8.72219         6.10078
     2014.00684         2.35395         6.16157
     2014.00958         7.97610         6.17878
     2014.01232         0.26025         6.26250
     2014.01505        -1.01260         6.19942
     2014.01779        -1.53945         6.22580
     2014.02053        -1.85330         6.05490
     2014.02327        -9.22915         6.35426
     2014.02600         4.68700         6.33132
     2014.02874         3.35315         6.14551
     2014.03148        11.49630         6.11684
     2014.03422         2.37045         6.04802
     2014.03696        -1.94040         6.11454
     2014.03969         2.00175         6.14207
     2014.04243         1.06489         6.26595
     2014.04517         3.82504         6.28889
     2014.04791         0.46519         6.06178
     2014.05065         2.65634         6.07211
     2014.05338        -2.89151         6.06293
     2014.05612        -2.91436         6.07325
     2014.05886        -3.15821         6.14666
     2014.06160         1.01694         6.10307
     2014.06433        -0.92291         6.24874
     2014.06707         2.61024         6.24530
     2014.06981         2.57339         6.13748
     2014.07255         1.57854         6.08702
     2014.07529         3.43668         6.12372
     2014.07802        -5.15817         6.10307
     2014.08076        -8.55402         6.31985
     2014.08350       -10.48887         6.13978
     2014.08626        -9.82773         6.60430
     2014.09017         1.22506        26.43672
     2014.09171       -11.89342         6.43685
     2014.09445       -16.87127         7.48174
     2014.09719       -11.31512         6.27397
     2014.09995        -2.15398         6.38179
     2014.10266         1.54418         6.23842
     2014.10540        -0.26067         6.06867
     2014.10814        -1.89753         6.08014
     2014.11088        -2.50938         6.26021
     2014.11362        -8.40423         6.08472
     2014.11635         9.09592         7.01492
     2014.11909         4.86607         6.28774
     2014.12183         1.88922         6.10881
     2014.12457         2.92037         6.20630
     2014.12731         4.21552         6.07555
     2014.13004         7.03267         6.04687
     2014.13278         2.66982         6.28315
     2014.13552         4.80897         6.23842
     2014.13826         6.09312         7.05048
     2014.14099         0.04627         6.11684
     2014.14373         4.51341         6.18451
     2014.14647        -4.10344         6.19942
     2014.14921        -8.06429         6.11110
     2014.15195        -9.44714         6.12716
     2014.15468        -1.06099         6.15698
     2014.15742         6.38416         6.18107
     2014.16016         5.93931         6.49075
     2014.16290        -0.32454         6.56990
     2014.16564        -0.91439         6.23727
     2014.16837        -6.68924         6.58481
     2014.17111        -1.99809         6.40244
     2014.17385         4.31006         6.36688
     2014.17659         4.02120         6.48731
     2014.17932         1.74335         6.78094
     2014.18206        -0.42250         6.29347
     2014.18480         1.27865         6.21548
     2014.18754        -1.45420         7.13421
     2014.19028        -3.04805         6.52516
     2014.19301        -0.44890         6.27627
     2014.19575         2.52925         6.16272
     2014.19849         8.24540         6.25448
     2014.20123        -1.71545         6.38408
     2014.20397        -3.35530         6.17878
     2014.20670         5.98785         6.19025
     2014.20944         3.81999         6.19483
     2014.21218        -0.22986         6.15698
     2014.21491         1.16729         6.37606
     2014.21765         0.95044         6.24645
     2014.22039         1.61159         9.34788
     2014.22307        -1.61424         6.33935
     2014.22588        -2.96311         6.24415
     2014.22861         2.98104         6.20745
     2014.23134         6.91319         6.29233
     2014.23408        -0.71066         6.11225
     2014.23682         2.19249         6.13290
     2014.23956        -3.88836         6.39097
     2014.24226         0.94680         6.47699
     2014.24578        -5.48430        10.12324
     2014.24787         4.98205         6.81076
     2014.25051        -0.07177         6.20630
     2014.25325        -5.39662         6.18222
     2014.25598        -1.34047         6.33821
     2014.25872        -0.15132         6.26365
     2014.26146         2.37983         6.34050
     2014.26420        -4.62602         6.18451
     2014.26694        -8.35887         6.16042
     2014.26967        -0.95172         6.21204
     2014.27241        -3.71357         6.27742
     2014.27454         1.10276         9.84223
     2014.28084         2.09581         6.77635
     2014.28336         0.05002         6.21204
     2014.28610         7.91517         6.38982
     2014.28884         0.30932         6.56531
     2014.29158        -5.35253         6.33476
     2014.29431         1.14562         6.20630
     2014.29705         1.42677         6.18566
     2014.29979        -3.19608         6.28659
     2014.30253         0.28607         6.17992
     2014.30526         1.70822         6.17075
     2014.30800         1.01437         6.17304
     2014.31074        -0.76849         6.22924
     2014.31348        -1.70534         6.18680
     2014.31622         2.02481         8.17681
     2014.31895         0.20196         6.15239
     2014.32169       -11.58789         6.30724
     2014.32443       -10.98474         6.41276
     2014.32717        -9.15959         6.30494
     2014.32991        -2.15844         6.19827
     2014.33264         0.76371         6.14895
     2014.33538        -0.39214         6.16616
     2014.33812        -1.57399         6.22695
     2014.34086         0.59016         6.12143
     2014.34360        -2.95069         6.16960
     2014.34633        -3.38555         6.20401
     2014.34907        -2.00040         6.30380
     2014.35181         0.47975         6.36115
     2014.35455        -5.92710         6.12372
     2014.35728        -7.68795         6.13634
     2014.36002       -13.19880         6.14207
     2014.36276       -11.22965         6.20516
     2014.36550        -7.04550         6.23268
     2014.36824        -5.47635         6.36000
     2014.37097        -3.82420         6.44946
     2014.37371        -6.66305         6.30265
     2014.37645        -6.15090         6.17075
     2014.37919        -1.81376         6.27512
     2014.38193       -11.28561         6.25906
     2014.38466       -10.01046         6.29118
     2014.38740        -3.29531         6.44487
     2014.39014        -0.14516         6.25448
     2014.39288        -6.57501         6.32329
     2014.39561        -6.00186         6.23727
     2014.39835        -3.12171         6.29462
     2014.40109        -1.84556         6.30380
     2014.40383       -10.05341         6.39900
     2014.40657        -8.58826         6.46896
     2014.40930        -9.47511         6.23842
     2014.41204        -4.62897         6.12601
     2014.41478        -5.52482         6.20974
     2014.41752        -2.83667         6.26824
     2014.42026        -0.23352         6.45520
     2014.42299        -4.72337         6.29462
     2014.42573         3.29878         6.25562
     2014.42847         0.23993         6.19942
     2014.43121        -5.84592         6.11454
     2014.43394        -5.50277         6.19483
     2014.43668         4.10538         6.23268
     2014.43942         2.96053         7.19844
     2014.44216        -7.31732         6.47126
     2014.44490         0.46482         6.35770
     2014.44763        -7.10003         6.83370
     2014.45037        -4.52488         6.14895
     2014.45311        -0.58473         6.12487
     2014.45585         1.72442         6.22351
     2014.45859       -11.83543         6.11340
     2014.46132       -10.21128         6.18222
     2014.46406        -2.26013         6.24874
     2014.46680        -4.35598         6.32788
     2014.46954        -5.54583         6.14322
     2014.47227        -4.37368         6.30953
     2014.47501        -0.94153         6.23498
     2014.47775        -1.91038         6.19598
     2014.48049       -10.97724         6.28659
     2014.48323         3.99091         6.21663
     2014.48596        -2.26794         6.26365
     2014.48870         3.53021         6.25333
     2014.49144         6.07836         6.07899
     2014.49418        -3.27149         6.09390
     2014.49692        -5.06634         6.14895
     2014.49965        -5.61219         6.12487
     2014.50239        -2.02604         6.26824
     2014.50513         0.65211         6.20057
     2014.50787         5.03526         6.17075
     2014.51060        -0.71959         6.13863
     2014.51334        -4.33145         6.21548
     2014.51608         5.22170         6.07784
     2014.51882         2.84385         6.13748
     2014.52156         8.28700         6.22924
     2014.52429         2.22115         6.20172
     2014.52703         2.58230         6.21777
     2014.52977        -4.21655         6.11110
     2014.53251         7.03360         6.23842
     2014.53525         4.10075         6.27397
     2014.53798         9.71690         6.15354
     2014.54072         9.71905         6.40244
     2014.54346        -0.09480         6.21777
     2014.54620         6.93634         6.09619
     2014.54893         8.70849         6.11799
     2014.55167         2.91064         6.14207
     2014.55441        -4.02521         6.19139
     2014.55715        -2.34706         6.27971
     2014.55989        -3.59191         6.26021
     2014.56262        -0.09076         6.14207
     2014.56536        -1.66661         6.33591
     2014.56810        -2.29146         6.18680
     2014.57084        -1.56731         6.21892
     2014.57357        -4.72816         6.36803
     2014.57631        -1.63501         6.20172
     2014.57905         0.32514         6.13519
     2014.58179         1.21128         6.21089
     2014.58453         0.31043         6.36229
     2014.58726         4.49158         6.55498
     2014.59000         9.69873         6.33018
     2014.59274         1.96388         6.24989
     2014.59548         6.94903         6.23612
     2014.59822         6.11018         6.24301
     2014.60095         3.55833         6.34050
     2014.60369         4.39148         6.23842
     2014.60643        -2.02737         6.24645
     2014.60917        -0.90722         6.19942
     2014.61190         7.17993         6.33591
     2014.61464         3.24608         6.37606
     2014.61738         2.22722         6.41964
     2014.62012         2.60637         6.42538
     2014.62286         5.61052         6.18451
     2014.62559         3.55367         6.26709
     2014.62833         5.68182         6.36344
     2014.63107         7.72097         6.26480
     2014.63381        10.60712         6.43799
     2014.63655         1.19127         6.25448
     2014.63928         6.80642         6.32100
     2014.64202         2.56357         6.16042
     2014.64476         2.38972         6.18566
     2014.64750         4.07586         6.19483
     2014.65023        -2.33099         6.34853
     2014.65297         0.95516         6.24415
     2014.65571         1.48231         6.51025
     2014.65845         8.02246         6.18107
     2014.66119         8.46561         6.17648
     2014.66392        14.45176         6.15698
     2014.66666        10.60791         6.09963
     2014.66940        14.25406         6.21318
     2014.67214         8.16621         6.30724
     2014.67488        -0.50664         6.17189
     2014.67761        -0.09049         6.14207
     2014.68035         1.72166         6.15239
     2014.68309         2.00380         6.08816
     2014.68583         7.00895         6.12831
     2014.68857        10.44710         6.17419
     2014.69130         6.06125         6.22121
     2014.69404        -2.24260         6.13748
     2014.69678        -1.14245         6.08014
     2014.69952         4.98370         6.10422
     2014.70225         2.95885         6.11225
     2014.70499         5.58700         6.12028
     2014.70773         6.51215         6.13060
     2014.71047         7.47530         6.18566
     2014.71321        10.85745         6.01705
     2014.71594         5.22959         6.10996
     2014.71868        -4.94226         6.15928
     2014.72142         5.42389         6.08128
     2014.72416         7.50604         6.05834
     2014.72689         8.89619         6.17763
     2014.72963         6.70234         6.04802
     2014.73237         4.24949         6.33935
     2014.73511         0.74364         6.13060
     2014.73785        -1.26021         6.18451
     2014.74058        -3.03706         6.15354
     2014.74332         8.19409         6.49764
     2014.74606        17.18224         6.32444
     2014.74880         3.76638         6.16042
     2014.75153         7.30454         6.38982
     2014.75427         5.05668         6.11225
     2014.75701         3.85383         6.15928
     2014.75975        -4.09302         6.39211
     2014.76249         4.98513         6.20630
     2014.76522         4.89128         6.13634
     2014.76794         8.40344         6.16731
     2014.77002         2.74779         8.17796
     2014.79272        -4.10126         6.39785
     2014.79534         6.14992         6.06752
     2014.79808         2.52107         6.37376
     2014.80082         1.94622         6.14895
     2014.80355         6.05537         6.30724
     2014.80629        -6.45848         6.30150
     2014.80903        -0.00133         6.31068
     2014.81177        -1.66218         6.10078
     2014.81451         9.74097         6.09390
     2014.81724        13.04611         6.20401
     2014.81998         3.66026         6.19713
     2014.82272         7.65441         6.27168
     2014.82546         4.12756         6.27168
     2014.82820        -4.51629         6.07211
     2014.83093         1.29986         6.19139
     2014.83367         2.10801         6.14895
     2014.83641         0.87016         6.21204
     2014.83915         2.86731         6.93005
     2014.84188         4.38446         6.42652
     2014.84462        -0.92039         6.20630
     2014.84736         0.04376         6.24645
     2014.85010        -2.11710         6.25448
     2014.85284         4.24005         6.22924
     2014.85557         9.21620         6.21318
     2014.85831        11.42835         6.19827
     2014.86105        -4.96750         6.19369
     2014.86379        -5.51435         6.21204
     2014.86653        -5.84320         6.18222
     2014.86926        -2.03405         6.18451
     2014.87200        -3.63190         6.28200
     2014.87474        -5.94275         6.23612
     2014.87748        -7.07560         6.19713
     2014.88021        -1.59045         6.24530
     2014.88295         0.88269         6.22236
     2014.88569         2.63584         6.55040
     2014.88843         6.46399         6.43685
     2014.89117        15.32914         6.45290
     2014.89390         4.45329         6.41964
     2014.89664         4.21244         6.30036
     2014.89938        -9.50641         6.21548
     2014.90212        -6.05626         6.23383
     2014.90485        -3.98211         6.15239
     2014.90759         3.94404         6.46093
     2014.91033         4.54019         6.21089
     2014.91307         1.38234         6.11454
     2014.91581         0.84749         6.11569
     2014.91854         2.37363         6.06637
     2014.92128         0.12978         6.11110
     2014.92402         2.05993         6.17189
     2014.92676        -8.82392         6.21663
     2014.92950       -24.03877         6.13634
     2014.93223        -7.67862         6.11799
     2014.93497        -5.43347         6.18566
     2014.93771        -3.50432         6.26250
     2014.94045        -0.77317         6.18795
     2014.94318        -3.09502         6.47470
     2014.94592         2.19413         6.17648
     2014.94846        -2.32266         6.65248
     2014.95140        -4.66358         6.05490
     2014.95414        -2.66043         6.42767
     2014.95687        -1.00228         6.46667
     2014.95962        -6.31513         6.20630
     2014.96235        -7.74498         6.28430
     2014.96509        -1.85683         6.19713
     2014.96783        -8.28268         6.09046
     2014.97056       -23.45853         6.18566
     2014.97330        -5.00538         6.21663
     2014.97604        -5.90123         6.35082
     2014.97878        -0.45208         6.16386
     2014.98151         9.21307         6.22810
     2014.98426        -2.61179         6.25218
     2014.98699        -3.63064         6.13175
     2014.98973       -10.90149         6.11340
     2014.99247       -18.89134         6.05834
     2014.99520       -13.92519         6.10078
     2014.99794        -6.74204         6.04802
     2015.00068        -7.10789         6.06637
     2015.00342        -6.43774         6.06867
     2015.00616        -8.75359         6.11684
     2015.00889        -9.23244         6.12487
     2015.01163       -16.88629         6.19025
     2015.01437       -23.37914         6.31527
     2015.01711        -7.46199         6.35656
     2015.01984        -3.52485         6.12831
     2015.02258        -0.53670         6.25792
     2015.02532        -1.85555         6.09161
     2015.02806        -3.25540         6.24071
     2015.03080        -3.53125         6.21892
     2015.03354        -7.03010         6.10537
     2015.03627        -4.00895         6.10652
     2015.03901        -3.12580         6.09505
     2015.04175        -2.62465         6.16042
     2015.04449         1.41850         6.16731
     2015.04722        -8.32635         6.17992
     2015.04996        -3.76820         6.17419
     2015.05270        -2.37706         6.09849
     2015.05544        -3.77991         6.15354
     2015.05817        -3.83476         6.17878
     2015.06091        -8.74961         6.19254
     2015.06365         2.47854         6.40817
     2015.06639         2.55269         6.13175
     2015.06913        -3.13616         6.10078
     2015.07186        -2.08001         6.15010
     2015.07460        -1.81686         6.18910
     2015.07734        -6.54371         6.12257
     2015.08008        -3.86756         6.03999
     2015.08282        -0.44041         6.08128
     2015.08555        -6.51227         6.05949
     2015.08829        -5.46612         6.07096
     2015.09103         2.21303         6.07096
     2015.09377        -2.24282         6.05834
     2015.09650       -11.09767         6.20286
     2015.09924         7.08948         6.31412
     2015.10198         4.33163         6.13863
     2015.10472         2.17578         6.10652
     2015.10746        -2.12107         6.13978
     2015.11019        -7.46192         6.18336
     2015.11293        -2.17277         6.21433
     2015.11567        -3.28062         6.11110
     2015.11841        -8.48247         6.05146
     2015.12115         0.13667         6.15698
     2015.12388        -0.32518         6.08358
     2015.12662        -5.55103         6.00673
     2015.12936        -5.24888         6.07211
     2015.13210        -4.11673         6.10996
     2015.13483        -7.53358         6.19942
     2015.13757        -0.14543         6.14551
     2015.14031        -7.68328         6.05031
     2015.14305        -6.87913         6.00673
     2015.14579        -5.20198         6.11799
     2015.14852        -1.93783         6.11340
     2015.15126        -0.16968         6.07440
     2015.15400        -0.71154         6.11225
     2015.15674         3.84561         6.02508
     2015.15948        -2.16924         6.06064
     2015.16221        -1.72309         6.08472
     2015.16495         1.13706         6.06981
     2015.16769        -0.64179         6.07784
     2015.17043         2.39736         6.11110
     2015.17316        -3.33949         6.39555
     2015.17590        -3.34734         6.26365
     2015.17864        -4.08219         6.12946
     2015.18138         2.73696         6.07669
     2015.18412         3.82011         6.12028
     2015.18685         1.48825         6.20745
     2015.18959         0.79940         6.17648
     2015.19233        -2.91845         6.54696
     2015.19507        -1.80930         6.07440
     2015.19780         1.52185         6.09619
     2015.20054        -5.34700         6.43799
     2015.20328       -18.39185         5.99870
     2015.20602       -10.95570         6.42193
     2015.20876        -4.39555         6.08587
     2015.21149        -6.30440         6.06293
     2015.21423        -7.81625         6.21318
     2015.21697         1.63690         6.08128
     2015.21971        -5.41995         6.07096
     2015.22245         1.77919         6.09505
     2015.22518         2.33134         6.12601
     2015.22792        -7.33151         6.01476
     2015.23066        -2.46836         6.11684
     2015.23340        -3.05121         6.20057
     2015.23613         1.83394         6.29003
     2015.23887        -3.80791         6.37376
     2015.24161         3.12524         6.54581
     2015.24435        -3.73961         6.48387
     2015.24709         1.23854         6.19827
     2015.24982         1.91669         6.03884
     2015.25256        -0.77816         6.09390
     2015.25530         3.04698         6.09849
     2015.25804        -1.79487         6.05261
     2015.26078         2.74928         6.04343
     2015.26351        -0.22057         6.05949
     2015.26625         1.23558         6.07211
     2015.26899        -1.79027         6.11799
     2015.27173         8.60488         6.35770
     2015.27446         4.55803         6.23383
     2015.27720         3.86818         6.03655
     2015.27994        -3.93667         6.09849
     2015.28268         4.70948         6.15928
     2015.28542        -0.44237         6.20057
     2015.28815        -4.32523         6.31641
     2015.29089         0.44292         6.10766
     2015.29363        -3.42493         6.08931
     2015.29637        -1.53478         6.11110
     2015.29911         3.36937         6.10193
     2015.30184         4.33352         6.05375
     2015.30458         5.17867         6.08702
     2015.30732         1.75582         5.93676
     2015.31006         3.73897         6.07211
     2015.31279        -4.98388         5.94594
     2015.31553        -4.49373         5.90235
     2015.31827        -4.07458         5.94594
     2015.32101        -7.67743         5.89432
     2015.32375         0.62071         6.02623
     2015.32648         1.08386         6.07211
     2015.32922         3.09901         6.10537
     2015.33196         9.86416         5.95856
     2015.33470        -1.56369         5.89547
     2015.33744        -4.56554         5.94938
     2015.34017        -3.59339         6.13634
     2015.34289        -9.55824         5.99755
     2015.34566         0.13890         5.94250
     2015.34839        -3.12194         5.90235
     2015.35112        -6.57879         5.93447
     2015.35386        -0.07664         5.95053
     2015.35660        -4.47750         6.04114
     2015.35934        -2.97835         6.12601
     2015.36208        -2.14920         6.00788
     2015.36481        -3.73805         5.94709
     2015.36755        -3.25590         5.92185
     2015.37029        -1.81375         5.94938
     2015.37303         3.80940         6.00099
     2015.37577        -8.93045         5.93103
     2015.37850       -10.64830         6.17419
     2015.38124        -4.24115         5.98608
     2015.38398        -2.03900         5.92644
     2015.38672        -3.39185         6.12487
     2015.38945        -2.86771         6.00788
     2015.39219        -3.04955         6.22236
     2015.39493         1.05959         6.07784
     2015.39767        -8.68526         6.15698
     2015.40041        -6.00611         5.97920
     2015.40314        -8.25696         6.19942
     2015.40588        -8.39481         6.10996
     2015.40861        -9.13766         6.04343
     2015.41138         0.14248         6.11569
     2015.41410        -1.35136         6.09046
     2015.41683        -1.39521         6.09390
     2015.41957        -3.88306         5.98952
     2015.42231         0.19708         6.02279
     2015.42505       -10.74777         6.26824
     2015.42778        -2.67062         5.95741
     2015.43052        -0.18747         6.04917
     2015.43326        -5.34732         6.21892
     2015.43600        -4.97617         6.02393
     2015.43874         2.13698         6.05720
     2015.44147         6.07713         6.27283
     2015.44421         3.23828         6.06637
     2015.44695         0.10943         5.95511
     2015.44969        -3.92842         6.12143
     2015.45243        -2.61727         6.13978
     2015.45516        -3.05212         6.05720
     2015.45790        -5.50298         6.16731
     2015.46064         6.32917         6.14437
     2015.46338        -2.99168         6.19025
     2015.46611         7.98447         6.27856
     2015.46885         7.23362         6.12487
     2015.47159         1.62377         5.98264
     2015.47433         2.14292         6.19942
     2015.47707        -0.69193         6.09161
     2015.47980         1.14722         6.18795
     2015.48254         1.16037         6.51025
     2015.48528        -1.27048         6.07096
     2015.48802        -2.20933         6.02623
     2015.49076        -0.49919         6.09619
     2015.49349         6.45396         6.58710
     2015.49623         7.27711         6.55154
     2015.49897         1.82526         6.21892
     2015.50171         7.94041         6.01246
     2015.50444         1.98556         6.00329
     2015.50718        -3.62029         6.03196
     2015.50992         1.98486         6.01590
     2015.51266         6.43801         6.12487
     2015.51540         5.15016         6.04458
     2015.51813         7.97531         6.18336
     2015.52087         8.75046         6.26595
     2015.52371         6.51257         6.80273
     2015.52635         6.72775         6.48043
     2015.52908         5.84390         6.05146
     2015.53182         4.24405         8.26972
     2015.53456        11.48720         6.11110
     2015.53730        11.31635         6.20286
     2015.54004         9.00550         6.23039
     2015.54277        -1.27535         6.21433
     2015.54523         9.92489         6.77520
     2015.54844        14.80389         6.69606
     2015.55099        11.67510         6.31756
     2015.55373        11.85325         6.18107
     2015.55646        11.76040         6.13060
     2015.55920         9.25654         6.08128
     2015.56194        17.02369         6.09390
     2015.56468        11.38084         6.20516
     2015.56741         5.76199         6.33362
     2015.57015        11.04114         6.48617
     2015.57289         3.31729         6.55957
     2015.57563         9.32544         6.30494
     2015.57837         7.64859         6.29347
     2015.58110         8.52374         6.34509
     2015.58384        12.48689         6.34394
     2015.58658        13.40804         6.42767
     2015.58932        11.29419         6.41161
     2015.59206        14.25833         6.41505
     2015.59479        18.41948         6.28889
     2015.59753         9.19463         6.28430
     2015.60027         9.61678         6.49534
     2015.60301         2.91793         6.52172
     2015.60574         9.68508         6.85205
     2015.60848        17.58123         6.54122
     2015.61122        15.88538         6.38867
     2015.61396        15.20253         6.51484
     2015.61670        13.41168         6.46667
     2015.61943         2.55983         8.08276
     2015.62217        12.40598         6.21318
     2015.62491        20.41212         6.16272
     2015.62765        11.01627         6.24874
     2015.63039         7.72242         6.21777
     2015.63312        17.20957         6.26939
     2015.63586        21.56472         6.27168
     2015.63860         8.27387         6.18795
     2015.64134         9.58102         6.19025
     2015.64407        12.96717         6.16386
     2015.64681         3.18632         6.25104
     2015.64955         6.65247         6.16042
     2015.65229        10.32962         6.26824
     2015.65503        14.44577         6.13748
     2015.65776        13.31692         6.26480
     2015.66050        12.28006         6.30380
     2015.66324        16.32021         6.16501
     2015.66598        17.00636         6.34968
     2015.66872        14.07851         6.43455
     2015.67145         8.52866         6.25562
     2015.67419         7.78281         6.15469
     2015.67693         8.86396         6.16960
     2015.67967         8.42711         6.23498
     2015.68240        -0.66074         6.17763
     2015.68514         6.07541         6.32329
     2015.68788         4.17956         6.29921
     2015.69062         5.65271         6.47011
     2015.69336         5.37785         6.48272
     2015.69609         7.72500         6.24301
     2015.69883        22.57115         6.39555
     2015.70157        16.57530         6.31527
     2015.70431        11.22245         6.50222
     2015.70705        14.11960         6.20286
     2015.70978        10.05775         6.17992
     2015.71252         4.94190         6.17878
     2015.71526        13.07605         6.18336
     2015.71800        21.16520         6.30953
     2015.72073        20.23335         6.49190
     2015.72347        13.23350         6.20286
     2015.72621         0.53664         6.18680
     2015.72895         5.42579         6.18222
     2015.73169         8.81894         6.15010
     2015.73442         8.54009         6.15584
     2015.73714         8.43125         6.35770
     2015.73992        10.67938         6.38408
     2015.74264         4.17454         6.31068
     2015.74538        12.66869         6.48617
     2015.74811         7.35084         6.48617
     2015.75085        -1.65401         6.21892
     2015.75359         1.09814         6.29118
     2015.75633         5.95729         6.26595
     2015.75906         9.74444         6.33018
     2015.76180         5.75858         6.23498
     2015.76454         7.88073         6.17189
     2015.76728         2.63088         6.28430
     2015.77002         9.92403         6.42996
     2015.77275         4.00518         6.19827
     2015.77549        15.22233         6.30380
     2015.77823        11.22848         6.27627
     2015.78097         7.24563         6.17878
     2015.78371         8.97078         6.15239
     2015.78644         8.76293         6.31641
     2015.78918         4.48408         6.36344
     2015.79192        14.78423         6.21089
     2015.79466        10.83737         6.27397
     2015.79739         9.73852         6.28430
     2015.80013        -2.26633         6.49993
     2015.80287         1.02182         6.26136
     2015.80561         4.07097         6.23498
     2015.80835         6.29912         6.24186
     2015.81108         4.53927         6.32674
     2015.81382        -3.16858         6.31641
     2015.81656         1.95757         6.22465
     2015.81930         4.37272         6.32215
     2015.82203         5.80487         6.20974
     2015.82477         8.37202         6.28889
     2015.82751         8.80316         6.38982
     2015.83025         8.95531         6.32215
     2015.83299         4.58646         6.25677
     2015.83572         6.82661         6.22351
     2015.83846         8.71276         6.35082
     2015.84120         4.41291         6.89678
     2015.84394         2.12206         6.42767
     2015.84668        -1.74179         6.40358
     2015.84941         8.27836         6.42652
     2015.85215         8.15251         6.41505
     2015.85489         6.34466         6.60889
     2015.85763         4.43781         6.50681
     2015.86036        -3.10904         6.60889
     2015.86310         6.47010         6.37720
     2015.86584        11.01925         6.40014
     2015.86858         2.90440         6.45176
     2015.87132         1.78055         6.43111
     2015.87405         2.81770         6.63871
     2015.87679        -0.69815         6.34394
     2015.87953         1.59600         6.80847
     2015.88227         8.18415         6.53090
     2015.88501        -2.92970         6.64674
     2015.88774        -3.98155         6.41276
     2015.89048         3.78560         6.59857
     2015.89322         8.90675         6.46781
     2015.89596         2.92489         6.29118
     2015.89869        -5.60496         6.37720
     2015.90144       -14.83381         6.47814
     2015.90417       -14.58066         6.63757
     2015.90691       -14.38751         6.48272
     2015.90965        -9.57936         6.76373
     2015.91238       -10.41421         6.37376
     2015.91512        -8.96306         6.40014
     2015.91786       -11.90391         6.42996
     2015.92060       -16.48776         6.47814
     2015.92334         6.80139         6.42652
     2015.92607        -1.28146         6.38064
     2015.92836       -30.39118         8.25940
     2015.93201         3.35169         9.25727
     2015.93432         2.84897         6.75226
     2015.93702         5.06413         6.64215
     2015.93976         4.57028         6.64445
     2015.94250         5.97943         6.63413
     2015.94524        -0.51942         6.47355
     2015.94798         6.03973         6.52975
     2015.95071         8.08788         6.30036
     2015.95346         1.32303         6.66280
     2015.95619         7.39018         6.56072
     2015.95893         3.09633         6.48617
     2015.96167        -6.74053         6.48158
     2015.96440       -12.73838         6.38753
     2015.96714        -9.74723         6.58825
     2015.96988       -11.91808         6.35426
     2015.97262       -10.96893         6.23039
     2015.97535         7.28722         6.31412
     2015.97809         2.12937         6.35082
     2015.98083        -4.99448         6.33247
     2015.98357       -11.44333         6.25333
     2015.98631       -12.17318         6.46781
     2015.98904       -17.32903         6.44602
     2015.99178       -15.25788         6.29577
     2015.99452       -11.46173         6.25218
     2015.99726       -17.00559         6.43570
     2016.00000       -16.15844         6.50108
     2016.00273       -14.84729         6.45979
     2016.00547       -14.36014         6.36344
     2016.00821       -11.15899         6.42652
     2016.01095        -9.83384         6.40817
     2016.01368        -3.69569         6.49190
     2016.01642         0.97046         6.63871
     2016.01916        -2.67939         6.68230
     2016.02190        -0.18524         6.40014
     2016.02463         0.09391         6.47699
     2016.02743        -4.16696         6.60775
     2016.03011        -2.53680         6.28315
     2016.03285        -7.11565         6.31985
     2016.03559         2.57350         6.32444
     2016.03833        -0.14835         6.44832
     2016.04107        -4.08620         6.33132
     2016.04380       -10.24505         6.47355
     2016.04654        -0.20590         6.19483
     2016.04928        -3.32375         6.33476
     2016.05201        -1.49560         6.29691
     2016.05475        -7.64945         6.23383
     2016.05749        -1.45830         6.71441
     2016.06022        -1.59115         6.61692
     2016.06297        -1.34301         6.40473
     2016.06570        -1.14886         6.41047
     2016.06844        -5.14071         6.33591
     2016.07118        -6.41656         6.47126
     2016.07392         1.62959         6.38753
     2016.07666         0.52674         6.25677
     2016.07939        -3.94311         6.29233
     2016.08213         2.73804         6.40702
     2016.08487        -0.78181         6.34050
     2016.08761        -7.68966         6.20172
     2016.09034        -5.66251         6.46667
     2016.09308       -15.36436         6.36115
     2016.09582        -7.47221         6.32329
     2016.09856       -10.47307         6.39555
     2016.10130       -13.73892         6.36803
     2016.10403       -14.31977         6.15813
     2016.10677       -11.13362         6.22695
     2016.11168        -8.40114         8.22040
     2016.11498        -9.54117         6.24301
     2016.11772       -12.74802         6.39670
     2016.11961       -10.51061        10.97429
     2016.12320        -6.18772         6.19827
     2016.12594        -4.50157         6.15010
     2016.12867        -4.48542         6.18336
     2016.13141         4.74572         6.17648
     2016.13415        -1.88113         6.04802
     2016.13689        -1.94498         6.19942
     2016.13957        -4.89681         6.31068
     2016.14239       -15.72269         6.14437
     2016.14510       -14.63053         6.25333
     2016.14687       -12.31808        11.76915
     2016.15058        -7.17123         6.13060
     2016.15331        -5.86908         6.15469
     2016.15605        -5.21693         6.14895
     2016.15879        -9.06378         6.31641
     2016.16153        -7.71263         6.14781
     2016.16352        -8.15625         9.57498
     2016.16592         0.85300        13.44489
     2016.16974        -1.50019         6.26709
     2016.17248        -7.35004         6.40817
     2016.17522        -5.74289         6.10078
     2016.17796        -1.87974         6.17304
     2016.18069        -1.04859         6.15239
     2016.18343        -6.39444         6.34394
     2016.18617        -3.13629         6.08816
     2016.18891       -14.71314         6.04343
     2016.19164        -2.00299         6.03196
     2016.19438         0.72816         5.96658
     2016.19712        -0.98869         5.92300
     2016.19986        -6.19055         6.24874
     2016.20146       -12.04304        15.00822
     2016.20533        -8.74725         6.41505
     2016.20807        -8.10010         6.27512
     2016.21081       -11.11895         6.17419
     2016.21258       -14.12650        13.33363
     2016.21589        -9.55253         7.52877
     2016.21902         0.21450         6.01361
     2016.22176         1.13065         5.96314
     2016.22433        -7.33215         6.44717
     2016.22724        -7.22405         6.21204
     2016.22997        -3.32190         6.04573
     2016.23271        -3.58876         6.16731
     2016.23488        -5.14443         8.01509
     2016.23819        -4.43046         5.92873
     2016.24093        -2.58431         6.06981
     2016.24366        -5.48416         5.99985
     2016.24640        -0.15501         6.03999
     2016.24914        -6.69486         6.02623
     2016.25188        -3.07971         6.26021
     2016.25439        -8.43849         6.92087
     2016.25735        -5.73141         6.04228
     2016.25935        -6.29803         9.31806
     2016.26266       -10.43906         6.52746
     2016.26557       -12.71397         6.03426
     2016.26830        -9.26382         6.09046
     2016.27104        -3.94067         6.18222
     2016.27378         0.62648         6.04228
     2016.27652        -3.93437         5.98952
     2016.27926        -3.36322         6.09161
     2016.28199        -6.31807         6.39785
     2016.28473        -2.39392         6.13863
     2016.28746        -9.96177         6.24186
     2016.29021       -19.54762         6.07669
     2016.29295        -8.44947         6.02852
     2016.29443       -11.78193        23.36167
     2016.29842        -4.39018         6.20630
     2016.30116        -7.04603         6.24989
     2016.30390       -10.57588         6.14093
     2016.30663         0.81027         6.22810
     2016.30937        -8.13058         6.05490
     2016.31211        -4.67243         6.05375
     2016.31485        -1.92828         6.24645
     2016.31759        -3.95013         6.19483
     2016.31918        -9.24663        16.92367
     2016.32306       -16.73383         6.17992
     2016.32534       -12.44054         7.52762
     2016.32854        -9.57153         6.07325
     2016.33128       -11.02338         6.12028
     2016.33401       -11.06624         6.22580
     2016.33675        -4.45709         6.12143
     2016.33949        -2.20794         6.09161
     2016.34223        -6.64279         6.19713
     2016.34474        -7.83457         6.92890
     2016.34770        -1.85149         6.15584
     2016.35044        -2.84434         6.53434
     2016.35318        -0.35419         6.10996
     2016.35517       -13.87481         9.17124
     2016.35831       -14.87079         7.12618
     2016.36031        -1.80241        15.12062
     2016.36413        -3.45759         6.27283
     2016.36687        -2.56645         5.98608
     2016.36961         8.53970         6.18910
     2016.37234         2.92385         6.13404
     2016.37383        -9.78161        28.15030
     2016.37782        -6.15885         6.26824
     2016.37947         7.58064        16.25154
     2016.38329        -2.63055         6.06293
     2016.38603         0.00260         6.16272
     2016.38877         7.83175         6.21433
     2016.39151        -1.79310         6.05605
     2016.39350        -4.16472         8.68837
     2016.39698         0.42620         6.01361
     2016.39972         3.88334         7.34411
     2016.40246        -1.68051         6.20057
     2016.40479       -10.88523         7.74440
     2016.42258         9.40524        13.25449
     2016.42362       -12.41708         9.13110
     2016.42710        -2.94216         6.05720
     2016.42984        -0.93601         6.20974
     2016.43258        -2.35786         6.22007
     2016.43531         2.98128         6.21777
     2016.43805         0.01343         6.41391
     2016.44079        -0.83142         6.04802
     2016.44495         9.68829       121.79310
     2016.44900        -5.35397         6.06867
     2016.45043        16.40359        96.47125
     2016.45385        -2.38048         8.70557
     2016.45705        -0.44247         6.60660
     2016.45995        -6.37637         6.29691
     2016.46269         0.48678         6.12487
     2016.46480        -6.53488         8.72277
     2016.46817        -4.64393         6.40817
     2016.47051        -1.23465         7.61479
     2016.47364        -6.75463         6.70868
     2016.47639        10.71052         6.70639
     2016.47912         1.37367         6.52172
     2016.48186        -4.23618         6.67198
     2016.48459        -3.76903         6.01476
     2016.48734        -3.06488         6.63298
     2016.48890         1.89063        28.48407
     2016.49281        -4.90758         6.19942
     2016.49555        -4.21543         6.55613
     2016.49829        -7.19229         6.65018
     2016.50102         2.20286         6.18107
     2016.50365         1.64505         6.79585
     2016.50651         3.41516         6.77750
     2016.50924        -2.17069         6.03311
     2016.51197         1.59046         6.01820
     2016.51403         1.21682         8.75030
     2016.51745         0.26876         6.81764
     2016.52019        -3.57809         6.23842
     2016.52162       -25.67854       114.54993
     2016.52464        25.62153        11.51682
     2016.52840        -0.95164         6.58481
     2016.53114        -3.85549         6.11684
     2016.53268        -7.65197        18.81504
     2016.53661         0.21980         6.59628
     2016.53924         2.40899         6.21433
     2016.54180         0.01719         6.97707
     2016.54709        -4.02245         7.20073
     2016.55124         1.68726        12.51239
     2016.55236         4.14491         8.86385
     2016.55578        11.91685         6.49878
     2016.55818         1.92910         8.69639
     2016.56057         7.90036         9.27677
     2016.56376         1.04337         6.62380
     2016.56673         0.83245         6.80617
     2016.56947        -0.26441         6.77635
     2016.57220         3.47475         6.52172
     2016.57494         5.38389         6.58939
     2016.57734        10.37315         7.14224
     2016.57911        36.07960        83.06536
     2016.58287         0.78043         6.62036
     2016.58590         2.46249         7.07113
     2016.58863         2.53364         6.20286
     2016.59137        -0.50521         6.79356
     2016.59410         7.07494         6.09849
     2016.59685        12.17009         6.15584
     2016.59958         6.10424         6.62380
     2016.60232         8.76538         6.28200
     2016.60506         3.23253         6.09963
     2016.60780         2.38368         6.20630
     2016.61029         0.18091         6.81535
     2016.61202         1.15737        24.98579
     2016.61601         5.49913         6.11569
     2016.61875         4.52428         6.06752
     2016.62052        18.90173        12.24515
     2016.62423        11.75658         6.41047
     2016.62696         9.34873         6.03884
     2016.62885         5.96514         9.86746
     2016.63244         3.34503         6.91399
     2016.63444         2.22641         9.29168
     2016.63791        11.38932         6.41849
     2016.64065        19.51647         6.49993
     2016.64339         3.97362         6.60086
     2016.64483        12.06118       122.91944
     2016.64887         2.58192         6.26709
     2016.65183         8.66400         7.23170
     2016.65435         8.71522         6.42079
     2016.65708         3.12437         6.12831
     2016.65982         2.12352         6.15813
     2016.66256         2.24567         6.30265
     2016.66398        -5.81378        94.13600
     2016.66775         4.15505         6.78553
     2016.67077         8.59311         6.18795
     2016.67351         0.85126         6.18451
     2016.67624         6.50941         6.11913
     2016.67881         5.74862         6.76029
     2016.68172        14.46471         6.23268
     2016.68446        11.24186         6.40817
     2016.68594        34.77340        23.54289
     2016.68993         5.36816         6.02967
     2016.69267         6.19331         6.27856
     2016.69541        14.31046         6.35312
     2016.69803         3.71464         6.63986
     2016.69969        14.27313        17.42834
     2016.70345         7.23296         7.11356
     2016.70636         3.79705         6.42538
     2016.70836         7.58743        10.23449
     2016.71184        19.10635         6.18107
     2016.71440        12.94055         6.70294
     2016.71732        11.79865         6.83255
     2016.72005         3.16680         6.04917
     2016.72279         6.78295         6.69721
     2016.72456        13.81240        12.66724
     2016.72826        -2.36475         6.15469
     2016.73100         4.76940         6.27627
     2016.73373         6.40655         6.00902
     2016.73648         3.56569         6.79585
     2016.73921         8.92585         6.30724
     2016.74072        -0.66162        27.29925
     2016.74378         7.76743        11.41588
     2016.74743         7.19429         6.83141
     2016.75017        12.36444         6.02393
     2016.75290         5.31159         6.04687
     2016.75565        10.65274         7.45651
     2016.75822        10.63194         7.45307
     2016.76112         5.89604         6.03884
     2016.76306        -4.43056        10.75522
     2016.76648         5.14837         7.31314
     2016.76870        13.23968         9.22974
     2016.77207         9.41563         7.12389
     2016.77481        10.24678         5.97576
     2016.77754         3.56693         6.09849
     2016.78028         2.70008         6.15469
     2016.78301         1.36623         6.69262
     2016.78576         2.80538         6.40588
     2016.78753        12.74683        11.90794
     2016.79123         2.70368         6.62954
     2016.79397        11.14283         6.19254
     2016.79568         1.65830        12.12242
     2016.79945        -1.09487         6.80388
     2016.80219        -0.51372         6.33132
     2016.80389        11.13775        16.56008
     2016.80712         4.12774         8.43374
     2016.81040        -4.86028         6.30150
     2016.81314         0.28887         5.91268
     2016.81540         0.43217        13.72475
     2016.81861        -7.84983         6.53319
     2016.82135         2.04732         7.13077
     2016.82409         1.51547         6.03770
     2016.82683        -7.09338         6.29347
     2016.83229         3.77792         6.44258
     2016.83505         0.00906         8.97970
     2016.83647       -11.96238        89.75454
     2016.84052        -8.31264         6.48617
     2016.84325        -5.67649         5.98150
     2016.84500        -9.60303        31.30908
     2016.84873         2.45981         8.02771
     2016.85147        -6.16904         7.09751
     2016.85420       -11.62589         6.95757
     2016.85601        -7.01945        23.10016
     2016.85968        -3.11259         6.81994
     2016.86243        -2.45945         6.51828
     2016.86412         7.24603        13.38410
     2016.86790         0.15485         6.29806
     2016.87063         0.69401         6.39097
     2016.87257         6.67740        11.40212
     2016.87610        -7.61869         6.00443
     2016.87888        -5.21756         6.49534
     2016.88158       -12.32240         6.75685
     2016.88380        -1.17709         8.23187
     2016.88706        -4.99410         6.17419
     2016.88978         1.33305         6.18680
     2016.89156        -5.13850        13.69837
     2016.89527       -10.00265         6.23727
     2016.89801        -5.99350         6.29577
     2016.90062        -4.43931         8.40850
     2016.90229         7.59317        21.22370
     2016.90581         0.08807         8.88565
     2016.90805        -7.03362        13.48962
     2016.91153         1.03830         8.74457
     2016.91444         0.66639         6.16386
     2016.91718        -4.76846         6.77176
     2016.91962        -8.74022         8.36033
     2016.92265       -19.95316         6.12601
     2016.92408        29.83940       999.20751
     2016.92813       -13.38786         6.11684
     2016.93069       -15.66266         7.15600
     2016.93360        -9.82856         6.01935
     2016.93525        -6.08708        20.51487
     2016.93908       -11.13227         6.10766
     2016.94113       -12.48190         9.13569
     2016.94455       -16.08097         6.44717
     2016.94729       -12.57382         6.10766
     2016.95006       -14.71468         8.02426
     2016.95368       -12.30480         9.67591
     2016.95477       -21.80614        10.38360
     2016.95816       -18.62120         6.58710
     2016.96098       -17.83507         6.54925
     2016.96290       -21.49467        11.47094
     2016.96520        -3.92738        94.60282
     2016.96919       -20.95662         6.45634
     2016.97193        -2.69547         6.11340
     2016.97455        -0.33029         6.76259
     2016.97741        -1.28118         6.24071
     2016.98015       -10.50903         5.97461
     2016.98271       -21.85782         6.86926
     2016.98562       -19.30373         6.04802
     2016.98836       -14.67758         6.05834
     2016.99030       -11.66918        10.01542
     2016.99384       -23.29028         6.67427
     2016.99657       -21.13413         5.94250
     2016.99920       -21.50495         6.38638
     2017.00074        -9.84343       144.50099
     2017.01300       -27.37124         7.24661
     2017.01540       -33.47398         7.60218
     2017.31964        -9.65253         6.08702
     2017.32238        -9.19638         6.05720
     2017.32512       -13.50823         5.93103
     2017.32785        -6.47808         6.06522
     2017.33059       -14.32393         5.93332
     2017.33333       -12.67278         5.92529
     2017.33607       -13.89663         5.92759
     2017.33880       -16.57348         5.90809
     2017.34154        -1.75533         6.68001
     2017.34428        -9.11519         6.03426
     2017.34702        -9.31904         5.89432
     2017.34976       -10.24089         5.90006
     2017.35249       -12.46874         5.92415
     2017.35523       -14.76359         5.94250
     2017.35797       -16.14944         6.02164
     2017.36071        -7.92529         5.94938
     2017.36344       -11.20914         5.92185
     2017.36618       -12.53099         5.98035
     2017.36892       -12.40784         5.91612
     2017.37166        -8.36669         5.93103
     2017.37440        -6.77654         5.91497
     2017.37713        -9.52240         6.01705
     2017.37987       -16.87425         6.06522
     2017.38261       -10.48110         5.94594
     2017.38535       -13.32795         5.92644
     2017.38809       -10.60780         5.95282
     2017.39082       -12.61165         5.98608
     2017.39356        -4.07550         6.08587
     2017.39630        -5.86435         5.97691
     2017.39904        -9.23920         5.91612
     2017.40177       -10.12005         5.93676
     2017.40451       -12.31490         6.18336
     2017.40725       -10.60475         6.02967
     2017.40999        -8.77560         6.08014
     2017.41273        -5.90146         6.13978
     2017.41546       -10.46631         5.93562
     2017.41820        -7.58916         6.08128
     2017.42094       -12.88301         5.98494
     2017.42368       -11.33586         6.04228
     2017.42642       -13.99071         6.06522
     2017.42915       -10.44356         5.95167
     2017.43189        -7.84041         6.02623
     2017.43463        -1.41426         6.01935
     2017.43737        -1.78211         5.92071
     2017.44010        -7.32496         5.95282
     2017.44284        -4.99381         5.96888
     2017.44558        -7.09567         5.94823
     2017.44832        -1.49652         6.02852
     2017.45106         0.23163         5.94364
     2017.45379        -3.86122         6.05261
     2017.45653        -4.27807         6.19139
     2017.45927        -6.33892         5.98608
     2017.46201        -5.97277         5.96773
     2017.46475        -8.43262         5.99067
     2017.46748        -3.13547         6.04802
     2017.47022        -1.47532         6.07669
     2017.47296        -5.43817         5.96658
     2017.47570        -5.94002         5.99296
     2017.47843        -9.52688         5.91268
     2017.48117        -9.33973         6.12716
     2017.48391        -2.23858         6.02164
     2017.48665        -2.80443         6.11569
     2017.48939        -4.24428         5.99985
     2017.49212        -8.36913         5.95167
     2017.49486        -4.65298         6.02279
     2017.49760        -4.31783         6.01590
     2017.50034        -7.88868         6.02852
     2017.50308         1.31847         5.97461
     2017.50581        -1.56438         5.97117
     2017.50855        -8.69323         5.97003
     2017.51129         0.72892         6.01361
     2017.51403        -6.07694         6.13060
     2017.51676         2.51421         6.03082
     2017.51950        -2.58764         5.98838
     2017.52224         3.71251         5.98838
     2017.52498        -6.16434         5.96888
     2017.52772         0.33181         6.16272
     2017.53045         2.72896         6.08702
     2017.53319        -5.61189         6.06064
     2017.53593         6.98426         6.09963
     2017.53839         5.26949         6.82223
     2017.54158         0.00850         6.41505
     2017.54414         2.67671         6.01132
     2017.54688         1.71385         6.00443
     2017.54962        -0.90900         6.02393
     2017.55236        -0.22385         5.97691
     2017.55509         3.14230         5.94135
     2017.55783        -4.49855         6.10078
     2017.56057         2.82460         6.10996
     2017.56331         2.62675         5.95741
     2017.56605        -3.80110         5.95167
     2017.56878        -4.81095         6.04114
     2017.57152         4.42920         5.94709
     2017.57426        -0.10165         6.00673
     2017.57700         3.04750         5.99296
     2017.57974        -1.48936         5.95167
     2017.58247        -0.55420         6.58137
     2017.58521         0.02994         9.36623
     2017.58794        -4.02591         7.06998
     2017.59069         2.33624         6.61577
     2017.59342         1.13439         5.99526
     2017.59616         2.42754         5.95053
     2017.59890         0.25369         6.00214
     2017.60164        -0.94416         6.04343
     2017.60438         1.43799         6.05146
     2017.60709         0.24415         6.22810
     2017.60984        -7.97671         7.75472
     2017.61258        -1.63756         8.12061
     2017.61532         3.85859         7.82469
     2017.61806         7.45174         7.30970
     2017.62079        -1.52811         7.17550
     2017.62355         6.60503        11.75883
     2017.62627         2.96818         6.93693
     2017.62901         7.24833         8.99690
     2017.63176         0.70148         6.57219
     2017.63448         3.08163         6.85435
     2017.63722         1.26878         6.79929
     2017.63996         0.68193         7.96692
     2017.64271        -0.91992         6.18566
     2017.64544         4.98923         6.15354
     2017.64818         8.44437         6.09275
     2017.65092         1.51952         5.95741
     2017.65366         4.21967         5.92300
     2017.65639         0.54482         5.95741
     2017.65913         2.59497         5.96429
     2017.66187         7.82812         6.05146
     2017.66461        10.04227         6.12028
     2017.66735         7.39842         6.03770
     2017.67008         2.06457         5.91497
     2017.67282         5.28172         6.13748
     2017.67556         4.37287         5.98723
     2017.67830         4.29402         5.94823
     2017.68104         4.29316         5.95626
     2017.68377         6.83531         6.07211
     2017.68651        11.70546         6.24186
     2017.68925         9.72661         6.12257
     2017.69199         8.90276         5.97117
     2017.69472         7.49791         5.95282
     2017.69746        12.10706         6.11110
     2017.70020        12.69021         6.14666
     2017.70294        11.17936         6.24071
     2017.70568         2.54051         6.08243
     2017.70841         6.74766         5.91612
     2017.71115         5.76181         5.99641
     2017.71389         7.36895         5.98952
     2017.71663        12.59810         5.91497
     2017.71937         7.47325         5.91268
     2017.72210         3.92240         6.01246
     2017.72484         1.68955         5.92873
     2017.72758         6.19770         5.95167
     2017.73032         2.88885         5.94594
     2017.73305         4.15600         5.94823
     2017.73579        -0.65585         5.92300
     2017.73853         1.98230         6.41849
     2017.74127        -0.85655         5.96658
     2017.74401         3.61760         5.95053
     2017.74674        11.61375         5.96544
     2017.74948         8.42089         5.91153
     2017.75222         3.45304         5.93332
     2017.75496         0.91619         5.97805
     2017.75770         1.96334         6.10537
     2017.76043         2.51849         5.95282
     2017.76317         9.49864         5.93906
     2017.76591        12.29779         5.96658
     2017.76865        11.52494         5.95167
     2017.77138         6.88109         5.95626
     2017.77412         0.46224         5.93447
     2017.77686         5.98839         5.92071
     2017.77960         5.39554         6.11340
     2017.78234         0.75868         5.92644
     2017.78507         2.29583         5.93791
     2017.78781        -1.41202         5.91497
     2017.79055         5.43213         5.96658
     2017.79316         7.56332         6.45520
     2017.79615        12.70539         6.30494
     2017.79876        14.62658         6.14781
     2017.80150         8.00373         6.06522
     2017.80424         6.45788         5.98494
     2017.80698         4.37703         6.01590
     2017.80971        -2.78882         5.99755
     2017.81245        -2.36067         5.95397
     2017.81519         1.69247         6.05720
     2017.81793        -6.16738         5.94938
     2017.82067        -7.22523         6.06178
     2017.82340         2.25792         5.91841
     2017.82614        -0.89193         6.05605
     2017.82888        -2.93678         5.97003
     2017.83162         9.23937         5.94479
     2017.83436         8.98552         5.90809
     2017.83709         4.39567         6.18795
     2017.84531       -22.08488         6.04228
     2017.85078       -18.23359         6.10422
     2017.85352       -14.37044         6.43226
     2017.85626        -3.78929         8.46585
     2017.85900         0.18486         8.01050
     2017.86174         5.03501         7.83501
     2017.86448       -10.65184        10.21385
     2017.86721         3.03231         7.20991
     2017.86995         2.88346         6.47240
     2017.87269        -0.00339         7.25808
     2017.87542         7.30776         7.06654
     2017.87816         9.77391         7.19385
     2017.88090         8.52106         6.81420
     2017.88364         5.91920         6.28086
     2017.88637         0.98635         5.91726
     2017.88858         1.87767         7.90154
     2017.89459         4.58480         6.77176
     2017.89733        10.33895         6.45634
     2017.90006         5.89410         6.30953
     2017.90280         6.54325         6.34165
     2017.90554         8.33440         6.92890
     2017.90828         4.69755         6.72244
     2017.91102        -4.28331         6.80503
     2017.91376        -4.80016         6.64330
     2017.91650         2.24699         6.61577
     2017.91889         9.50425         9.26874
     2017.92197        -3.06671         6.51713
     2017.92471         1.74044         6.44717
     2017.92744        -9.83841         6.66854
     2017.93566        -6.46896         6.49305
     2017.93839        -1.57881         6.39097
     2017.94113        -2.61766         6.38753
     2017.94387        -0.87451         6.44602
     2017.94661        -1.09437         6.49534
     2017.94935         2.39478         7.15600
     2017.95209        -1.65907         6.85664
     2017.95483        -3.51492         7.27299
     2017.95642        -4.15441        18.34707
     2017.96030        -2.87562         6.43226
     2017.96304        -3.38247         6.58251
     2017.96576         2.36468         6.88187
     2017.96850       -16.57117         6.76947
     2017.97124       -26.47902         6.49878
     2017.97397       -25.30487         6.47126
     2017.97947       -24.11658         6.41964
     2017.98218       -23.41042         6.65018
     2017.98494       -25.73928         6.20057
     2017.98766       -26.59212         6.43914
     2017.99040       -21.78597         6.36573
     2017.99316       -16.92683         6.27856
     2017.99589       -16.98068         6.24530
     2017.99863       -25.02153         6.45634
     2018.00137       -27.32038         6.28659
     2018.01506       -13.86364         6.47240
     2018.01780        -2.89649         6.65362
     2018.02053        -6.62634         6.45520
     2018.02327         2.07481         6.16845
     2018.02599         2.54697         6.38982
     2018.02873        -3.51488         6.58939
     2018.03149        -9.34474         6.50681
     2018.03420       -11.52059         7.31887
     2018.03696        -9.61444         6.15928
     2018.03968        -9.67529         6.31641
     2018.04243        -5.74214         6.22580
     2018.04516        -5.28699         6.36688
     2018.04789        -7.21184         6.48272
     2018.05063        -5.40069         6.87384
     2018.05337        -1.66154         6.59169
     2018.05613        -6.80940         6.44029
     2018.05886        -9.56425         6.15698
     2018.06160        -4.75110         6.51599
     2018.06432       -19.27394         7.03327
     2018.06708       -18.34080         8.01968
     2018.06981        -2.78165         6.58939
     2018.07255       -10.21650         6.65248
     2018.07529       -16.79635         6.29118
     2018.07802       -14.89220        20.37723
     2018.08075        -8.37105         8.32936
     2018.08350        -6.10191         6.34394
     2018.08624        -4.40776         6.79356
     2018.08898       -15.16261         6.90023
     2018.09172        -0.82546         6.76832
     2018.09446       -15.59831         7.04245
     2018.09719        -2.94316         6.97019
     2018.09991        -2.38501         6.24645
     2018.10265        -9.68186         7.21220
     2018.10539        -6.36471         6.97248
     2018.10815         1.98144         6.95069
     2018.11088        -4.64541         6.72588
     2018.11362        -3.18327         6.73277
     2018.11635        -5.32011         6.75112
     2018.11910        -4.37097         7.48289
     2018.12183        -0.94482         8.30413
     2018.12457        -2.41767         6.58022
     2018.12730        -4.27351         8.45668
     2018.13003        -0.67936         7.20762
     2018.13279       -11.34122         6.83485
     2018.13552       -15.63107         6.65133
     2018.13826       -20.84092         6.38294
     2018.14099       -22.34877         6.00902
     2018.14373       -26.47362         6.01820
     2018.14647       -18.44347         6.45864
     2018.14921       -25.80732         6.26939
     2018.15195       -13.10518         6.08931
     2018.15468         4.40597         5.96658
     2018.15742        -6.47388         6.05146
     2018.16016         0.32427         6.08358
     2018.16290        -4.38758         6.16386
     2018.16564        -8.82543         7.05851
     2018.16837        -8.54328         6.02164
     2018.17111        -3.15913         6.00214
     2018.17385        -6.15098         6.03655
     2018.17659        -5.81183         6.02623
     2018.17932        -0.71668         6.07325
     2018.18206         0.82447         6.21892
     2018.18480         3.17062         6.15010
     2018.18754        -4.18924         5.95511
     2018.19028        -7.43309         5.94020
     2018.19301        -7.18594         5.93217
     2018.19575         2.71221         5.94594
     2018.19849        -1.83764         5.92415
     2018.20123         2.31651         5.99067
     2018.20397         2.28266         5.89432
     2018.20670         2.37981         5.92644
     2018.20944         0.79296         5.94020
     2018.21218        -4.08789         5.95511
     2018.21492       -16.87474         5.88630
     2018.21765        -0.94459         5.89547
     2018.22039         1.15855         5.95053
     2018.22313         1.94870         5.97003
     2018.22587        -8.70615         6.15125
     2018.22861        -7.85300         5.93332
     2018.23134        -6.40385         5.93332
     2018.23408        -7.78070         5.92185
     2018.23682        -4.96955         5.96200
     2018.23956        -2.65640         5.93332
     2018.24230        -4.22625         5.95397
     2018.24503        -2.41710         5.91956
     2018.24777        -2.47695         5.95397
     2018.25051         0.11020         5.87712
     2018.25325        -6.02366         5.90579
     2018.25598        -6.99551         5.95282
     2018.25872       -16.24936         6.06408
     2018.26146        -5.42721         6.03082
     2018.26420        -5.80406         5.89432
     2018.26694        -6.41591         5.89777
     2018.26967        -8.45076         5.89318
     2018.27241        -7.02561         5.97003
     2018.27515         2.34754         5.96658
     2018.27789        -0.10031         6.01590
     2018.28062        -6.32116         6.10537
     2018.28336       -12.33401         5.99641
     2018.28610        -4.96886         5.95511
     2018.28884        -1.99472         6.08702
     2018.29158        -1.77057         6.03082
     2018.29431        -6.18042         5.94594
     2018.29705        -7.51127         5.94250
     2018.29979        -7.01612         7.79946
     2018.30240        -6.63493         9.31347
     2018.34739        -5.82891        13.21434
     2018.34907       -11.28043         5.98035
     2018.35181        -2.83128         6.04687
     2018.35455         0.62586         5.90350
     2018.35728        -4.64699         5.88400
     2018.36002        -4.50384         5.95167
     2018.36276        -2.35169         6.01361
     2018.36550        -5.01554         5.91268
     2018.36824        -3.34539         6.51943
     2018.37097        -3.35524         6.03311
     2018.37371        -7.36809         5.93447
     2018.37645        -4.69694         6.15354
     2018.37919        -4.50579         5.92873
     2018.38193        -5.03264         5.95053
     2018.38466        -4.32949         5.92300
     2018.38740        -5.44734         5.91382
     2018.39014         1.32480         5.94479
     2018.39288         6.11795         6.07669
     2018.39561        -2.46190         5.97576
     2018.39835         3.50625         5.99411
     2018.40109        -1.35460         5.88400
     2018.40383        -2.39045         5.94020
     2018.40657         0.93870         6.00214
     2018.40930         3.14585         6.08931
     2018.41204         5.40700         5.93447
     2018.41478        -2.05485         6.10652
     2018.42299         2.16359         6.02393
     2018.42573         4.38574         5.96314
     2018.42847         4.36089         5.89318
     2018.43121        -0.76596         5.94135
     2018.43394         0.90419         5.93562
     2018.43668        -0.05166         5.97461
     2018.43942         4.10449         5.98035
     2018.44216        -3.42136         5.96658
     2018.44490        -2.38521         5.92873
     2018.44763         3.90694         5.92300
     2018.45037        -2.77091         5.92873
     2018.45311         0.95624         5.88974
     2018.45585        -0.03162         5.91956
     2018.45859        -0.98647         5.92988
     2018.46132        -3.20232         5.92529
     2018.46406         2.76783         5.93676
     2018.46680         0.94298         5.99755
     2018.46954         3.82013         5.95626
     2018.47227         1.94928         6.19827
     2018.47501        -0.77057         5.89891
     2018.47775        -2.08942         5.87712
     2018.48049         6.65173         6.13863
     2018.48323         0.28788         5.92759
     2018.48596        -2.49697         5.94020
     2018.48870         1.19118         5.87253
     2018.49144        -2.19668         5.89318
     2018.49418         1.62847         6.04687
     2018.49692         3.46462         6.15698
     2018.49965         6.44377         5.93676
     2018.50239         4.60192         5.97461
     2018.50513        -6.04593         5.88974
     2018.50787        -0.58878         5.92988
     2018.51060        -0.32363         6.00099
     2018.51334        -0.69548         5.97347
     2018.51608         2.10467         5.90579
     2018.51882         2.50482         5.88515
     2018.52156         1.95897         6.05146
     2018.52429        -4.41789         5.91841
     2018.52703         0.77626         5.91841
     2018.52977         2.07941         5.93217
     2018.53251         3.55756         5.92759
     2018.53525         2.63071         5.90121
     2018.53798         0.84586         5.91268
     2018.54072         6.84501         6.33591
     2018.54346         3.55616         5.93791
     2018.54620         0.56431         5.88859
     2018.54893         4.70046         5.90235
     2018.55167         3.51561         5.92415
     2018.55441         1.63876         5.89203
     2018.55715         0.51990         6.08816
     2018.55989        -3.80095         6.04687
     2018.56262         4.63920         5.91038
     2018.56536         2.36535         5.88171
     2018.56810         7.99350         5.91841
     2018.57084         5.62965         6.75226
     2018.57357        -1.35420         6.19254
     2018.57631        -1.42105         6.30609
     2018.57905         3.41210         6.22351
     2018.58179         5.25025         6.12372
     2018.58453         6.90240         6.24071
     2018.58726         9.68255         5.92529
     2018.59000         3.08469         5.90694
     2018.59274         5.00184         5.95970
     2018.59548         6.73599         5.88056
     2018.59822         9.00014         5.92873
     2018.60095         7.86029         5.92759
     2018.60369        10.61644         5.87597
     2018.60643         3.62359         5.89203
     2018.60917         7.92574         6.04228
     2018.61151         4.98901         7.94168
     2018.61486         3.50297         6.46437
     2018.61738        12.79419         5.91497
     2018.62012        10.84834         5.88859
     2018.62286        10.63949         5.97920
     2018.62559         8.88663         6.08243
     2018.62833         8.79978         5.86794
     2018.63107         5.58793         5.89088
     2018.63381         5.29008         6.07784
     2018.63655         5.64323         5.86336
     2018.63928         7.92638         6.17533
     2018.64202        12.97153         6.20057
     2018.64476        15.01768         5.89432
     2018.64750         5.69383         5.89318
     2018.65023         9.15798         6.21548
     2018.65297         5.65613         5.89662
     2018.65571         8.63728         5.90006
     2018.65845        11.93542         5.92300
     2018.66119        11.80457         5.99641
     2018.66392        10.18972         5.87483
     2018.66666         8.12487         5.86794
     2018.66940         6.85402         5.89318
     2018.67214         8.86917         6.01017
     2018.67488         4.81232         5.90809
     2018.67761         6.22547         5.90809
     2018.68035         5.12162         5.92759
     2018.68309        -1.84923         5.95741
     2018.68583         8.22192         5.94709
     2018.68856         8.21207         5.92300
     2018.69130        15.11621         5.98379
     2018.69404        12.48636         6.03196
     2018.69678         7.87051         5.84500
     2018.69952         4.94866         5.87712
     2018.70225         1.00481         6.03311
     2018.70499         4.60796         5.93447
     2018.70773         3.64511         6.00214
     2018.71047         0.85426         5.87024
     2018.71321        -0.29559         5.86794
     2018.71594         0.06456         5.87483
     2018.71868        -2.67029         5.92988
     2018.72142         3.42686         5.89777
     2018.72416        -0.91999         5.89777
     2018.72689         3.45415         5.88744
     2018.72963         4.57130         6.59857
     2018.73237        -3.18255         5.89547
     2018.73511        -0.02540         5.91153
     2018.73785         5.30175         5.93676
     2018.74058        -3.49010         5.92185
     2018.74332         8.35905         5.86336
     2018.74606         2.07120         5.86450
     2018.74880         0.74435         6.02393
     2018.75154         2.93250         6.12716
     2018.75427         4.20465         5.87368
     2018.75701         7.00280         5.94709
     2018.75973         3.84795         5.94594
     2018.76249         5.31009         5.86565
     2018.76522         0.99924         6.02737
     2018.76796         3.80139         5.85647
     2018.77070         5.07554         5.87253
     2018.77344         5.85769         5.92873
     2018.77618         3.68884         5.99296
     2018.77891         6.08799         5.92529
     2018.78165         0.70714         6.00902
     2018.78439         1.35629         5.90465
     2018.78713         1.55244         5.91612
     2018.78987        -8.10341         6.00443
     2018.79260        -1.60527         5.96085
     2018.79534         8.79888         5.92988
     2018.79808        -2.22797         5.90235
     2018.80082         4.37518         5.95167
     2018.80355         1.05533         5.97576
     2018.80629         0.67648         6.18680
     2018.80903         1.74963         5.94135
     2018.81177         1.17078         6.26824
     2018.81451         7.42693         6.05949
     2018.81724         3.02308         5.96544
     2018.81998         1.60223         6.00443
     2018.82272         3.39138         5.97576
     2018.82546         1.85853         5.95397
     2018.82820         0.77867         5.93217
     2018.83093         2.89282         5.89318
     2018.83367         2.92597         5.95970
     2018.83641        10.11812         5.98379
     2018.83915        -0.68973         5.91153
     2018.84188         4.77342         5.94250
     2018.84462        12.11457         5.88400
     2018.84736         0.23372         5.87941
     2018.85010         0.29987         5.91382
     2018.85284        -1.31798         5.90465
     2018.85557        -7.57983         5.92873
     2018.85831         0.28632         5.88744
     2018.86105        -0.59154         5.89662
     2018.86379        -2.75439         6.06752
     2018.86653         1.25776         5.97232
     2018.86926        -4.52609         5.93103
     2018.87200         0.27706         5.94709
     2018.87474         5.19821         5.92873
     2018.87748        -1.37764         6.01132
     2018.88021         1.08051         6.24301
     2018.88295         1.68466         6.04228
     2018.88569        -1.42719         6.01476
     2018.88843         4.69296         6.12831
     2018.89117        -1.34089         6.07211
     2018.89390       -14.24375         6.02967
     2018.89664        -0.69260         6.15698
     2018.89938        -0.55545         5.91726
     2018.90212         0.25170         6.03999
     2018.90485        -5.07115         6.07096
     2018.90759         8.28400         5.99296
     2018.91033         7.59115         5.89547
     2018.91307         9.39930         6.01361
     2018.91581         5.37245         5.85303
     2018.91854        10.80360         5.96658
     2018.92128         2.44775         5.93103
     2018.92402         3.17990         5.95856
     2018.92676         4.92805         5.83353
     2018.92950         3.42719         5.85303
     2018.93223        -1.33066         6.06752
     2018.93497        -0.78251         5.96085
     2018.93771        -1.65236         5.92873
     2018.94045        -3.07621         5.88974
     2018.94318        -1.99706         5.85647
     2018.94592         6.49909         5.79683
     2018.94866         9.66924         5.95626
     2018.95140         8.57639         6.10422
     2018.95414        14.18754         5.97576
     2018.95687         0.12969         5.89547
     2018.95961        16.19084         5.94364
     2018.96235        10.38098         5.92529
     2018.96594         1.44487         9.32494
     2018.96783         1.59828         5.93562
     2018.97056        12.58743         6.02852
     2018.97330         0.35458         5.99526
     2018.97604        -5.70827         5.90350
     2018.97878        -7.78912         6.00214
     2018.98151       -16.90097         5.99526
     2018.98425        -6.14482         6.17533
     2018.98699       -21.06067         6.00902
     2018.98973       -10.67852         5.99067
     2018.99247        -8.95737         6.09390
     2018.99520         1.42177         6.06408
     2018.99794        -4.83908         6.00329
     2019.00068        -3.65893         5.98035
     2019.00342         0.32622         6.61004
     2019.00616        -0.01763         6.04228
     2019.00889         2.71252         6.07899
     2019.01163         2.14767         5.96544
     2019.01437        -5.72618         5.99182
     2019.01711         7.10697         5.91153
     2019.01984        -3.11888         5.95053
     2019.02258       -19.73273         5.94250
     2019.02532       -20.81258         6.15010
     2019.02806        -2.44644         5.99641
     2019.03080        -2.71229         6.00558
     2019.03353        -4.44914         5.89777
     2019.03627        -8.44799         5.92988
     2019.03901        -0.21584         5.88859
     2019.04175        -2.47469         5.87253
     2019.04449        -0.21654         5.88744
     2019.04722        -9.31239         5.99411
     2019.04996       -18.29824         5.99641
     2019.05270        -6.62609         6.16157
     2019.05544        -1.92494         6.10078
     2019.05817        -2.35079         6.38064
     2019.06091       -11.84264         5.99526
     2019.06365        -0.63450         6.05261
     2019.06639        -3.83635         5.97461
     2019.06913        -4.12420         6.06178
     2019.07186        -9.50305         6.08472
     2019.07460        -2.32790         5.92300
     2019.07734        -1.77375         5.90350
     2019.08008         1.81440         5.90924
     2019.08282         0.46755         6.07440
     2019.08555         1.93170         5.89777
     2019.08829        -1.51915         5.89662
     2019.09103         4.69600         5.89203
     2019.09377         3.82115         5.87597
     2019.09650         4.47329         5.87139
     2019.09924         3.50544         5.90465
     2019.10198        -4.29941         5.90235
     2019.10472        -3.36626         5.86221
     2019.10746       -10.32511         5.89891
     2019.11019         1.20204         5.86680
     2019.11293        -3.68681         6.07211
     2019.11567        -6.75366         6.19713
     2019.11841         2.04549         5.90924
     2019.12115         3.96764         6.05375
     2019.12388        -5.51821         6.00558
     2019.12662         1.21294         6.08358
     2019.12936         1.72408         5.93217
     2019.13210        -0.81077         5.95741
     2019.13483        -2.30262         5.94709
     2019.13757         1.31753         5.92415
     2019.14031         3.55068         5.91841
     2019.14305         0.62283         5.91497
     2019.14579        -5.34502         5.99641
     2019.14852         0.08713         5.87483
     2019.15126         0.10228         5.87941
     2019.15400        -2.77457         5.87712
     2019.15674         0.23958         5.89777
     2019.15948       -17.22627         5.92300
     2019.16221        -9.61812         6.02279
     2019.16495        -4.75198         5.86680
     2019.16769        -8.39783         5.87139
     2019.17043        -7.86768         5.91153
     2019.17316        -3.57453         5.92185
     2019.17590        -1.63938         5.90235
     2019.17864         0.75577         5.88630
     2019.18138         0.11892         5.86680
     2019.18412       -10.85493         5.92644
     2019.18685        -2.80978         5.90924
     2019.18959        -5.19363         5.88859
     2019.19231        -5.60748         6.06408
     2019.19507         2.47267         5.85762
     2019.19780        -7.30819         5.88171
     2019.20054        -7.85204         6.06064
     2019.20328       -12.12789         5.93217
     2019.20602       -10.58174         6.18910
     2019.20876       -12.14959         5.93791
     2019.21149        -9.22944         5.88859
     2019.21423        -3.43629         5.87941
     2019.21697        -3.62914         5.88285
     2019.21971        -3.33899         6.05261
     2019.22245        -1.49184         5.87253
     2019.22518        -4.76769         5.86450
     2019.22792        -1.74154         5.90809
     2019.23066        -5.60840         5.87253
     2019.23340        -4.20525         5.87712
     2019.23613        -4.97110         5.99296
     2019.23887        -5.88595         5.88515
     2019.24161        -8.82180         6.27053
     2019.24435        -3.72165         5.98264
     2019.24709        -7.11550         5.98608
     2019.24982        -4.73135         5.93217
     2019.25256         2.97880         6.03770
     2019.25530        -5.32605         6.02279
     2019.25804         0.11910         5.88056
     2019.26078         0.64825         5.87368
     2019.26351        -1.58060         5.99296
     2019.26625        -8.42146         5.86336
     2019.26899        -4.03631         5.98838
     2019.27173        -3.43616         6.15813
     2019.27446        -5.98001         5.85418
     2019.27720        -0.62486         5.98264
     2019.27994         2.04329         5.87253
     2019.28268        -1.58656         5.95741
     2019.28542         1.79859         5.91497
     2019.28815         2.32674         5.91612
     2019.29089        -1.47611         5.90350
     2019.29363        -2.44096         5.84042
     2019.29637        -1.11381         5.98494
     2019.29911         2.01533         5.91153
     2019.30184         1.81148         5.98035
     2019.30458       -11.59337         5.91612
     2019.30732        -2.64722         5.99526
     2019.31006         5.43093         5.99755
     2019.31279        -5.30092         6.03196
     2019.31553         2.87923         5.91382
     2019.31827         1.35738         5.89432
     2019.32101        -3.49947         5.85533
     2019.32375       -11.87532         5.89088
     2019.32648        -5.62617         5.93906
     2019.32922        -4.68302         5.87139
     2019.33196        -0.26488         6.03426
     2019.33470         0.81527         6.05949
     2019.33744        -4.58558         6.01017
     2019.34017        -2.66143         5.92185
     2019.34291         0.67872         5.86680
     2019.34565        -0.13913         6.01705
     2019.34839        -5.00998         6.00788
     2019.35112        -6.94483         5.91038
     2019.35386        -1.99968         5.90694
     2019.35660        -0.87453         5.90694
     2019.35934         1.99062         5.89318
     2019.36208         1.25577         5.93447
     2019.36481         4.80192         5.93562
     2019.36755        -4.28594         6.03884
     2019.37029         0.25321         5.96429
     2019.37303         1.70136         5.90579
     2019.37577        -0.39049         6.03770
     2019.37850        -5.19434         6.01246
     2019.38124         4.07881         5.99985
     2019.38398         2.93896         5.94135
     2019.38672        -0.57489         5.92529
     2019.38945        -6.36674         5.90235
     2019.39219         0.37841         5.97347
     2019.39493        -0.01544         5.94594
     2019.39767        -3.84729         5.93217
     2019.40041        -6.19015         5.88859
     2019.40314        -4.41600         5.92071
     2019.40588         2.47015         5.95397
     2019.40862        -1.81070         6.01935
     2019.41136        -6.00355         6.04573
     2019.41410        -6.85040         6.02508
     2019.41683        -1.37125         6.16157
     2019.41957         6.47390         6.02508
     2019.42231         0.60605         5.95282
     2019.42505         4.74020         5.93791
     2019.42778        -1.11465         6.04343
     2019.43052         5.63150         6.24301
     2019.43326        -2.53736         5.93791
     2019.43600       -11.29221         5.94594
     2019.43874        -2.14906         6.00788
     2019.44147        -7.51791         5.99296
     2019.44421         0.61324         6.09963
     2019.44695         0.11539         6.11913
     2019.44969         1.79754         6.10652
     2019.45243         4.96069         6.03311
     2019.45516         5.21284         5.99182
     2019.45790        -5.27701         6.09963
     2019.46064        -2.16786         6.09963
     2019.46338         7.13329         6.34623
     2019.46611         8.58343         6.33018
     2019.46885         3.00258         6.38523
     2019.47159         2.46373         6.06637
     2019.47433         1.51788         6.25562
     2019.47707         2.95603         6.01476
     2019.47980         1.22818         6.10766
     2019.48254         0.87033         6.10766
     2019.48528         2.20348         6.07555
     2019.48802        -8.65737         6.07784
     2019.49076        -5.21022         5.92759
     2019.49349         1.01193         5.92529
     2019.49623         4.29908         5.97920
     2019.49897         3.88323         5.98723
     2019.50171         2.85837         5.99296
     2019.50444         0.28552         6.21777
     2019.50718         3.09067         5.95741
     2019.50992         4.03382         6.01132
     2019.51266         1.42697         6.06752
     2019.51540         4.33112         6.04114
     2019.51813        -6.52873         5.92644
     2019.52361         0.68657         5.97691
     2019.52635        -1.40128         5.92185
     2019.52908         5.33887         6.27283
     2019.53182         1.91802         6.09734
     2019.53456         0.87216         6.07784
     2019.53730         2.26131         6.09734
     2019.54004         3.17046         6.09849
     2019.54277        16.17061         6.08472
     2019.54551         3.74476         6.39670
     2019.54702        -4.59371        19.67298
     2019.54977         7.07944        18.94121
     2019.55249         5.74759        27.24419
     2019.55523       -17.97626        23.28023
     2019.55798        16.66489        26.20273
     2019.56069         7.72005        21.75016
     2019.56345         7.51119        24.74722
     2019.56616        14.08934        21.89353
     2019.56891         9.01449        20.48734
     2019.57164        -7.91136        23.76311
     2019.57436       -11.89320        24.47080
     2019.57710        -0.69206        25.84832
     2019.57985        -6.65791        23.39722
     2019.58257        25.59425        34.42887
     2019.58802        30.69455        38.11640
     2019.59077        13.96870        30.71265
     2019.59402         2.68669        14.54943
     2019.59624        21.39100        35.78345
     2019.59898       -12.88685        32.08903
     2019.60170        31.31830        83.77649
     2019.60444        14.46445        51.81018
     2019.60724        48.84658       162.63014
     2019.60991        -0.03625        92.14255
     2019.61266       -19.19210        53.15789
     2019.62085       -32.73365       171.39535
     2019.66324        -1.20282         5.97691
     2019.66598        -3.47867         6.02279
     2019.66872         5.58447         5.90235
     2019.67145         1.89362         5.93103
     2019.67419        10.35477        26.02954
     2019.67695         5.38492         6.12487
     2019.67967        -1.02093         6.03426
     2019.68240         5.60622         5.91268
     2019.68514         7.23037         5.99067
     2019.68788        11.13652         6.02852
     2019.69062        13.18467         6.01935
     2019.69336         7.32882         5.92529
     2019.69609         5.12497         5.93103
     2019.69883        10.08312         6.11913
     2019.70157         4.92327         5.92529
     2019.70431        13.21541         5.89777
     2019.70705        13.05456         5.91841
     2019.70978         7.64471         5.97805
     2019.71252         8.63386         5.90465
     2019.71526         8.52801         5.90121
     2019.71800         3.29616         6.13863
     2019.72073         6.16831         6.25792
     2019.72347         6.79746         5.89203
     2019.72621         2.22361         6.00329
     2019.72895        11.97076         5.94823
     2019.73169         3.56691         5.91382
     2019.73442        12.23506         5.93562
     2019.73716        11.21020         5.91497
     2019.73990        11.05835         6.09734
     2019.74264         5.34750         5.98035
     2019.74538        12.28965         6.17304
     2019.74811         5.01880         6.03426
     2019.75085         4.95895         6.05490
     2019.75359         3.82410         6.23268
     2019.75633         4.98425         6.03426
     2019.75906        12.58140         5.97003
     2019.76180         4.48955         5.96429
     2019.76454         3.18770         6.05375
     2019.76728         9.61385         6.11454
     2019.77002         1.74099         6.05146
     2019.77275        -1.37286         6.17992
     2019.77549         3.32729         6.07669
     2019.77823         6.85444         6.08014
     2019.78097         8.08559         6.07096
     2019.78371         4.83174         6.06408
     2019.78644         2.20489         6.13290
     2019.78918        10.88504         6.14895
     2019.79192        13.86919         6.06867
     2019.79466        18.22334         6.26824
     2019.79739         9.26749         6.01132
     2019.80013        12.95364         6.00673
     2019.80287         9.36679         6.01705
     2019.80561        11.97393         6.11340
     2019.80835         4.71308         6.00788
     2019.81108         0.56723         6.05834
     2019.81382         6.71738         6.04573
     2019.81656        10.29153         5.99526
     2019.81930         0.32768         6.00558
     2019.82203         0.98183         6.06637
     2019.82477        -2.50502         6.03999
     2019.82751        -1.36587         6.02852
     2019.83025         0.52228         6.11225
     2019.83299        -1.27557         6.12257
     2019.83572         2.66758         6.05490
     2019.83846         9.99472         6.04802
     2019.84120         5.12287         6.03540
     2019.84394         3.87202         6.16845
     2019.84668         2.13617         5.98379
     2019.84941         3.76332         6.03770
     2019.85215         5.69947         6.08358
     2019.85489         3.67462         6.08702
     2019.85763         9.00577         6.06408
     2019.86036         1.79392         6.05490
     2019.86310         0.27207         6.03770
     2019.86584        10.99022         6.13978
     2019.86858         4.57137         6.03999
     2019.87132        12.15251         6.13863
     2019.87405         9.41566         5.98608
     2019.87679        12.73681         6.13175
     2019.87953        11.83196         6.01017
     2019.88227        19.77811         6.00558
     2019.88501        12.15026         6.00673
     2019.88774         9.42941         6.20630
     2019.89048        12.27556         5.97920
     2019.89322        13.02871         6.19713
     2019.89596         8.09586         5.99182
     2019.89869        10.27701         5.99411
     2019.90143        10.92316         5.98035
     2019.90417         8.31931         6.02049
     2019.90691         5.85945         5.98608
     2019.90965         4.22460         5.95626
     2019.91238         8.06775         5.95741
     2019.91512        10.81990         6.02049
     2019.91786        13.44305         6.00214
     2019.92060         8.89920         5.98608
     2019.92607         8.57250         5.94823
     2019.92881        12.00065         6.00788
     2019.93155        10.93880         6.00558
     2019.93429        20.33795         6.00788
     2019.93702         4.92910         6.00329
     2019.93976         5.42324         5.99985
     2019.94250        -3.68961         5.95511
     2019.94524       -15.36246         6.01590
     2019.94798       -18.39031         5.98838
     2019.95071       -17.35316         6.28200
     2019.95345       -14.39001         5.99411
     2019.95619       -12.11086         5.98608
     2019.95977       -18.00297         9.37196
     2019.96167       -14.69856         6.03426
     2019.96440       -17.80041         6.18107
     2019.96714        -6.00526         6.15469
     2019.96988         4.87889         5.99755
     2019.97262         6.49503         6.15698
     2019.97535         7.94718         5.99296
     2019.97809         9.79333         5.98494
     2019.98083         4.32348         5.98723
     2019.98357         1.21263         5.99526
     2019.98631         4.75978         6.03655
     2019.98904         2.46793         5.99755
     2019.99178         3.47908         5.99067
     2019.99452         0.23323         5.98264
     2019.99726         6.05938         6.00558
     2020.00000        19.33553         6.03426
     2020.00273        10.32468         6.00443
     2020.00547        10.18382         6.08587
     2020.00821         3.85397         6.16157
     2020.01095         6.14112         6.15584
     2020.01368        -0.80573         6.16157
     2020.01642         3.46242         6.19598
     2020.01916         7.13857         6.02164
     2020.02190         3.77072         6.09046
     2020.02464        -1.61913         6.13634
     2020.02737       -13.37698         6.01476
     2020.03011       -16.48283         6.03082
     2020.03285       -22.64268         5.98723
     2020.03559       -18.73253         5.87139
     2020.03833       -20.85638         5.88974
     2020.04106       -26.82224         6.03540
     2020.05475       -27.04849         5.86794
     2020.06023         4.62181         5.90694
     2020.06297         9.68396         5.88171
     2020.06570         7.30611         5.91382
     2020.06844         5.68526         5.98264
     2020.07118         8.52241         5.89088
     2020.07392         0.80255         5.91726
     2020.07666         6.97070         5.89432
     2020.07939         2.88485         5.95741
     2020.08213         7.31600         5.92071
     2020.08487        -5.24985         5.97117
     2020.08761         0.06630         5.88285
     2020.09034         0.72045         5.89203
     2020.09308        -2.40940         5.88400
     2020.09582        -6.38725         5.90924
     2020.10130        -4.65895         5.93217
     2020.10403         8.43520         5.98494
     2020.10677         0.91234         5.98264
     2020.10951        -3.87351         5.90235
     2020.11225         2.85064         5.87941
     2020.11498         2.95079         5.88515
     2020.11772        -2.63206         6.03311
     2020.12046         1.28109         6.07555
     2020.12320         0.87724         5.87827
     2020.12594        -0.40061         5.92185
     2020.12867         0.31054         5.86106
     2020.13141        -5.66831         6.00902
     2020.13415        -7.01016         5.88515
     2020.13689        -2.62401         6.02508
     2020.13963        -0.78386         5.99296
     2020.14236        -2.31572         5.88400
     2020.14510         3.82743         5.92185
     2020.14784        -3.03342         5.89662
     2020.15058        -7.64527         5.94709
     2020.15331        -7.28912         5.91038
     2020.15605        -5.90997         5.91497
     2020.15879         1.60418         5.89318
     2020.16153         1.29833         5.97576
     2020.16427         1.89748         5.88285
     2020.16700         6.29163         5.92873
     2020.16974        -2.73922         5.90809
     2020.17248        -3.82407         6.25218
     2020.17522        -1.06693         6.23842
     2020.17796         2.16022         5.84156
     2020.18069        -2.29863         5.86106
     2020.18343         1.64052         5.89318
     2020.18617        -3.56833         5.87941
     2020.18891        -3.55118         6.00673
     2020.19164         1.15697         5.99985
     2020.19438        -1.38588         5.97003
     2020.19712        -2.86373         5.99641
     2020.19986        -6.37558         6.00788
     2020.20260        -7.46443         6.10307
     2020.20533        -4.32928         6.05031
     2020.20807        -2.19714         6.02508
     2020.21081        -6.73199         6.07440
     2020.21355        -5.35584         6.58022
     2020.21629        -2.49369         6.27627
     2020.21902        -4.68754         6.20630
     2020.22179        -3.80540         6.10307
     2020.22450         1.68476         6.07669
     2020.22724         0.78791         6.02967
     2020.22997         0.97706         6.57678
     2020.23271         2.00421         6.38753
     2020.23819        -2.89749         6.70524
     2020.24093        -4.43034         6.29233
     2020.24366         1.03480         7.35443
     2020.24641         9.63895        36.15048
     2020.24913        -6.94790         6.63871
     2020.25188        -3.93075         6.81420
     2020.25462        -3.70060         6.26365
     2020.25735         3.94955         7.96118
     2020.26009         0.82370         6.02967
     2020.26283         0.31585         6.04343
     2020.26557        -3.03900         6.05834
     2020.26830        -3.66285         6.02049
     2020.27104        -1.91270         6.04573
     2020.27378        -0.54355         6.02737
     2020.27652         1.31959         6.06064
     2020.27929        -4.05227         6.22121
     2020.28199        -2.09111         6.18336
     2020.28473        -4.05696         6.10652
     2020.28747         0.40619         6.08931
     2020.29021        -5.30066         6.04573
     2020.29295        -4.16751         6.02279
     2020.29568         0.58664         6.01132
     2020.29842         0.96779         6.04114
     2020.30116         1.86894         6.09275
     2020.30390         2.05909         6.03884
     2020.30663         0.27324         6.04802
     2020.30937         2.28038         6.21777
     2020.31211        -5.15347         6.19827
     2020.31485        -4.85432         6.05949
     2020.31759        -3.08217         6.02393
     2020.32032        -0.82802         6.19369
     2020.32306        -2.88087         5.94364
     2020.32580        -4.53172         5.95397
     2020.32854         0.29543         6.02967
     2020.33128        -2.25442         6.02623
     2020.33401        -1.87427         6.02967
     2020.33675        -1.83312         6.03082
     2020.33949        -3.23997         6.00214
     2020.34223        -8.79682         6.12257
     2020.34496        -2.83968         6.02279
     2020.34770        -6.54453         5.98838
     2020.35044        -3.78738         6.09390
     2020.35318       -10.14023         6.07899
     2020.35592        -5.98608         6.10652
     2020.35865        -3.87793         6.01820
     2020.36139         3.10022         5.97003
     2020.36413         7.17737         6.05261
     2020.36687         1.54452         6.02508
     2020.36961        -2.13133         6.02164
     2020.37234         1.84482         5.96314
     2020.37508         3.02897         5.97920
     2020.37782         7.82611         5.99526
     2020.38056        -1.47674         5.94709
     2020.38329         6.34541         5.92415
     2020.38603        -2.39844         5.98723
     2020.38877         4.75271         6.06981
     2020.39151        -0.11214         5.97920
     2020.39425        -1.08499         5.97347
     2020.39698        -1.08884         6.08358
     2020.39972        -3.73969         5.97347
     2020.40246        -3.30754         5.95282
     2020.40520        -5.02139         6.06981
     2020.40794        -4.73424         5.95741
     2020.41067        -0.23810         5.99411
     2020.41341         2.78505         6.08587
     2020.41615        -1.66080         5.92988
     2020.41889        -2.67665         5.93103
     2020.42162        -4.26350         6.07325
     2020.42436        -2.90835         6.40244
     2020.42710        -2.17320         6.30265
     2020.42984        -2.36205         6.11569
     2020.43258         8.15810         6.11799
     2020.43531         4.54225         6.08702
     2020.43805        -4.59860         6.08816
     2020.44079        -5.79845         6.13404
     2020.44353         3.12669         6.15239
     2020.44626        -1.05616         6.06637
     2020.44900         2.81699         6.08931
     2020.45174         4.87414         6.00673
     2020.45448         1.20729         5.97805
     2020.45722         3.24644         5.94938
     2020.45995         7.49359         5.97003
     2020.46269        -1.19826         5.97805
     2020.46543        -1.01611         5.99641
     2020.46817        -2.15096         5.97347
     2020.47091        -1.10381         6.04458
     2020.47364        -1.77966         5.94020
     2020.47638        -1.92151         6.06752
     2020.47912        -3.02037         6.17763
     2020.48186        -4.03422         6.04114
     2020.48459        -6.13707         6.13634
     2020.48733        -2.71092         6.20974
     2020.49007        -0.10577         6.22007
     2020.49281         6.24138         6.10881
     2020.49555         8.29753         6.14666
     2020.49828         0.65768         6.04573
     2020.50102        -5.59017         5.93332
     2020.50376        -3.55402         6.01246
     2020.50650        -4.94587         5.97347
     2020.50924       -10.03772         5.94479
     2020.51197        -4.41458         5.99755
     2020.51471        -0.13943         6.06867
     2020.51745         4.36272         5.93103
     2020.52019         1.58887         6.22810
     2020.52292         2.02302         6.13404
     2020.52566        -7.34083         6.20401
     2020.52840         1.47432         6.18566
     2020.53114        -1.59253         6.10996
     2020.53388         0.73562         6.07325
     2020.53661        -2.68523         6.09161
     2020.53935        -0.71508         6.19713
     2020.54209         4.11107         6.17419
     2020.54483        -5.57079         6.17533
     2020.54757        -2.06764         6.10652
     2020.55030        -2.19449         6.13060
     2020.55304         3.27866         6.18680
     2020.55578        -3.09919         6.21318
     2020.55852         0.49296         6.16960
     2020.56125         9.48611         6.17075
     2020.56399         3.87026         6.08587
     2020.56673        -2.72159         6.09505
     2020.56947         2.36356         6.14781
     2020.57221         0.84071         6.37606
     2020.57494        -1.88914         6.21204
     2020.57768         4.55501         6.11569
     2020.58042        -2.64185         7.25579
     2020.58316        -0.39470         6.33591
     2020.58590        -3.38355         6.10881
     2020.58863        -0.63040         6.12601
     2020.59137        -0.98225         6.06064
     2020.59411         5.28090         6.14322
     2020.59685         3.76105         6.60775
     2020.59958         9.60920         6.27742
     2020.60232         2.58435         6.05720
     2020.60506         2.71450         6.05375
     2020.60780         9.36565         6.24874
     2020.61054         4.79680         6.11454
     2020.61327        10.65294         6.19025
     2020.61601        -0.99191         6.08243
     2020.61875         0.94724         6.01820
     2020.62149        -0.58661         6.11913
     2020.62423         3.65254         6.11569
     2020.62696         2.86769         6.26365
     2020.62970        -4.88216         6.28200
     2020.63244         4.04599         6.14781
     2020.63518         6.26914         6.12716
     2020.63791         2.12629         6.21663
     2020.64065         4.89144         6.17419
     2020.64339         4.72059         6.14322
     2020.64613         3.91673         6.13748
     2020.64887         4.22688         6.09161
     2020.65160        -0.62297         6.11913
     2020.65434         3.16118         6.10881
     2020.65708         2.12833         6.13290
     2020.65982         6.50848         6.07555
     2020.66256        12.83663         6.09849
     2020.66529        11.42378         6.10422
     2020.66803         7.07493         6.06293
     2020.67077        20.80808         6.23957
     2020.67351         7.98223         6.05720
     2020.67624         5.69838         6.06867
     2020.67898        -0.43747         6.19483
     2020.68172        -0.26433         6.03770
     2020.68446         1.79582         6.24186
     2020.68720         1.88197         6.61348
     2020.68993         1.06912         6.22236
     2020.69267         5.54427         6.20516
     2020.69541         3.79442         6.34853
     2020.69815         5.46257         6.15239
     2020.70089         5.14272         6.01590
     2020.70362         4.37387         6.21204
     2020.70636         4.43802         6.59398
     2020.70910         1.28417         6.36917
     2020.71184         0.80832         6.25677
     2020.71457         3.71446         6.20630
     2020.71731         3.78561         6.29462
     2020.72008         5.08075         6.39670
     2020.72279         4.66091         6.17419
     2020.72553         5.85706         6.29806
     2020.72826         8.61421         6.28659
     2020.73100        12.15936         6.17763
     2020.73374         5.91851         6.16157
     2020.73648        11.22166         6.19598
     2020.73921         2.52781         6.21548
     2020.74195         3.57996         6.09849
     2020.74469         5.79511         6.09161
     2020.74743         2.35025         6.14895
     2020.75017         4.25140         6.16845
     2020.75290         3.44555         6.19942
     2020.75564         1.27570         6.05375
     2020.75838         9.88585         6.17304
     2020.76112         4.73300         6.11110
     2020.76386         3.45615         6.06293
     2020.76659         6.54230         6.03540
     2020.76933         7.08245         6.19598
     2020.77207         4.51660         6.03884
     2020.77481        16.67775         6.05031
     2020.77754        16.16090         6.02967
     2020.78028        14.11205         6.12831
     2020.78302         5.81419         6.12487
     2020.78576         8.47434         6.07899
     2020.78850         4.84849         6.12143
     2020.79123         4.62864         6.10766
     2020.79397        11.17379         6.07096
     2020.79671         5.39894         6.23612
     2020.79945         6.00609         5.99067
     2020.80219         6.72424         6.10307
     2020.80492         8.10939         5.96658
     2020.80766         0.38654         6.08014
     2020.81040        -6.49531         6.05949
     2020.81861       -15.82587         6.05146
     2020.82135         2.69828         6.05834
     2020.82409         8.54743         6.06408
     2020.82683        11.94458         6.06752
     2020.82956         8.68073         6.09734
     2020.83230        10.91188         6.10652
     2020.83504         3.49503         6.16272
     2020.83778         7.21618         5.99182
     2020.84052         5.72133         6.07899
     2020.84325         9.67348         6.13519
     2020.84599        -5.78437         6.17878
     2020.84873        13.55177         5.96773
     2020.85147         9.58592         6.03655
     2020.85420        11.40307         5.94250
     2020.85694        13.05922         6.02967
     2020.85968         6.39837         6.00214
     2020.86242         4.47652         6.05146
     2020.86516        11.08067         6.20516
     2020.86789         8.64782         6.25562
     2020.87063        20.43197         6.06293
     2020.87337        14.30512         6.05031
     2020.87611        12.08427         6.18910
     2020.87885        16.09642         6.20057
     2020.88158        16.49556         6.23268
     2020.88432        13.09171         6.12601
     2020.88706         4.26586         6.47584
     2020.88980         4.00001         6.16960
     2020.89253         5.57516         6.11110
     2020.89527        11.29731         6.26824
     2020.89801        10.59546         6.31641
     2020.90075        15.02261         6.08931
     2020.90349        10.69576         6.07899
     2020.90622         4.80091         6.10193
     2020.90896         8.35606         6.22121
     2020.91170         5.34121         6.42882
     2020.91444         9.00036         6.20745
     2020.91718         5.30450         6.13175
     2020.91991        -2.41435         6.09849
     2020.92265        -3.15920         6.08702
     2020.92539        -2.03805         6.08931
     2020.92813        -4.79890         6.14207
     2020.93086        -1.08775         6.14093
     2020.93360         2.21040         6.13634
     2020.93634         2.06855         6.14895
     2020.93908         5.85070         6.09963
     2020.94182         0.41885         6.06522
     2020.94455         0.06500         6.12372
     2020.94729        -9.15285         6.08702
     2020.95003        -9.56071         6.10537
     2020.95277       -19.31256         6.13404
     2020.95551       -15.43841         6.04573
     2020.95824       -11.33226         6.36917
     2020.96098       -17.23711         6.23268
     2020.96372        -0.72296         6.10307
     2020.96646         5.45519         6.17648
     2020.96919         9.19434         6.13404
     2020.97193        -2.21151         5.96658
     2020.97467         6.76664         6.15584
     2020.97741        -3.56121         6.22465
     2020.98015        -3.75206         6.40817
     2020.98288        -1.54392         6.18451
     2020.98562        -1.40077         6.00214
     2020.98836        -3.39062         6.08931
     2020.99110        -6.70847         6.02623
     2020.99384        -8.29832         6.06293
     2020.99657       -22.45117         6.01820
     2020.99931       -27.89402         6.10652
     2021.00205         1.76513         5.95626
     2021.00479        15.12128         5.98494
     2021.00752        14.48243         6.03426
     2021.01026        -2.92742         6.03196
     2021.01848        -1.77598         6.04228
     2021.02121        -2.70283         6.00214
     2021.02395        -2.93468         6.04573
     2021.02669        -4.72553         6.11110
     2021.02943        -1.62938         6.02164
     2021.03216        -3.60523         6.03999
     2021.03490         3.82792         6.08472
     2021.03764        -5.79293         6.07440
     2021.04038        -4.67678         6.12257
     2021.04312        -2.26563         6.04687
     2021.04585        -2.41948         6.04343
     2021.04859        -2.54533         6.00558
     2021.05133        -6.34819         6.05261
     2021.05404         1.69097         6.40244
     2021.05681         0.39611         6.13748
     2021.05954        -5.46274         6.02393
     2021.06228        -4.98459         6.02623
     2021.06502        -1.55244         6.06981
     2021.06776         2.86571         6.00788
     2021.07049        -0.76014         5.98264
     2021.07323        -4.59799         6.12372
     2021.07597       -24.84084         6.00558
     2021.07871        -4.87369         6.13634
     2021.08145        -1.49754         5.99755
     2021.08418        -6.52140         6.03082
     2021.08692         0.00375         6.02737
     2021.08966        -1.66710         6.02967
     2021.09240        -7.66295         6.00443
     2021.09514        -6.43980         6.16386
     2021.09787        -3.04665         6.17992
     2021.10061        -3.82350         6.01246
     2021.10335        -0.91435         6.02393
     2021.10609        -4.32120         6.03196
     2021.10882        -4.28005         6.01935
     2021.11156        -7.75090         6.03082
     2021.11430       -13.12675         6.02623
     2021.11704        -6.78060         6.02164
     2021.11978        -5.74046         6.02393
     2021.12251        -5.56531         6.01590
     2021.12525       -10.78516         6.03426
     2021.12799       -16.59801         6.08931
     2021.13073       -20.01486         6.00558
     2021.13347       -20.31071         6.11684
     2021.13620       -20.91056         6.04802
     2021.13894       -12.88541         5.99870
     2021.14168        -1.38926         6.15698
     2021.14442        -4.49111         6.01705
     2021.14715         0.06904         6.01590
     2021.14989        -9.07981         6.00673
     2021.15263        -6.85567         6.14781
     2021.15537        -0.75652         6.14551
     2021.15811         3.01763         6.31068
     2021.16084        -2.07122         6.15469
     2021.16358        -2.02607         6.18910
     2021.16632        -0.45292         6.18910
     2021.16906        -3.32677         6.06981
     2021.17180        -5.91762         6.02393
     2021.17453        -5.85647         6.19139
     2021.17727        -2.97932         6.13863
     2021.18001        -6.33717         6.11340
     2021.18275        -6.22802         6.25677
     2021.18548        -8.42988         5.98264
     2021.18822        -6.28373         5.98838
     2021.19096        -3.52158         5.97691
     2021.19370        -6.51743         6.03884
     2021.19644       -10.85628         5.95167
     2021.19917        -8.26713         5.98150
     2021.20191        -4.40398         5.97691
     2021.20465        -3.53583         5.99870
     2021.20739        -5.41468         6.10193
     2021.21013        -1.45953         6.18107
     2021.21286        -2.91638         6.12028
     2021.21560        -2.01323         6.01820
     2021.21834        -4.25308         6.12601
     2021.22108        -4.25494         6.00443
     2021.22381        -9.92979         6.00099
     2021.22655        -2.56564         6.19483
     2021.22929         1.53251         5.98838
     2021.23203         4.35966         5.99296
     2021.23477        -8.75619         5.98494
     2021.23750       -10.24504         5.96658
     2021.24024        -0.44089         6.84632
     2021.24298        -3.25574         5.98264
     2021.24572        -8.74759         5.99067
     2021.24846        -5.82544         6.13978
     2021.25119        -6.49429         5.98150
     2021.25393        -7.64315         6.13519
     2021.25667        -5.35000         5.94938
     2021.25941        -4.85285         5.95626
     2021.26214        -4.35070         6.12028
     2021.26488        -2.33155         6.05834
     2021.26762         2.45860         6.06637
     2021.27036        -5.43825         6.60316
     2021.27310        -2.02710         5.96429
     2021.27583        -5.34295         5.98264
     2021.27857        -8.49380         6.10193
     2021.28131        -8.77965         6.08014
     2021.28405        -3.99450         6.11340
     2021.28679         0.24564         6.11454
     2021.28952        -5.34621         6.64101
     2021.29226        -6.39406         6.13519
     2021.29500        -3.74891         6.10307
     2021.29774        -3.53276         6.34968
     2021.30047        -7.50661         6.23612
     2021.30321         1.04454         6.15010
     2021.30595         5.27769         6.30838
     2021.30869        10.52984         6.27742
     2021.31143         3.97499         5.98608
     2021.31416        11.32414         6.04228
     2021.31690         6.06629         6.06064
     2021.32021         0.65826         8.45553
     2021.32295         2.33441         8.42112
     2021.32569       -11.87644         7.91645
     2021.32842        -6.15629         7.99559
     2021.33116         4.05185         8.01050
     2021.33390         1.99400         7.90842
     2021.33664        -6.28285         7.90957
     2021.33937         4.38030         7.86254
     2021.34211        -3.66355         7.86254
     2021.34485        -0.74740         8.06211
     2021.34759        -6.08925         7.98068
     2021.35033         6.63990         8.24907
     2021.35306        -1.52995         7.91071
     2021.35580        -2.68480         7.93021
     2021.35854        -0.30565         7.99444
     2021.36128        -3.28850         8.17911
     2021.36402        -6.36836         8.12635
     2021.36653        -4.00314         7.07571
     2021.36892        -3.37088         6.00329
     2021.37166        -2.09573         5.98379
     2021.37440         3.39442         6.03540
     2021.37770        -2.01261         8.04147
     2021.38044         0.98354         8.20090
     2021.38318        -1.13631         8.55990
     2021.38592        -2.50616         8.28692
     2021.38866        -7.08101         8.10111
     2021.39214         9.73991       107.63365
     2021.39413         4.49529         8.04720
     2021.39687        -4.97957         8.26972
     2021.39938        -0.41934         7.06768
     2021.40177        -5.78909         6.17419
     2021.40451         3.39206         6.17075
     2021.40782        -0.59097         8.00132
     2021.41056        -1.35582         8.06556
     2021.41330         0.14633         8.27316
     2021.41603         1.16448         7.98183
     2021.41877         0.96363         8.17911
     2021.42425        -1.98207         8.19402
     2021.42699        12.91908         8.29036
     2021.42972         9.94023         7.97609
     2021.43246        15.09437         7.99330
     2021.43520         0.68152         7.98641
     2021.43794        -2.51433         8.24448
     2021.44068        -2.15218         8.19746
     2021.44341        -0.93703         8.20319
     2021.44615        -2.03988         8.12749
     2021.44889        -0.60273         8.23760
     2021.45163        -0.89958         8.54270
     2021.45436         2.20457         8.54614
     2021.45710         1.09472         8.41080
     2021.45984         4.83787         7.82698
     2021.46258        -3.42198         7.88892
     2021.46527        -4.74682         8.12290
     2021.46805         1.17131         7.85107
     2021.47079         1.43346         7.95774
     2021.47353         3.83261         8.46356
     2021.47627        -4.13624         8.05523
     2021.47901        -7.81309         8.18828
     2021.48174        -5.55994         8.00821
     2021.48448        -8.00979         8.02771
     2021.48722        -7.95964         8.18484
     2021.48996        -4.20549         7.96003
     2021.49269         3.17966         8.00362
     2021.49520         2.57988         7.32117
     2021.49817         3.65995         8.39244
     2021.50091         0.53510         8.24678
     2021.50365        -6.66775         8.03229
     2021.50638        -7.37760         8.36033
     2021.50912        -4.05245         8.31445
     2021.51186        -4.31630         8.63790
     2021.51459        -6.91315         8.52320
     2021.51733         0.14800         8.18484
     2021.52007        -1.51585         8.27660
     2021.52281        -5.47170         8.03115
     2021.52555         6.79345         8.10914
     2021.52829        -2.97640         8.09423
     2021.53102         3.31675         8.05753
     2021.53376         3.04389         8.25481
     2021.53650        -1.60496         8.34312
     2021.53924         2.36419         8.42341
     2021.54198         5.53334         8.05294
     2021.54471       -12.17951         8.19402
     2021.54745        -4.11636         8.11143
     2021.55019        -5.34021         8.14011
     2021.55293        -0.68306         8.19861
     2021.55566         2.98409         8.10685
     2021.55840        -8.39876         8.16305
     2021.56114         0.89539         8.07244
     2021.56388         5.87154         8.00247
     2021.56605         2.83486         6.12143
     2021.56878         1.91401         6.15698
     2021.57152        -5.06484         6.19713
     2021.57426        -2.00669         6.22236
     2021.57700         6.19346         6.64560
     2021.57974         0.17861         6.15354
     2021.58247        -4.74824         6.21777
     2021.58521        -2.26509         6.24874
     2021.58795        -2.13194         6.29347
     2021.59069         9.08320         7.15141
     2021.59342        -6.82465         6.22121
     2021.59616        -1.43050         6.30036
     2021.59890         1.49365         6.18910
     2021.60164         3.83180         6.43111
     2021.60438         3.23195         6.15698
     2021.60711        10.43310         6.16386
     2021.60985         4.76725         6.18107
     2021.61259         0.48840         6.26939
     2021.61533        -0.30845         6.13978
     2021.61807         3.13170         6.20401
     2021.62080         0.26285         6.26365
     2021.62354         9.38499         6.18910
     2021.62628         3.00114         6.13863
     2021.62902         3.42429         6.16157
     2021.63175         2.67244         6.30036
     2021.63449         2.26159         6.37720
     2021.63723        11.60274         6.51025
     2021.63997         8.38989         6.40358
     2021.64271         6.60404         6.25677
     2021.64544         1.00419         6.18451
     2021.64818         3.03934         6.15698
     2021.65092         6.26549         6.14093
     2021.65366         3.43264         6.16272
     2021.65639         4.54079         6.13863
     2021.65913         3.41293         6.15584
     2021.66187         1.12508         6.19827
     2021.66461         5.18223         6.10537
     2021.66735         6.00738         6.11225
     2021.67008         4.50453         6.26709
     2021.67282         8.11768         6.42996
     2021.67556         5.99883         6.49649
     2021.67830         4.89598         6.38982
     2021.68104         7.74713         6.16616
     2021.68377         7.73328         6.12372
     2021.68651         3.02543         6.21433
     2021.68925         9.08158         6.17763
     2021.69199         6.94072         6.16386
     2021.69472         8.04087         6.15125
     2021.69746         7.14402         6.19369
     2021.70020         8.25417         6.24415
     2021.70294         7.63132         6.29233
     2021.70568        15.63147         6.45864
     2021.70841        10.21262         6.31527
     2021.71115         8.24977         6.27397
     2021.71389        11.89992         6.35312
     2021.71663         6.01107         6.29233
     2021.71937         9.55422         6.29806
     2021.72210        -0.55863         6.33018
     2021.72484         2.31151         6.26824
     2021.72758         0.89666         6.28315
     2021.73032        -0.16219         6.59972
     2021.73305         8.87896         6.27856
     2021.73579        14.72911         6.37606
     2021.73855        14.13825         6.47470
     2021.74127        12.94841         6.28544
     2021.74401         8.88656         6.25677
     2021.74674        11.52371         6.28889
     2021.74948         5.51486         6.50911
     2021.75222         4.33401         6.31183
     2021.75496        10.85616         6.44832
     2021.75706        11.46850         8.55761
     2021.76043        11.29445         6.39326
     2021.76317         3.93160         6.38867
     2021.76591         6.36475         6.28430
     2021.76865         5.32090         6.31641
     2021.77138         5.99005         6.31068
     2021.77412         4.74220         6.40702
     2021.77686         7.31035         6.30609
     2021.77960         8.41750         6.32674
     2021.78234         8.82265         6.29806
     2021.78507        14.86180         6.27856
     2021.78781        12.43895         6.27512
     2021.79055         9.54110         6.25104
     2021.79329         8.18224         6.27397
     2021.79603         9.49139         6.23957
     2021.79876         9.46354         6.29806
     2021.80150        12.20769         6.38753
     2021.80424         9.60284         6.42079
     2021.80698        12.91699         6.28774
     2021.80971        11.88114         6.33132
     2021.81245        21.91429         6.39785
     2021.81519        19.81344         6.30609
     2021.81793        13.52659         6.25677
     2021.82067         8.28774         6.38064
     2021.82340        11.93889         6.49534
     2021.82614        13.90903         6.34279
     2021.82888        13.56318         6.41620
     2021.83162         9.66633         6.35541
     2021.83436        10.33848         6.36459
     2021.83709         9.99663         6.38638
     2021.83983         3.36278         6.36459
     2021.84257         5.65893         6.44832
     2021.84531         5.04708         6.37147
     2021.84804        12.09923         6.34509
     2021.85078        11.41938         6.33706
     2021.85352         4.77953         6.30953
     2021.85626         8.62668         6.25104
     2021.85900         3.60282         6.26021
     2021.86447         6.82212         6.50222
     2021.86721        10.82127         6.56531
     2021.86995        12.17242         6.60201
     2021.87269        10.15757         6.40702
     2021.87542        -0.33428         7.06424
     2021.87816         2.33287         6.28200
     2021.88090         3.14602         6.27397
     2021.88364       -19.15683         6.25333
     2021.88637         1.02232         6.23612
     2021.88911        -3.17053         6.28200
     2021.89185         1.32662         6.32444
     2021.89459         4.89276         6.27627
     2021.89733         7.06891         6.25218
     2021.90006         2.12306         6.27283
     2021.90280        -0.74779         6.27397
     2021.90554         3.34236         6.31297
     2021.90828         6.19451         6.30265
     2021.91102         8.17866         6.28200
     2021.91375         4.92781         6.26021
     2021.91649         1.24196         6.27742
     2021.91923         8.96011         6.38064
     2021.92197        -4.17074         6.62495
     2021.92470        -7.12359         6.42538
     2021.92744        -7.31245         6.42308
     2021.93018       -21.62030         6.38867
     2021.93292       -24.89115         6.53434
     2021.93566       -22.64600         6.67886
     2021.93839       -12.13785         6.49305
     2021.94113       -10.83970         6.62266
     2021.94387         1.51645         6.40473
     2021.94661         0.73760         6.37606
     2021.94935         9.65475         6.38294
     2021.95208        -7.16010         6.38753
     2021.95482        -8.10595         6.34279
     2021.95756        -6.42880         6.40244
     2021.96030       -17.37166         6.35885
     2021.96303       -23.22351         6.37835
     2021.97672       -21.72976         6.38867
     2021.97946        13.54139         6.40473
     2021.98220         7.40454         6.36229
     2021.98494        -1.08431         6.31297
     2021.98767        -8.36616         6.38982
     2021.99041        -6.62801         6.39097
     2021.99315       -11.43686         6.39097
     2021.99589        -5.92172         6.38179
     2021.99863       -17.20557         6.37835
     2022.00136       -17.42742         6.32100
     2022.00410       -22.24127         6.36573
     2022.01937         5.20199        17.69444
     2022.02345        -9.08228         7.32231
     2022.02600        -6.88007         6.41161
     2022.02874         0.07507         6.40129
     2022.03148        -2.71378         6.37261
     2022.03422        -2.57763         6.37835
     2022.03696        -4.50948         6.31183
     2022.03969        -5.63933         6.79700
     2022.04243         0.26982         6.35885
     2022.04517        -0.84303         6.42882
     2022.04791        -0.72688         6.37606
     2022.05065        -2.84373         6.28659
     2022.05338         0.40042         6.32559
     2022.05612       -12.59643         6.37261
     2022.05886       -11.32128         6.34738
     2022.06160        -9.02214         6.38753
     2022.06433        -0.91699         6.35426
     2022.06707        -8.16884         6.32903
     2022.06981        -0.82469         6.36573
     2022.07255       -13.32654         6.23154
     2022.07529        -6.37339         6.22351
     2022.07802        -1.63724         6.19139
     2022.08076         2.05391         6.18222
     2022.08350         3.41006         6.24186
     2022.08624         1.51921         6.22580
     2022.08898         1.71936         6.25333
     2022.09171        -4.96749         6.18910
     2022.09445        -7.14834         6.15354
     2022.09719        -5.86220         6.19827
     2022.09993        -4.83305         6.46208
     2022.10266        -2.19890         6.40014
     2022.10540        -3.34475         6.21204
     2022.10814         2.30140         6.15125
     2022.11088        -0.55645         6.25333
     2022.11362        -2.86430         6.22351
     2022.11635        -4.02815         6.20745
     2022.11909        -4.80800         6.20172
     2022.12183         1.97715         6.17304
     2022.12457        -6.36870         6.35541
     2022.12731        -6.48655         6.22121
     2022.13004        -6.91541         6.18566
     2022.13278        -3.13326         6.26595
     2022.13552         0.37589         6.19254
     2022.13826         5.41104         6.19139
     2022.14099        -0.04981         6.16272
     2022.14373       -12.81866         6.17648
     2022.14647        -3.79251         6.18222
     2022.14921        -0.46136         6.44143
     2022.15195        -4.81421         6.43111
     2022.15468        -2.81806         6.17648
     2022.15742        -1.81991         6.20974
     2022.16016         1.65924         6.19827
     2022.16290        -1.65162         6.20286
     2022.16564        -2.00347         6.17419
     2022.16837         3.78068         6.15469
     2022.17111        -1.70117         6.17648
     2022.17385        -2.66302         6.18336
     2022.17659        -0.29687         6.19942
     2022.17932        -5.58072         6.22465
     2022.18206        -8.85257         6.19369
     2022.18480        -7.66842         6.16042
     2022.18754        -3.95827         6.25104
     2022.19028        -5.86412         6.25792
     2022.19301        -1.22397         6.19139
     2022.19575         2.93918         6.16386
     2022.19849        -1.33468         6.18222
     2022.20123         4.20247         6.17304
     2022.20397         3.25962         6.17533
     2022.20670        -3.92323         6.38408
     2022.20944        -1.49008         6.34509
     2022.21218         0.97307         6.20860
     2022.21492        -5.34778         6.26595
     2022.21765        -2.00263         6.16960
     2022.22039        -4.49548         6.19598
     2022.22313        -0.49033         6.20630
     2022.22587       -10.23018         6.34050
     2022.22861        -4.33703         6.27512
     2022.23134        -0.85389         6.14437
     2022.23408         0.54026         6.19942
     2022.23682         1.80641         6.41391
     2022.23956        -4.32544         6.24186
     2022.24230        -1.57229         6.98166
     2022.25049        -5.11784         8.77324
     2022.25598         7.72446         6.27053
     2022.25872        -0.71339         6.27512
     2022.26146        -5.69124         6.21548
     2022.26420        -6.13410         6.25333
     2022.26694        -8.73895         6.39785
     2022.26967         1.11320         6.26595
     2022.27241         2.49735         6.21433
     2022.27515         4.64350         6.36573
     2022.27789         0.99065         6.19025
     2022.28062        -5.64220         6.20401
     2022.28336        -1.49105         6.24759
     2022.28610         0.18510         6.30265
     2022.28884        -5.63775         6.30265
     2022.29158        -5.35860         6.17304
     2022.29431        -4.10945         6.20057
     2022.29705        -1.74431         6.17648
     2022.29974        -0.01314         6.29462
     2022.30325         0.80577         9.33067
     2022.30527        -0.68086         6.28544
     2022.30800        -7.15871         6.26136
     2022.31074        -7.06756         6.16845
     2022.31348        -5.48441         6.22007
     2022.31622        -7.77326         6.24301
     2022.31895       -18.79811         6.38523
     2022.32169        -2.11096         6.39555
     2022.32443        -2.31681         6.16386
     2022.32717        -4.90466         6.14093
     2022.32991        -3.43651         6.23383
     2022.33264       -10.54737         6.32215
     2022.33538        -5.44822         6.46208
     2022.33812        -3.10007         6.44373
     2022.34086         3.06908         6.22351
     2022.34360         0.08823         6.17419
     2022.34633         5.90238         6.21089
     2022.34907        -1.10947         6.20516
     2022.35181         4.78268         6.20401
     2022.35455         1.04583         6.18795
     2022.35728        -3.82002         6.20172
     2022.36002        -0.78687         6.19139
     2022.36276        -0.09872         6.20172
     2022.36550        -2.82458         6.20172
     2022.36824        -0.36443         6.17533
     2022.37097        -4.69228         6.20057
     2022.37371        -7.83213         6.21892
     2022.37645        -8.37298         6.26250
     2022.37919        -1.36783         6.32444
     2022.38193        -6.57868         6.34279
     2022.38466        -4.97053         6.26250
     2022.38740       -17.84738         6.25333
     2022.39014        -4.17123         6.23268
     2022.39288        -5.15408         6.20057
     2022.39561        -4.72993         6.15354
     2022.39755        -3.02954         9.67133
     2022.40109         3.50636         6.35885
     2022.40383        -2.54449         6.16501
     2022.40657         1.20766         6.13404
     2022.40930        -4.88019         6.27053
     2022.41204        -4.59004         6.25104
     2022.41478        -5.12489         6.10537
     2022.41752        -1.84074         6.33935
     2022.42026        -5.79859         6.35656
     2022.42299        -1.95144         6.16042
     2022.42573        -5.67129         6.16845
     2022.42847         2.17486         6.17304
     2022.43121        -2.71099         6.37032
     2022.43394         0.16015         6.33362
     2022.43668        -9.19670         6.15010
     2022.43942        -5.96855         6.25906
     2022.44216         0.76460         6.54810
     2022.44490         6.14175         6.31985
     2022.44763         8.21490         6.10881
     2022.45037        -0.52095         6.12831
     2022.45311        -7.46180         6.13404
     2022.45585        -2.91365         6.18566
     2022.45859       -18.23750         6.14551
     2022.46132        -4.23435         6.13290
     2022.46406        -6.86920         6.13060
     2022.46680        -2.10706         6.21089
     2022.46954        -4.33791         6.24874
     2022.47227       -19.52576         6.15928
     2022.47501         0.42439         6.28659
     2022.47775        -2.89546         6.27856
     2022.47998        -3.54215         7.68705
     2022.48327        -1.24618         6.26709
     2022.48596         3.19399         6.15125
     2022.48870       -13.64386         6.29347
     2022.49144        -1.75771         6.12487
     2022.49418        -1.31356         6.35885
     2022.49692       -10.36241         6.31183
     2022.49965        -9.08127         6.26136
     2022.50239       -16.46312         6.24759
     2022.50513         1.09503         6.56875
     2022.50787         8.88318         6.65248
     2022.51060        -9.11767         6.30724
     2022.51334        -5.47452         6.25906
     2022.51608       -13.49637         6.23612
     2022.51882       -15.65822         6.12372
     2022.52156        -5.67407         6.13978
     2022.52429        -1.17992         6.15469
     2022.52703         0.30323         6.17992
     2022.52977         1.73938         6.22007
     2022.53251        -4.73347         6.17075
     2022.53525        -4.96833         6.21548
     2022.53798        -0.39218         6.18910
     2022.54056        -0.46198         6.53204
     2022.54359         2.29808         6.55957
     2022.54620         1.34827         6.18795
     2022.54893         3.72642         6.13748
     2022.55167         2.54957         6.19025
     2022.55441         5.28872         6.16501
     2022.55715         6.99087         6.36573
     2022.55989         2.20602         6.21089
     2022.56262        -1.75983         6.12028
     2022.56536        -6.83768         6.12257
     2022.56810        -3.68454         6.18451
     2022.57084         0.53561         6.13978
     2022.57357         3.96676         6.48502
     2022.57631        -1.92409         6.17992
     2022.57905        -0.82994         6.18680
     2022.58179        10.36621         6.15469
     2022.58453         7.88036         6.29347
     2022.58726         2.98451         6.12372
     2022.59000         3.94066         6.19827
     2022.59274        -4.91019         6.05720
     2022.59548        -1.25304         6.08243
     2022.59822        -3.41989         6.07440
     2022.60095        -8.94875         6.13519
     2022.60369        -3.22260         6.20172
     2022.60643         3.61755         6.17075
     2022.60917        14.40270         6.50108
     2022.61190        12.47085         6.39441
     2022.61464         2.15400         6.42423
     2022.61738         8.94715         6.08472
     2022.62012         2.06030         6.13978
     2022.62286         9.06845         6.02049
     2022.62559         1.36560         6.00443
     2022.62833         0.90775         6.04802
     2022.63107        10.23190         6.06178
     2022.63381        10.61605         6.13634
     2022.63655        17.68819         6.34050
     2022.63928        -0.21566         6.07211
     2022.64202         2.77649         6.61922
     2022.64476        10.03564         6.57907
     2022.64750        16.19279         6.40588
     2022.65023        13.17994         6.31527
     2022.65297        13.73809         6.29347
     2022.65571        10.62924         6.24186
     2022.65845        12.14939         6.12601
     2022.66119         9.73854         6.08587
     2022.66392        11.39469         6.10881
     2022.66666        10.81184         6.23612
     2022.66940        10.91198         6.09275
     2022.67214         7.29213         6.08816
     2022.67488         9.59628         6.20286
     2022.67761         6.46243         6.23039
     2022.68035        10.60458         6.06064
     2022.68309         9.71673         6.14551
     2022.68583        15.09288         6.34394
     2022.68856        10.26603         6.14895
     2022.69130         8.48018         6.34509
     2022.69404        10.96933         6.30380
     2022.69679         9.88047         6.28430
     2022.69952         9.88163         6.41964
     2022.70225         8.90777         6.74424
     2022.70499         9.68092         6.37720
     2022.70773        10.49007         6.27742
     2022.71047        12.46322         6.10996
     2022.71321        17.02537         6.33247
     2022.71868        14.15467         6.09963
     2022.72142        13.37182         6.12257
     2022.72416        10.49497         6.31183
     2022.72689        12.40312         6.20630
     2022.72963        12.56727         6.38179
     2022.73238         9.93041         6.16042
     2022.73511         8.23256         6.18566
     2022.73785         7.98271         6.35656
     2022.74058        15.50786         6.36459
     2022.74332        15.34601         6.40702
     2022.74606        14.47916         6.27742
     2022.74880        10.79231         6.20630
