# ================= DQRFIT RESULTS ================
# INPUT FILE: series/RSBG.rad
# OUTPUT: LDETRENDED
# FILTER FUNCTION: f(t)
# f(t)=+line(t)+annual(t)
# line(t)=+P 1+P 2*t
# annual(t)=+P 3*sin(2*pi*t+P 4)
# heav(t)=(t<0?0:1)
# TOTAL OBSERVATIONS MTOT= 2726
# INITIAL TIME INTERVAL= 2022.7488 - 2013.7112 =  9.0376
# TOTAL OBSERVATIONS AFTER PREFILTER M= 2715
# TIME-SPAN= 2022.7488 - 2013.7112 =  9.0376
# OBSERVATIONS: USED M=  2715 REJECTED MTOT-M=    11 %USED=   99.5965
# N=  4 PARAMETERS
# MAXSIG= 175.00000
# MAXRES=  49.48876
# SCALE FACTOR FOR LENGTHS: SCL=  10.00000
# SCALE FACTOR FOR SIGMAS: SCLSIG=   1.00000
# CHI^2=   2234.457 DOF=  2711 CHI^2/DOF=   0.82422
# RMS=      6.497 SDEV=      6.494 MEAN=    0.23114
#  P #       PARAMETER +-    SIGMA %error PARAMETER NAME
# P 1 =      1940.25775 +-   79.595   4.10 YZERO                              
# P 2 =        -0.96232 +-    0.039   4.10 SLOPE                              
# P 3 =         3.89343 +-    0.141   3.62 ANNUAL AMPLITUDE                   
# P 4 =        -3.07479 +-    0.051   1.66 ANNUAL PHASE                       
#       T            LDETRENDED       SIG_OBS
     2013.71115         4.05327         5.01232
     2013.71389         4.15190         4.92789
     2013.71663         0.57654         5.06861
     2013.71937        16.22117         5.61787
     2013.72210        15.24781         5.11945
     2013.72484         5.20544         5.03411
     2013.72758         6.57508         4.98509
     2013.73032         1.06071         4.96965
     2013.73305         6.36035         4.98509
     2013.73579         4.30298         4.94514
     2013.73853         4.98161         5.01232
     2013.74127         2.11325         5.10129
     2013.74401         7.19088         5.26743
     2013.74674         4.79652         5.25018
     2013.74948         6.32515         5.02140
     2013.75222        -0.13621         4.97328
     2013.75496        -1.78058         4.99144
     2013.75770        -5.48294         4.94514
     2013.76043        -7.33331         4.93879
     2013.76317        -1.49367         4.99961
     2013.76591         3.52996         5.08949
     2013.76865        -3.54140         4.95785
     2013.77138        -1.94077         4.97147
     2013.77412        -0.91613         5.09312
     2013.77686        -2.01150         4.96511
     2013.77960        -3.46486         5.01595
     2013.78234        -6.72223         5.06135
     2013.78507        -8.59760         4.94786
     2013.78781        -9.04396         4.95422
     2013.79055        -4.97033         5.01414
     2013.79329        -1.53969         4.98872
     2013.79603        -0.54206         4.94332
     2013.79876        -2.21042         5.16303
     2013.80150         2.19821         5.01777
     2013.80424         1.11485         5.02231
     2013.80698         2.51148         4.97782
     2013.80971         2.81412         4.99144
     2013.81245         5.65575         4.93334
     2013.81519        -0.79461         4.92880
     2013.81793        -2.54498         4.92335
     2013.82067         1.41366         5.11582
     2013.82340         4.38729         5.01959
     2013.82614        -1.14108         5.11037
     2013.82888         3.29356         4.92335
     2013.83162         3.88719         4.97782
     2013.83436         2.19283         5.11037
     2013.83709        -1.13954         5.19662
     2013.83983         6.17410         5.11400
     2013.84257         1.69873         5.03774
     2013.84531         1.40237         5.06316
     2013.84804         0.89700         4.92608
     2013.85078        -8.24536         5.14033
     2013.85352        -1.36273         4.96602
     2013.85626         4.71191         4.98327
     2013.85900         3.73054         4.97873
     2013.86173         0.60918         5.03774
     2013.86447        -7.98519         5.16303
     2013.86721        -2.82855         4.99416
     2013.86995         1.89308         4.98236
     2013.87269         4.70071         4.99416
     2013.87542         7.27235         5.02503
     2013.87816         7.63298         4.98418
     2013.88090         2.00262         5.08677
     2013.88364         7.93525         5.21205
     2013.88637         2.98289         5.05318
     2013.88911        -1.03048         4.95150
     2013.89185        -6.50084         4.91972
     2013.89459        -4.58821         4.92789
     2013.89733         0.18143         4.94332
     2013.90001        -2.38099         5.15667
     2013.90280        -2.91730         5.17846
     2013.90554        -1.30267         4.95603
     2013.90828         2.25997         4.95059
     2013.91102        -1.47940         4.98690
     2013.91375        -1.37576         5.01595
     2013.91649        -0.41813         5.02049
     2013.91923         2.76450         5.14305
     2013.92197        -0.44586         5.19117
     2013.92470         1.83077         4.94242
     2013.92744        -0.75559         5.02957
     2013.93018        -4.63696         4.97328
     2013.93566       -16.98069         5.00597
     2013.93839       -17.67105         5.04864
     2013.94113       -16.82642         5.01959
     2013.94387        -9.29378         5.01051
     2013.94661        -0.22415         5.07406
     2013.94935        -0.41551         4.98599
     2013.95208         0.61012         4.90883
     2013.95482        -5.25924         5.06044
     2013.95756         1.46239         4.95240
     2013.96030         1.37303         4.99780
     2013.96303        -2.34134         5.00778
     2013.96577         1.88329         4.93697
     2013.96851         0.65893         4.99780
     2013.97125        11.21156         4.95694
     2013.97399        -2.01380         4.99689
     2013.97672        -8.34317         4.97147
     2013.97946         0.18347         4.91881
     2013.98220        -3.64090         4.96784
     2013.98494         0.12574         4.91609
     2013.98767        -2.37563         5.05590
     2013.99041        -9.08399         4.99598
     2013.99315       -11.22636         4.94060
     2013.99589        -4.94272         4.94151
     2013.99863       -10.22909         5.00143
     2014.00410        -3.92182         4.96784
     2014.00684        -2.09419         5.11219
     2014.00958        -3.79555         4.93879
     2014.01232        -5.18492         5.03139
     2014.01505        -7.84628         5.10946
     2014.01779        -8.59065         5.09585
     2014.02053         0.18099         4.95603
     2014.02327         2.05162         5.17029
     2014.02600         5.83326         5.10492
     2014.02874         7.02689         5.16303
     2014.03148         7.71953         5.03320
     2014.03422        -4.44484         4.93879
     2014.03692        -5.39524         5.02231
     2014.03969        -4.82257         5.15486
     2014.04243         0.20007         5.08949
     2014.04517         4.55870         5.10039
     2014.04791        -1.17766         4.98327
     2014.05065         0.00797         4.94605
     2014.05338        -6.14140         4.94968
     2014.05612        -3.01976         4.96602
     2014.05886        -6.50613         4.97601
     2014.06160         2.93251         5.23293
     2014.06433        -5.23886         5.11310
     2014.06707        -2.44222         5.11945
     2014.06981        -0.91959         4.98963
     2014.07255        -3.36695         4.99507
     2014.07529         2.18568         4.98327
     2014.07802        10.80532         5.13579
     2014.08076         2.56295         5.03230
     2014.08350         0.86759         5.00415
     2014.08624        -1.75578         5.01232
     2014.08898        -3.44014         5.13398
     2014.09171         0.73449         5.15123
     2014.09445        -2.03987         4.98236
     2014.09719        -4.46224         5.12581
     2014.09993         3.20839         4.98599
     2014.10266         9.07103         5.08858
     2014.10540         4.33466         5.03774
     2014.10814         7.57530         5.02412
     2014.11088        -2.42607         5.06135
     2014.11362        -7.69043         4.99053
     2014.11635         1.93820         5.03865
     2014.11909         0.28184         5.06589
     2014.12183         2.79347         5.03230
     2014.12457         1.40911         5.17211
     2014.12731         2.55874         5.00324
     2014.13004         2.22238         4.96511
     2014.13278        -4.10399         5.22658
     2014.13552         2.33065         5.10129
     2014.13826         3.51828         4.95603
     2014.14099         1.89692         4.94423
     2014.14373        -1.55245         4.99144
     2014.14647        -1.50382         5.07224
     2014.14921        -2.53018         5.02412
     2014.15195         0.62845         5.01232
     2014.15468        -0.08591         4.99416
     2014.15742         4.01972         5.03865
     2014.16016         6.37836         5.21387
     2014.16290        -0.18601         5.10220
     2014.16564         2.73263         5.21296
     2014.16837        -5.24174         5.23838
     2014.17111         2.52190         5.14305
     2014.17385         2.32453         5.27379
     2014.17659         2.21717         5.14578
     2014.17932         6.88780         5.29921
     2014.18206        -0.68056         5.09221
     2014.18480         4.42607         5.78128
     2014.18754        -5.85630         5.55250
     2014.19028        -3.24266         5.03411
     2014.19301        -1.10603         5.01141
     2014.19575        -4.18139         4.99326
     2014.19849         2.23124         5.05227
     2014.20123        -0.46912         5.01686
     2014.20397        -7.33249         5.01323
     2014.20670        -3.03285         5.10674
     2014.20944         0.56278         4.98327
     2014.21218         0.95342         4.97328
     2014.21492        -2.31995         5.11763
     2014.21765         0.78669         5.00506
     2014.22039        -1.34868         5.00415
     2014.22313        -0.94504         4.98145
     2014.22587        -3.88241         5.22295
     2014.22861         6.63823         6.04729
     2014.23134        -2.46914         5.33643
     2014.23408        -1.49251         5.77674
     2014.23682        -4.93987         5.14578
     2014.23956        -4.89924         5.23203
     2014.24230         0.33640         5.04864
     2014.24503        -4.08797         5.02049
     2014.24777        -0.05833         5.25109
     2014.25051        -4.19170         5.02503
     2014.25325        -3.92306         4.96784
     2014.25598        -0.88243         5.15576
     2014.25872        -1.97179         5.01323
     2014.26146        -4.82116         5.17755
     2014.26420        -7.88252         5.02685
     2014.26694        -7.01689         5.02776
     2014.26967        -6.66025         5.04410
     2014.27241        -1.07062         5.17483
     2014.27515        -3.63198         5.14669
     2014.27789        -4.85735         5.05045
     2014.28062        -1.47072         4.99961
     2014.28336        -6.58108         5.02685
     2014.28610         1.10455         5.11310
     2014.28884        -2.41981         5.67960
     2014.29158        -4.72818         5.02140
     2014.29431        -5.73754         5.02231
     2014.29705        -7.51491         5.24564
     2014.29979        -6.60727         5.02322
     2014.30253        -2.71064         5.07587
     2014.30527        -2.39700         5.08858
     2014.30800        -5.76937         5.04501
     2014.31074        -3.52473         5.10856
     2014.31348        -4.51610         5.06679
     2014.31622        -5.46146         4.99326
     2014.31895        -1.46483         5.09040
     2014.32169        -6.60419         5.12762
     2014.32443       -10.50056         5.10039
     2014.32717        -9.83893         5.12036
     2014.32991        -2.18529         4.97601
     2014.33264        -7.34766         5.13942
     2014.33538        -8.95802         5.02412
     2014.33812        -4.07039         5.22930
     2014.34086        -3.93875         5.13216
     2014.34360        -4.40812         5.03048
     2014.34633        -4.25548         5.02776
     2014.34907        -1.80585         5.37819
     2014.35181         1.20179         5.17392
     2014.35455        -3.56958         5.05045
     2014.35728        -8.72594         5.00052
     2014.36002        -9.23531         5.03139
     2014.36276        -9.10667         4.99870
     2014.36550        -5.90104         4.99326
     2014.36824       -12.00541         5.05408
     2014.37097        -2.59977         5.41087
     2014.37371        -7.84314         5.06498
     2014.37645         0.41550         5.14759
     2014.37919         1.25213         5.14396
     2014.38193        -9.65223         5.08495
     2014.38466        -1.87160         5.07860
     2014.38740        -6.54596         5.06770
     2014.39014        -5.57533         5.18663
     2014.39288        -7.25169         5.08223
     2014.39561        -4.02406         5.08314
     2014.39835        -4.63942         5.15486
     2014.40109        -5.90079         5.02503
     2014.40383        -2.91115         5.13125
     2014.40657        -7.33252         5.06498
     2014.40930        -5.00788         5.05045
     2014.41204        -7.20125         5.13488
     2014.41478        -1.58562         5.03502
     2014.41752       -11.49998         5.00052
     2014.42026        -3.22635         4.98327
     2014.42299        -6.44771         4.98418
     2014.42573        -2.08508         5.03230
     2014.42847        -0.69844         5.11763
     2014.43121        -8.12181         4.99507
     2014.43394        -3.84217         5.02776
     2014.43668        -3.66254         5.10492
     2014.43942        -0.81390         5.05681
     2014.44216        -6.58027         5.02503
     2014.44490        -1.47663         5.20116
     2014.44763         1.13500         5.25381
     2014.45037        -5.04136         4.96421
     2014.45311        -8.64373         4.96511
     2014.45585        -7.26909         4.99780
     2014.45859       -11.32446         4.99780
     2014.46132        -9.15783         5.00506
     2014.46406        -3.85719         5.03593
     2014.46680        -7.22056         5.55976
     2014.46954        -4.48892         5.01323
     2014.47227        -2.61729         4.98599
     2014.47501        -4.91765         5.02503
     2014.47775        -5.87302         5.01595
     2014.48049        -2.01538         5.07860
     2014.48323        -0.11675         5.11491
     2014.48596         5.75289         5.15213
     2014.48870         4.51652         5.02231
     2014.49144         2.87616         4.92335
     2014.49418        -3.37921         4.91155
     2014.49692        -6.00257         4.95876
     2014.49965        -3.97294         5.11763
     2014.50239        -4.54330         4.99598
     2014.50513        -7.03467         5.04501
     2014.50787        -8.65604         4.97873
     2014.51060        -9.31640         4.98599
     2014.51334        -2.38277         4.93969
     2014.51608         5.60887         5.05408
     2014.51882        -6.49250         5.04773
     2014.52156        -1.60886         5.07043
     2014.52429        -0.46323         5.04954
     2014.52703         1.48741         4.96693
     2014.52977        -5.58096         5.09221
     2014.53251        -2.86632         4.96693
     2014.53525         1.93731         5.02412
     2014.53798         1.44595         4.96239
     2014.54072         4.25758         5.07315
     2014.54346        -1.33278         4.98236
     2014.54620        -0.62215         5.27016
     2014.54893        -2.06451         5.02957
     2014.55167         2.42112         4.99598
     2014.55441        -1.55325         5.15032
     2014.55715         5.78939         5.22476
     2014.55989         1.08502         4.99507
     2014.56262        -2.71434         4.95785
     2014.56536        -2.26271         4.97873
     2014.56810        -7.55907         5.02866
     2014.57084        -1.66944         4.97328
     2014.57357        -4.25580         4.99144
     2014.57631        -1.72617         4.99870
     2014.57905        -0.72853         5.05318
     2014.58179        -7.10490         5.16575
     2014.58453         2.54074         5.04773
     2014.58726         3.31137         5.30012
     2014.59000        -2.87599         5.09585
     2014.59274        -2.19136         5.22749
     2014.59548         0.85327         5.14669
     2014.59822         0.85991         5.20479
     2014.60095        -0.74346         5.08314
     2014.60369        -2.10482         5.11037
     2014.60643        -4.87119         5.06135
     2014.60917         2.60045         5.13216
     2014.61156        -2.04225         6.21343
     2014.61561        -6.80635         9.78043
     2014.61738         2.56035         5.16394
     2014.62012        -3.73701         5.16484
     2014.62286        -2.78138         5.19208
     2014.62559        -2.14974         5.08586
     2014.62833         4.21489         5.02776
     2014.63107         8.90153         5.12217
     2014.63381         1.64716         5.16212
     2014.63655        -1.39820         5.79581
     2014.63928        -3.07157         5.06225
     2014.64202        -0.05794         5.00415
     2014.64476         0.03170         5.05862
     2014.64750         0.36433         5.05136
     2014.65023        -3.19103         5.00415
     2014.65263         6.29327         5.69867
     2014.65936        -9.25425         9.68964
     2014.66119         1.93351         5.16484
     2014.66392         0.60214         5.07860
     2014.66666         3.56478         5.02866
     2014.66940         5.48441         5.04137
     2014.67214         3.06905         5.01232
     2014.67488         0.84868         4.98963
     2014.67761         1.06932         5.02957
     2014.68035        -1.86605         5.01414
     2014.68309         3.36059         5.00415
     2014.68583        -0.52578         4.99507
     2014.68856         2.48385         4.99870
     2014.69130        -0.60451         5.06225
     2014.69404         1.39912         5.03048
     2014.69678        -0.95424         5.20661
     2014.69952         6.56339         4.97147
     2014.70225         4.27603         4.96239
     2014.70499         4.77966         5.07224
     2014.70773         6.81530         5.07769
     2014.71047         1.31493         5.13579
     2014.71321         9.78957         5.04954
     2014.71594         2.80220         5.01414
     2014.71868         3.87484         5.04137
     2014.72142         2.13647         4.97601
     2014.72416         3.33311         5.01595
     2014.72689         1.17574         5.16303
     2014.72963         6.29338         5.10583
     2014.73237         3.19401         5.14941
     2014.73511         0.00964         4.96874
     2014.73785         0.63828         5.01505
     2014.74058        -0.67709         5.03411
     2014.74332         2.39255         5.09948
     2014.74606         6.22918         5.04410
     2014.74880         3.00482         4.98327
     2014.75154        -1.84255         5.07678
     2014.75427         3.06309         5.18663
     2014.75701        -4.04928         4.97873
     2014.75975         3.45336         4.99870
     2014.76249         1.86499         4.94514
     2014.76522         4.37963         5.00415
     2014.76796         1.21126         5.14941
     2014.77070         2.78190         5.02594
     2014.77344         2.05553         5.08132
     2014.77618         6.95016         5.16484
     2014.77891         3.19380         4.98781
     2014.78165         2.52843         4.96330
     2014.78439        12.24207         5.22385
     2014.78713         6.66070         5.05772
     2014.78987         1.61034         5.01051
     2014.79260         9.52097         5.03956
     2014.79534         8.00561         4.95694
     2014.79808         5.18624         5.10583
     2014.80082         7.34088         5.20842
     2014.80355         8.31051         5.18936
     2014.80629         6.46015         5.02412
     2014.80903        12.76278         5.06589
     2014.81177         7.35042         4.95150
     2014.81451        12.56005         5.17665
     2014.81724         8.31469         5.10856
     2014.81998         4.92332         5.03048
     2014.82266         8.47790         5.19480
     2014.82454        19.49571         9.08954
     2014.82865        -8.43434         7.13854
     2014.83093         1.93486         5.13852
     2014.83367         4.05249         5.08495
     2014.83641         4.84213         5.01505
     2014.83915         5.38176         4.95967
     2014.84188         6.68640         5.25291
     2014.84462         1.91903         5.07678
     2014.84736        -1.77933         5.20570
     2014.85010        -0.23670         5.07043
     2014.85284         3.86294         5.01686
     2014.85557         0.16257         5.24474
     2014.85831         5.95821         5.05136
     2014.86105        -1.22616         5.25381
     2014.86379        -0.56052         5.05499
     2014.86653         0.43811         5.28287
     2014.86926         7.27374         5.09494
     2014.87200        -1.96062         5.03774
     2014.87474        -3.69099         5.06498
     2014.87748        -2.20835         5.04773
     2014.88021        -0.65372         5.38182
     2014.88295        -0.34708         5.24746
     2014.88569         2.10155         5.23475
     2014.88843         2.60019         5.31827
     2014.89117        14.07582         5.54252
     2014.89390         1.01746         5.21205
     2014.89664         1.20309         5.34369
     2014.89938        -7.96927         5.34460
     2014.90212        -7.82964         5.21387
     2014.90485        -2.23300         5.15486
     2014.90759         4.05663         5.25835
     2014.91033         1.79927         5.08768
     2014.91307         4.08190         5.02503
     2014.91581         6.40253         5.08768
     2014.91854         6.30617         5.03502
     2014.92128         1.17280         5.04864
     2014.92402         4.12044         5.16303
     2014.92676        -1.76593         5.13125
     2014.92950        -6.10829         5.13761
     2014.93223        -4.72366         5.07678
     2014.93497        -9.43402         5.20933
     2014.93771        -9.52039         5.27197
     2014.94045        -3.72575         5.17392
     2014.94318         1.73188         5.37274
     2014.94592         3.87452         5.04954
     2014.94866        -2.66785         4.94968
     2014.95140        -2.81421         4.99235
     2014.95414        -0.98058         5.04410
     2014.95687         8.07405         4.94423
     2014.95961         2.17269         5.12217
     2014.96235        -0.18368         5.04228
     2014.96509         1.86296         5.09766
     2014.96783        -3.11641         4.97147
     2014.97056        -0.98577         4.97238
     2014.97330        -3.76914         5.18754
     2014.97604       -10.02950         4.97964
     2014.97878        -1.71687         4.99507
     2014.98151         4.74777         5.06407
     2014.98425        -6.51360         4.95876
     2014.98699        -2.21496         4.91881
     2014.98973        -7.41733         4.98236
     2014.99247        -2.90269         5.12581
     2014.99520        -4.79206         4.94514
     2014.99794         0.21858         4.91155
     2015.00068        -7.58879         4.91336
     2015.00342        -8.05216         4.93334
     2015.00616       -11.93252         4.99870
     2015.00889        -3.36489         5.08586
     2015.01163        -4.78225         5.09312
     2015.01437        -3.66162         5.08768
     2015.01711        -2.30998         5.02594
     2015.01984         0.22265         5.02140
     2015.02258         3.10729         5.10765
     2015.02532        -0.35608         5.22295
     2015.02806         2.00856         5.03502
     2015.03080         4.56719         5.20661
     2015.03353        -3.10817         5.03865
     2015.03627        -1.12454         5.01323
     2015.03901         5.45410         5.09766
     2015.04175         6.81173         5.12581
     2015.04449         0.31137         5.16030
     2015.04722         2.41000         5.18209
     2015.04996        -1.02637         5.27379
     2015.05270        -1.62473         5.02231
     2015.05544        -1.92410         5.05045
     2015.05817         0.19754         5.05227
     2015.06091         0.25217         5.04773
     2015.06365         1.52481         5.17120
     2015.06639         1.40944         4.99144
     2015.06913         3.57308         5.02140
     2015.07186        -1.92829         4.96330
     2015.07460        -2.33465         4.97056
     2015.07734        -8.15102         4.97147
     2015.08008        -7.50538         4.94060
     2015.08282        -0.73175         5.02049
     2015.08555         0.29189         4.98599
     2015.08829         4.03852         5.02866
     2015.09103        -1.94284         5.02685
     2015.09377         2.32279         5.05862
     2015.09650         0.71142         5.03502
     2015.09924        10.86006         5.11763
     2015.10198         5.64769         5.11128
     2015.10472         2.24633         5.14759
     2015.10746         1.78096         5.09857
     2015.11019        -8.31340         5.30375
     2015.11293        -2.35377         5.05590
     2015.11567        -2.22713         4.97056
     2015.11841        -7.38250         4.99235
     2015.12115        -4.06086         4.97964
     2015.12388        -3.78623         4.94605
     2015.12662        -4.42359         4.99961
     2015.12936        -2.76896         4.99235
     2015.13210        -2.15132         5.41360
     2015.13483        -8.51569         5.07224
     2015.13757        -3.28606         5.01777
     2015.14031        -5.26842         4.98690
     2015.14305        -0.94179         5.05953
     2015.14579        -1.03415         4.95513
     2015.14852        -2.01952         4.95876
     2015.15126         2.11812         6.39591
     2015.15400        -2.96825         5.32372
     2015.15674        -0.77061         5.06316
     2015.15948         5.28602         5.07769
     2015.16221        -0.83834         5.00688
     2015.16495        -2.01471         4.97147
     2015.16769        -2.45307         4.95603
     2015.17043        -1.86144         4.99961
     2015.17316        -2.25480         5.13942
     2015.17590        -3.18817         5.27470
     2015.17864        -5.41753         4.93606
     2015.18092         1.22966         6.24883
     2015.19233         3.44064         5.09857
     2015.19507        -1.77573         5.11763
     2015.19780         0.74391         5.10492
     2015.20054        -2.64946         5.10402
     2015.20328        -1.81082         4.94423
     2015.20602        -6.84819         4.99235
     2015.20876        -6.75355         5.13488
     2015.21149        -5.66292         4.97238
     2015.21423        -9.47228         5.34732
     2015.21697        -2.94765         5.00960
     2015.21971         1.74899         5.08949
     2015.22245        -6.28038         4.99326
     2015.22518         2.28826         5.00688
     2015.22792        -1.63411         4.95967
     2015.23066        -2.09548         4.97419
     2015.23340        -4.82284         5.13125
     2015.23613        -3.33821         5.15576
     2015.23887        -8.19357         5.20479
     2015.24161        -4.37494         5.25745
     2015.24435        -0.18130         5.45627
     2015.24709        -1.44067         5.11400
     2015.24982        -1.84703         4.95694
     2015.25256        -5.85340         4.96239
     2015.25530        -6.26976         5.16757
     2015.25804        -3.03713         4.99235
     2015.26078         3.96051         5.01232
     2015.26351        -0.18486         5.00960
     2015.26625         1.07678         4.94786
     2015.26899        -6.91659         4.95876
     2015.27173         1.27005         5.06679
     2015.27446         0.98268         5.16666
     2015.27720        -1.76869         4.95785
     2015.27994        -5.87905         4.99144
     2015.28268        -4.71742         5.02322
     2015.28542        -2.73178         5.06589
     2015.28815        -7.90315         5.06407
     2015.29089        -1.97751         4.98145
     2015.29363         2.21612         4.96602
     2015.29637        -4.73524         4.94060
     2015.29911        -0.02661         4.96511
     2015.30184        -0.62897         5.05681
     2015.30458        -2.84134         4.92789
     2015.30732        -0.86370         4.96511
     2015.31006        -2.64407         4.92244
     2015.31279        -9.09043         4.84528
     2015.31553        -3.89880         4.85799
     2015.31827        -7.11817         4.90701
     2015.32101        -0.08053         4.93515
     2015.32375        -4.82190         4.88522
     2015.32648        -7.65626         4.96148
     2015.32922        -3.72163         4.98690
     2015.33196         1.03501         4.99870
     2015.33470        -3.55236         4.82167
     2015.33744        -4.48572         4.95603
     2015.34017        -7.97109         4.88704
     2015.34291        -7.09045         4.87523
     2015.34565        -0.52982         4.86434
     2015.34839        -4.02518         4.93697
     2015.35112        -2.00755         4.88068
     2015.35386         1.63709         4.88613
     2015.35660        -6.86928         4.88341
     2015.35934        -3.60464         4.99961
     2015.36208        -4.12901         5.02957
     2015.36481        -2.20038         4.85254
     2015.36755         3.85226         4.87705
     2015.37029        -3.13511         4.82893
     2015.37303        -2.10947         4.81895
     2015.37577        -7.22084         4.83438
     2015.37850        -6.75720         5.01051
     2015.38124        -3.01157         4.91336
     2015.38398        -6.88893         4.86888
     2015.38672        -1.62730         4.84255
     2015.38945        -4.68766         4.93061
     2015.39219        -2.21503         5.03956
     2015.39493        -5.46039         4.91427
     2015.39767        -2.63176         4.91064
     2015.40041        -5.85312         4.87342
     2015.40314        -7.07949         4.99235
     2015.40588        -8.03285         4.89521
     2015.40862        -3.15022         4.92335
     2015.41136        -1.54459         4.92880
     2015.41410        -3.12595         5.13398
     2015.41683         1.17568         4.88431
     2015.41957        -4.43868         4.85345
     2015.42231        -1.42105         4.83620
     2015.42505        -5.85641         4.96421
     2015.42778        -0.32178         4.90610
     2015.43052         1.82986         4.88068
     2015.43326        -5.76151         4.87796
     2015.43600         2.85613         4.93606
     2015.43874        -0.67824         4.91790
     2015.44147         0.76040         5.11491
     2015.44421        -3.68697         4.89975
     2015.44695        -2.75333         4.94605
     2015.44969        -2.20970         4.84891
     2015.45243        -1.83806         4.94605
     2015.45516        -0.28543         4.87160
     2015.45796         1.25026         5.08041
     2015.46064        -3.92016         5.11037
     2015.46338        -3.34453         5.09766
     2015.46611         6.97911         4.87433
     2015.46885        -1.35726         4.98690
     2015.47159         2.21538         4.91427
     2015.47433        -2.91399         5.02140
     2015.47707        -0.59435         5.03320
     2015.47980         3.91028         5.05227
     2015.48254         3.48992         5.06316
     2015.48528         5.70655         4.96330
     2015.48802        -0.48981         5.01414
     2015.49076        -0.39818         4.95240
     2015.49349        -0.18454         5.01595
     2015.49623         5.10909         5.05590
     2015.49897         2.68773         5.04682
     2015.50171        -0.80764         5.03411
     2015.50444         5.76099         4.97238
     2015.50718         7.36163         5.05045
     2015.50992         5.54326         4.90610
     2015.51266         3.38890         4.84981
     2015.51540         5.47353         4.89067
     2015.51813         3.29317         5.10583
     2015.52087         8.72380         4.89884
     2015.52361         3.81844         5.03774
     2015.52635         5.58807         4.89067
     2015.52908         6.28771         4.92244
     2015.53182         4.60534         4.93879
     2015.53456         6.16498         4.91609
     2015.53730         0.84361         4.98509
     2015.54004         6.83625         5.07860
     2015.54277         2.08288         5.01959
     2015.54551        11.02051         5.00597
     2015.54825         7.17015         5.24474
     2015.55099        10.11678         5.06407
     2015.55373        11.92842         5.06225
     2015.55646         8.70505         5.01777
     2015.55920        12.13569         4.99598
     2015.56194         8.08332         5.05045
     2015.56468        11.67196         4.99689
     2015.56741         4.46559         5.07043
     2015.57015        12.41423         5.15940
     2015.57289        12.57086         5.10402
     2015.57563         8.31850         4.93243
     2015.57837         5.28713         4.99507
     2015.58110         6.48377         5.09585
     2015.58384        10.87340         5.17211
     2015.58658        13.29904         5.13307
     2015.58932        10.44667         5.03320
     2015.59206        11.52130         4.99326
     2015.59479        10.54594         5.02231
     2015.59753         8.55057         5.10674
     2015.60027         8.89721         5.12217
     2015.60301         7.83684         5.26017
     2015.60574        14.75648         5.14396
     2015.60848         9.05911         5.10129
     2015.61122        10.84475         5.16303
     2015.61396        11.92638         5.00597
     2015.61670         4.65102         4.87251
     2015.61943         7.68565         4.86071
     2015.62217         6.31229         4.85435
     2015.62491        16.66492         4.92789
     2015.62765        14.07456         4.90156
     2015.62924        18.64309        12.04646
     2015.63440        19.98605        20.02932
     2015.63586        14.47046         4.95876
     2015.63860         7.09709         4.93243
     2015.64134        15.37073         4.89612
     2015.64407         5.18136         4.92608
     2015.64681         6.75600         5.09675
     2015.64955         3.47963         4.92426
     2015.65229         6.24527         4.87523
     2015.65503        14.93390         4.99235
     2015.65776         6.69754         5.20570
     2015.66050        13.30017         5.00052
     2015.66324         9.67081         4.90973
     2015.66598        10.67444         4.94786
     2015.66872        13.78508         5.08677
     2015.67145         7.28771         4.92698
     2015.67419         7.82735         4.88250
     2015.67693         7.19098         4.85799
     2015.67967         7.57362         4.87251
     2015.68240         4.03425         4.83892
     2015.68514         2.38288         4.91246
     2015.68788         8.85952         4.89339
     2015.69062        16.09715         4.95967
     2015.69336         8.37679         5.01232
     2015.69609         9.67842         4.83983
     2015.69883        13.86006         4.90429
     2015.70157         9.80069         4.96874
     2015.70431        12.40133         4.88704
     2015.70705         8.08696         4.86797
     2015.70978         9.00660         4.96784
     2015.71252         6.74523         4.86162
     2015.71526        12.71087         4.89248
     2015.71800         8.72150         4.87614
     2015.72073         5.42614         4.96239
     2015.72307         8.71139         5.83031
     2015.72992        10.75097         9.12677
     2015.73169         6.42667         4.93425
     2015.73363        13.55354         7.60155
     2015.73716        10.67994         4.86071
     2015.73990        15.04858         4.96784
     2015.74264        10.85021         4.99507
     2015.74538        13.16085         5.09948
     2015.74811         5.52648         5.10856
     2015.75085        -0.18188         4.86797
     2015.75433       -17.96553        48.77232
     2015.75633        14.60339         4.83438
     2015.75906        14.43902         4.88341
     2015.76180        10.23766         4.93515
     2015.76454        10.44829         4.93152
     2015.76728         7.13293         4.92698
     2015.77002         6.10256         5.08132
     2015.77275        13.22419         4.96693
     2015.77549        13.16583         5.04591
     2015.77823        15.14946         4.90429
     2015.78097         6.54910         4.86434
     2015.78371        13.69373         4.89339
     2015.78644        17.01537         4.91155
     2015.78918         9.17900         4.90883
     2015.79192        18.26564         5.00415
     2015.79466        12.17727         4.95785
     2015.79739         4.60091         5.13761
     2015.80013         7.20054         5.11945
     2015.80287         8.83218         4.87887
     2015.80561         6.10281         4.92335
     2015.80835         6.21445         4.89158
     2015.81108         5.69408         5.07496
     2015.81382        15.68472         5.29467
     2015.81656         6.48035         4.91700
     2015.81930         6.89698         4.96874
     2015.82203         9.55462         5.01868
     2015.82477         8.79725         4.92971
     2015.82751        10.48389         5.00234
     2015.83025         8.92252         5.06135
     2015.83299         0.49516         5.27379
     2015.83572         8.11379         4.99416
     2015.83846         5.52443         4.98055
     2015.84120         3.74306         4.99780
     2015.84394         2.90370         4.97601
     2015.84668         4.43933         4.97601
     2015.84941        -0.40203         5.05408
     2015.85215         0.77860         5.13216
     2015.85489        13.83124         5.02957
     2015.85763         4.73887         4.91972
     2015.86036         4.95051         5.01141
     2015.86316         7.71119         5.02140
     2015.86584         8.95677         4.96421
     2015.86858         4.75741         5.03774
     2015.87132         4.45204         5.23112
     2015.87405         2.20768         5.03774
     2015.87679         7.05931         5.11763
     2015.87953         7.97895         6.36867
     2015.88227         3.93258         5.09040
     2015.88501         4.48722         4.99326
     2015.88774         4.58385         4.99689
     2015.89048         8.00749         5.00415
     2015.89322         9.11412         4.93697
     2015.89596         4.92176         5.04864
     2015.89869         5.87839         4.99235
     2015.90143         0.58603         4.90701
     2015.90417         0.52166         4.99689
     2015.90691         2.93429         4.99144
     2015.90965         1.67193         4.94877
     2015.91238         4.71856         5.02140
     2015.91512         2.48720         4.94060
     2015.91786         6.52483         5.03320
     2015.92060        11.21947         5.09857
     2015.92334         2.85210         5.14215
     2015.92607        -0.37626         5.04682
     2015.92881         6.42837         5.06225
     2015.93155         2.41701         5.26562
     2015.93429        10.70064         5.34732
     2015.93702         8.54028         5.26289
     2015.93976         3.40491         5.39181
     2015.94250         1.84255         5.26108
     2015.94524         3.77518         5.11219
     2015.94798        -1.06818         5.09131
     2015.95071         5.86345         4.99053
     2015.95345        -1.27592         4.94696
     2015.95619         0.79772         5.04137
     2015.95893        -1.88465         5.23293
     2015.96988         5.72489         5.09766
     2015.97262        11.31153         4.98599
     2015.97535         8.25816         5.06044
     2015.97809       -13.59720         5.01505
     2015.98083        -1.24257         4.97601
     2015.98357        -9.56793         4.99689
     2015.98631        -2.59630         5.19117
     2015.98904        -1.24066         5.00597
     2015.99178        -3.46703         4.95422
     2015.99452        -2.62039         5.14396
     2015.99726        -1.69176         4.94877
     2016.00000        -1.77613         4.96693
     2016.00273        -3.65549         4.97328
     2016.00547        -0.93786         4.96148
     2016.00821        -0.89922         5.03411
     2016.01095         8.42141         5.01505
     2016.01368        -1.12995         5.01959
     2016.01642        -3.81532         5.05045
     2016.01916        -8.64068         5.21114
     2016.02190        -3.92605         5.08132
     2016.02464        -1.53141         5.04591
     2016.02737        -0.20978         5.08858
     2016.03011        -4.36214         5.02685
     2016.03285        -6.60451         5.04591
     2016.03559        -3.62287         5.03502
     2016.03833         3.40176         5.05772
     2016.04106        -1.80260         5.17937
     2016.04380         0.09003         4.95876
     2016.04654         1.89866         4.97873
     2016.04928        -2.40970         5.01777
     2016.05201        -1.70307         4.98599
     2016.05475        -1.53643         4.94605
     2016.05749        -3.56380         5.00960
     2016.06023         1.80884         5.02412
     2016.06297        -0.84453         4.90701
     2016.06570        -0.17189         5.02685
     2016.06844        -2.79326         5.00960
     2016.07118        -3.25162         5.07315
     2016.07392        -0.59399         5.12944
     2016.07666         2.85665         5.20842
     2016.07939        -2.72072         5.12581
     2016.08213        -0.84408         5.09040
     2016.08487        -1.24345         5.00688
     2016.08761        -8.19682         4.99689
     2016.09034        -8.60918         5.07224
     2016.09308        -2.46455         5.02685
     2016.09542       -14.05230         5.92382
     2016.10483        -7.77324         7.74409
     2016.10677        -9.55337         5.00143
     2016.10951        -6.11074         5.00869
     2016.11225        -6.99710         5.00688
     2016.11498        -3.96747         5.01414
     2016.11772       -11.11583         5.01323
     2016.12046        -8.14520         4.97328
     2016.12320       -12.81956         4.96148
     2016.12594       -11.86093         4.99598
     2016.12867        -0.59729         5.04682
     2016.13141        -3.44266         4.98509
     2016.13415        -1.66503         5.05953
     2016.13689        -6.01939         4.93879
     2016.13963        -7.36276         5.05953
     2016.14236       -16.59912         5.02140
     2016.14510        -8.00249         4.93243
     2016.14784        -8.51785         5.21205
     2016.15058        -5.65022         4.91336
     2016.15331       -13.82558         5.12217
     2016.15605        -7.86595         5.00415
     2016.15879       -15.65631         5.23747
     2016.16153        -7.33168         5.01141
     2016.16427        -0.80704         5.13398
     2016.16700        -7.88441         4.97510
     2016.16974        -9.26377         5.11128
     2016.17248        -5.21114         5.04591
     2016.17522        -6.24350         5.08132
     2016.17796         1.44813         4.97419
     2016.18069        -1.84324         5.03865
     2016.18343        -4.46460         5.22567
     2016.18617        -3.81597         4.98236
     2016.18891        -3.33933         4.95331
     2016.19164        -0.19370         4.82803
     2016.19438         5.43894         4.94151
     2016.19712        -2.27643         4.87251
     2016.19986        -4.65479         5.07315
     2016.20260        -6.88816         5.09221
     2016.20533        -8.95052         5.11763
     2016.20807        -4.34489         5.03774
     2016.21081        -7.16025         4.95422
     2016.21355        -6.90062         5.01232
     2016.21629       -10.44498         5.06407
     2016.21902        -7.27435         4.86434
     2016.22176        -5.00271         4.86252
     2016.22450        -7.78208         4.88885
     2016.22724        -8.33045         4.88976
     2016.22997        -6.93281         4.84528
     2016.23271        -3.29418         4.86888
     2016.23545        -3.67154         4.90156
     2016.23819        -4.24891         4.84981
     2016.24093        -1.35427         5.00052
     2016.24366        -0.67664         4.81804
     2016.24640        -4.26100         4.86162
     2016.24914        -4.81337         4.86979
     2016.25188        -2.02773         4.87705
     2016.25462        -1.93510         4.86616
     2016.25735        -8.74146         5.07406
     2016.26009       -10.03083         4.85435
     2016.26283       -11.64319         4.88794
     2016.26557        -0.46056         4.88976
     2016.26830        -2.26293         4.86706
     2016.27104        -4.34129         4.89521
     2016.27378         0.75834         4.81078
     2016.27652        -7.39602         4.88885
     2016.27926        -9.42839         4.96602
     2016.28142        -6.01430         6.42224
     2016.28815        -7.48882         7.02415
     2016.29021       -10.61685         4.86888
     2016.29295        -3.03421         4.89884
     2016.29568        -2.36558         4.92244
     2016.29842         3.08306         4.97601
     2016.30116        -0.74931         5.09585
     2016.30390        -2.40967         4.93788
     2016.30663        -3.25704         4.98781
     2016.30937        -5.46940         4.96148
     2016.31211        -1.60077         4.99689
     2016.31485        -1.83614         4.86071
     2016.31759        -4.42650         4.87251
     2016.32032        -1.83787         4.89884
     2016.32306       -10.80623         4.86252
     2016.32580        -6.34860         4.88613
     2016.32854        -4.83696         4.86162
     2016.33128        -4.31033         4.89339
     2016.33401        -2.58869         4.94786
     2016.33675        -4.00906         5.00324
     2016.33949        -0.88142         5.34279
     2016.34223        -0.17479         4.94877
     2016.34496        -2.63815         5.04682
     2016.34770        -2.25052         4.99689
     2016.35044        -2.77888         5.10674
     2016.35318        -4.38825         4.90883
     2016.35592        -7.06261         4.85617
     2016.35865        -7.98498         4.84618
     2016.36139        -7.50035         4.83347
     2016.36413         3.83929         5.04319
     2016.36687        10.25492         4.98599
     2016.36961         6.96356         4.87614
     2016.37234         8.55719         4.82167
     2016.37508        -1.39917         4.85889
     2016.37782        -6.37554         4.86071
     2016.38056        -6.66390         5.00960
     2016.38329         0.58173         4.87342
     2016.38603        -0.81563         4.84346
     2016.38877        10.83100         4.86162
     2016.39151        -1.78436         4.84074
     2016.39402        -1.84595         5.71864
     2016.40189        -4.12437         6.42405
     2016.41341        -2.54629         4.85980
     2016.41615        -3.25165         5.03139
     2016.41889        -1.41902         4.87070
     2016.42162        -0.49938         4.88250
     2016.42436        -5.53875         4.85980
     2016.42710         0.54289         4.88341
     2016.42984        -0.90648         4.93969
     2016.43258        -1.56784         4.91427
     2016.43531        -0.01821         5.16030
     2016.43805        -1.16357         4.81259
     2016.44079        -3.02494         4.99416
     2016.44353        -6.02930         4.84528
     2016.44626        -6.34567         4.85526
     2016.44900         5.39297         4.89975
     2016.45174         7.63660         4.98872
     2016.45448         3.69823         4.86616
     2016.45722         0.92587         4.91700
     2016.45995         3.12150         4.88159
     2016.46269         3.40614         4.98327
     2016.46543        -1.01423         4.82439
     2016.46822        -0.85354         4.97328
     2016.47096         3.97010         4.98055
     2016.47370        -1.54127         7.25475
     2016.47644        10.76737         4.98418
     2016.47918         5.79900         4.99416
     2016.48191         2.98364         4.91972
     2016.48465         2.38327         5.03683
     2016.48739         4.04591         5.94016
     2016.49013         4.14054         4.92698
     2016.49287         4.11418         4.89430
     2016.49560         4.62781         4.92880
     2016.49828         0.56839         4.93334
     2016.50102         0.05302         4.92426
     2016.50376         3.92366         5.09675
     2016.50650         8.37329         5.01051
     2016.50924         5.05593         4.93425
     2016.51197         0.94256         4.91064
     2016.51477        -1.91075         5.01414
     2016.51751         0.49489         5.15123
     2016.52024        -5.80648         5.91565
     2016.52298        -0.84184         5.04410
     2016.52572         2.79279         4.98055
     2016.52846         3.40043         4.96239
     2016.53120        -1.57794         4.89521
     2016.53393         3.33670         4.91427
     2016.53667         5.65633         4.89339
     2016.53941         2.02596         4.91518
     2016.54215         5.83960         4.90519
     2016.54488         5.40123         4.91064
     2016.54762        -2.19913         4.94423
     2016.55036         0.33850         5.03593
     2016.55310         0.73114         4.99326
     2016.55584         7.12277         5.03865
     2016.55852        -1.16865         5.22476
     2016.56131         3.59204         4.95967
     2016.56405         3.53768         4.93788
     2016.56679         6.30331         5.17574
     2016.56953        -0.08105         5.12581
     2016.57226         2.66158         5.02957
     2016.57500         1.02022         5.03865
     2016.57774         7.96485         4.93606
     2016.58048         2.64449         4.89612
     2016.58321         5.27812         4.89521
     2016.58595         3.56175         4.94060
     2016.58869        -1.42261         5.00869
     2016.59137         1.57297         4.83075
     2016.59360         7.28911         5.99917
     2016.60318         1.54234         8.29879
     2016.60506         3.42514         4.89884
     2016.60780         1.92278         4.85889
     2016.61054         2.79041         4.81350
     2016.61327         7.91005         4.81804
     2016.61601         0.92068         4.77083
     2016.61875         3.94332         4.85889
     2016.62149         3.22795         4.87977
     2016.62423         4.80159         4.95059
     2016.62696        10.92222         4.81350
     2016.62970         1.72086         5.11310
     2016.63244         1.88349         4.91427
     2016.63518         9.30112         4.77991
     2016.63791        10.49976         4.77537
     2016.64060         7.97034         4.96148
     2016.64339         4.37003         5.13670
     2016.64613        11.27366         4.79080
     2016.64887         2.12030         4.79443
     2016.65160         6.99393         4.92063
     2016.65434         2.34357         4.81168
     2016.65708         0.44420         4.82621
     2016.65982         0.70484         4.91881
     2016.66256        -0.32753         4.88613
     2016.66529         2.60011         4.84346
     2016.66803         4.29974         4.81895
     2016.67077         9.95138         5.01323
     2016.67351         9.56001         4.80351
     2016.67624         9.28464         4.80170
     2016.67898         7.53928         5.02049
     2016.68172        13.53191         4.79534
     2016.68446         6.47755         5.00960
     2016.68720         1.92718         5.13216
     2016.68993         5.88882         4.87251
     2016.69267         4.59445         4.76266
     2016.69541         6.55009         4.91246
     2016.69815         5.90872         4.75267
     2016.70089         7.78536         4.78899
     2016.70362         5.97599         4.89793
     2016.70636         4.18463         5.04773
     2016.70910         5.76626         5.02685
     2016.71184        11.09190         4.77719
     2016.71457        12.61953         5.04501
     2016.71731        10.05817         4.82803
     2016.72005         5.92580         4.79262
     2016.72279         5.42643         4.91155
     2016.72553         4.89807         4.93334
     2016.72826         1.11470         4.99870
     2016.73100         7.36834         4.94514
     2016.73374         4.43797         4.87251
     2016.73648         4.92161         4.79988
     2016.73921         6.02224         4.83438
     2016.74195         8.13988         4.90792
     2016.74469        -0.08749         4.83620
     2016.74743         1.18415         4.93152
     2016.74994         0.65156         5.40270
     2016.75655         6.67692         8.30152
     2016.75838         9.94569         4.92608
     2016.76112        13.85332         5.01051
     2016.76386         2.18096         4.86706
     2016.76659         5.05359         4.95240
     2016.76933         8.03022         4.83347
     2016.77207         7.92286         4.88431
     2016.77481        11.98749         4.87433
     2016.77754         6.54913         4.81804
     2016.78028        -0.87024         4.82984
     2016.78302         5.13140         4.91700
     2016.78576         5.59803         5.05953
     2016.78850         9.95967         4.88250
     2016.79123         3.49430         4.90792
     2016.79397         6.66694         4.92335
     2016.79671         2.33757         4.82167
     2016.79945        -1.20579         4.83529
     2016.80219         3.07784         4.92608
     2016.80492         6.95448         5.03048
     2016.80766         3.90811         4.83801
     2016.81040        -0.48425         5.01868
     2016.81314        -3.24862         4.95059
     2016.81587        -4.38899         4.90065
     2016.81861        -4.62135         4.89339
     2016.82135        -2.04272         4.84618
     2016.82409        -2.68808         4.98145
     2016.82683        -2.95645         4.92608
     2016.82956         0.73219         4.80624
     2016.83230        -0.06818         4.86797
     2016.83504         0.68346         4.77900
     2016.83778        -0.19891         4.87251
     2016.84052        -4.34227         4.93879
     2016.84325        -3.19064         4.90701
     2016.84599        -2.34000         4.85526
     2016.84873         5.93763         4.94060
     2016.85147         2.64327         4.82893
     2016.85420         2.68690         4.85435
     2016.85694         8.78753         4.91518
     2016.85968        -3.47783         4.96330
     2016.86242        -0.41820         4.82167
     2016.86516        10.36544         4.99598
     2016.86789         3.19807         4.94332
     2016.87063         2.88771         4.95603
     2016.87337         2.45534         5.03411
     2016.87611         3.95098         4.84074
     2016.87885         1.49861         4.78899
     2016.88158        -5.23775         4.84709
     2016.88432        -1.33512         4.95059
     2016.88706         3.44452         4.87887
     2016.88980         1.99915         4.87705
     2016.89253         0.18179         4.85980
     2016.89527        -1.75658         5.16848
     2016.89801         0.30706         4.83710
     2016.90075        -1.64031         4.84800
     2016.90349        -0.64968         4.97328
     2016.90622         3.48196         4.91972
     2016.90896         0.35459         4.90973
     2016.91170        -2.59177         4.84618
     2016.91444        -1.74714         4.94423
     2016.91718        -2.59050         5.07950
     2016.91991        -8.79087         5.06135
     2016.92265        -1.97623         4.94696
     2016.92539        -2.33260         4.82621
     2016.92813        -5.01196         4.81168
     2016.93086        -3.06833         4.87251
     2016.93360        -3.45469         5.06952
     2016.93634         3.14794         4.83166
     2016.93908        -4.67942         4.99416
     2016.94182        -2.58279         4.92244
     2016.94455        -1.81315         4.89702
     2016.94729         1.62048         4.93969
     2016.95003        -2.20589         4.95422
     2016.95277        -1.83825         4.98872
     2016.95551        -5.80362         4.91246
     2016.95824         0.51002         4.85708
     2016.96098        -2.42135         4.80624
     2016.96372        -5.80871         4.83892
     2016.96646        -5.31608         4.87887
     2016.96919         2.15656         5.38636
     2016.97193        -4.55181         4.84891
     2016.97467        -1.58917         4.92154
     2016.97741         5.77146         4.93425
     2016.98015         0.74010         4.87433
     2016.98288        -1.94527         4.82621
     2016.98562        -2.47863         4.85799
     2016.98836         3.40500         4.91972
     2016.99110         1.15664         4.89067
     2016.99384         1.48627         4.88159
     2016.99657         1.54390         4.95422
     2016.99931         1.09654         4.84074
     2017.00091        11.05208        14.25076
     2017.00479        -9.48019         4.81622
     2017.00695        -3.21411         6.62197
     2017.01026        -4.61492         4.99870
     2017.01300        -1.63829         4.87887
     2017.01574        -1.92765         4.87887
     2017.01848       -15.68202         4.83710
     2017.02121        -6.06138         4.92517
     2017.02395        -3.89975         4.92608
     2017.02669        -0.41611         5.05045
     2017.02943         1.01352         4.93425
     2017.03216        -3.38484         4.83438
     2017.03490        -5.87621         4.80624
     2017.03764        -4.46158         4.87977
     2017.04038        -2.64394         4.87251
     2017.04312         0.01269         4.82530
     2017.04585         2.91633         5.09221
     2017.04859         2.70796         5.23747
     2017.05133         8.91460         4.91518
     2017.05281        -2.25097        25.41205
     2017.06616         0.25987        11.74505
     2017.06776        -9.64259         4.91427
     2017.07049        -3.33196         4.83620
     2017.07323        -9.21132         4.85163
     2017.07597       -11.56269         4.80624
     2017.07871       -10.54905         4.89430
     2017.08145       -10.74742         4.86071
     2017.08418        -3.62579         4.86888
     2017.08692        -3.99415         4.84528
     2017.08966        -1.86352         4.86706
     2017.09240        -9.09488         4.97419
     2017.09514        -3.87225         4.89430
     2017.09787         0.61339         4.88885
     2017.10061         2.41902         4.85254
     2017.10335        -6.58534         5.02231
     2017.10609        -7.01471         6.71457
     2017.10882        -5.73707         5.01232
     2017.11156        -3.76044         4.91246
     2017.11430       -10.61580         4.82167
     2017.11704       -15.75117         4.89339
     2017.11978       -10.00053         4.84800
     2017.12251       -12.96790         4.90156
     2017.12531        -4.52821         4.98236
     2017.12805        -5.13458         5.03865
     2017.13078         1.27506         4.96421
     2017.13347         0.66464         4.87977
     2017.13620        -0.44973         4.89521
     2017.13894        -0.84809         4.96057
     2017.14168        -6.09746         4.88522
     2017.14442        -8.84582         4.88704
     2017.14715       -11.24219         4.86252
     2017.14989        -8.18155         4.86979
     2017.15263        -2.40992         4.81532
     2017.15537        -7.35528         4.85617
     2017.15811        -1.18165         5.00688
     2017.16084         0.09599         5.01505
     2017.16358        -6.77538         8.51305
     2017.16632        -6.73774         4.94605
     2017.16911        -8.25205         4.97782
     2017.17191        -6.08037         5.07678
     2017.17459        -5.67879         5.00778
     2017.17733       -11.25915         5.14578
     2017.18001        -7.28857         4.91518
     2017.18275        -8.06894         4.87705
     2017.18548        -6.20530         4.85708
     2017.18822        -7.95267         5.06498
     2017.19096       -11.74703         4.91518
     2017.19370        -7.25840         4.85254
     2017.19644        -6.79976         4.84074
     2017.19917        -5.45913         4.96330
     2017.20191        -7.00049         4.97056
     2017.20465        -9.62386         5.02140
     2017.20739        -9.36222         4.91609
     2017.21013        -4.99659         4.90701
     2017.21286        -6.49195         4.85617
     2017.21560        -6.83432         4.93969
     2017.21834        -1.11268         4.95967
     2017.21994        -0.97615        14.23714
     2017.24258        -9.54236         5.82668
     2017.24667        -9.26542         9.23934
     2017.24846        -9.11270         4.89430
     2017.25119       -10.91907         4.85617
     2017.25393        -8.42143         4.98781
     2017.25667        -4.98180         4.97692
     2017.25941       -10.44516         4.98327
     2017.26186        -5.83480         5.49803
     2017.26579        -7.32402         8.94882
     2017.26762        -4.86326         4.98599
     2017.27036        -5.20963         4.82893
     2017.27310        -6.57499         4.89521
     2017.27566        -8.36052         5.24020
     2017.28091        -4.78647         5.99826
     2017.28359       -18.58489         6.02096
     2017.29226        -9.51655         5.24474
     2017.29500       -10.00691         4.97873
     2017.29871        -7.15435         9.62518
     2017.30047       -11.40964         4.87977
     2017.30321        -6.55701         4.82803
     2017.30595       -10.17537         4.91609
     2017.30869       -13.01074         4.89702
     2017.31143        -7.06511         4.89430
     2017.31416       -10.11647         4.89521
     2017.31690        -5.99184         4.89248
     2017.31964        -9.30120         4.96421
     2017.32238       -13.06857         4.91336
     2017.32483       -16.69021         5.44628
     2017.33059       -14.23866         4.84437
     2017.33333        -9.22403         4.81622
     2017.33607        -9.00639         4.79988
     2017.33880        -7.96076         5.01414
     2017.34154       -11.46512         5.10674
     2017.34428       -12.11649         4.81168
     2017.34702        -8.63185         4.80351
     2017.34976        -8.77922         4.87251
     2017.35249       -10.99958         4.82076
     2017.35523       -12.07295         4.84528
     2017.35797        -9.74632         4.99416
     2017.36071       -11.44468         4.85254
     2017.36344        -6.11405         4.86434
     2017.36618        -9.16541         4.81622
     2017.36892        -3.21478         4.85254
     2017.37166        -6.41314         4.91609
     2017.37440        -9.09251         6.95515
     2017.37713        -5.40187         4.88794
     2017.37987       -13.82224         4.91881
     2017.38261       -11.36060         4.86343
     2017.38535       -10.81997         4.96511
     2017.38809        -7.10633         4.83983
     2017.39082        -4.90970         4.81713
     2017.39356        -2.50306         4.94605
     2017.39630        -3.96143         4.80624
     2017.39904        -5.91879         4.83438
     2017.40155        -6.06138         5.26199
     2017.40999        -4.81726         5.06135
     2017.41273        -7.03562         4.89612
     2017.41546        -6.11099         4.82530
     2017.41820        -5.15335         4.94514
     2017.42094        -2.57872         4.86979
     2017.42368        -3.30908         4.81713
     2017.42642        -4.76245         4.87160
     2017.42915        -4.99881         4.89612
     2017.43189        -9.66518         5.10946
     2017.43463        -6.19254         4.90247
     2017.43737         2.48509         4.82258
     2017.44010         0.18773         4.93879
     2017.44284        -0.91564         4.88885
     2017.44558        -0.02801         4.90247
     2017.44917        -7.36255         8.49126
     2017.45191         0.11109         8.58023
     2017.45379         0.59890         4.96239
     2017.45653         5.80053         5.13852
     2017.45927        -1.76083         4.94968
     2017.46201         3.27580         4.83166
     2017.46475         3.30744         4.88704
     2017.46748        -2.01393         5.13852
     2017.47022        -0.87129         5.07769
     2017.47296         4.71234         4.99780
     2017.47570        -1.10002         4.84255
     2017.47826        -3.27355         5.15486
     2017.48494        -1.15613        10.60114
     2017.48666         0.20953         4.86071
     2017.48939         0.02415         4.90792
     2017.49212        -3.82022         4.92608
     2017.49486        -4.31158         4.90519
     2017.49731         4.03078         5.34460
     2017.50308         3.85932         4.88431
     2017.50581         1.40096         4.90156
     2017.50855         0.15359         4.90973
     2017.51129        -7.65577         4.95331
     2017.51403        -3.52014         4.91427
     2017.51676        -2.98150         4.82258
     2017.51950        -1.83987         4.87342
     2017.52224         0.51377         4.93788
     2017.52498        -1.71960         4.82712
     2017.52772        -0.47496         5.04591
     2017.53045        -3.33233         4.88613
     2017.53319        -0.03469         4.97601
     2017.53593         1.17094         4.91881
     2017.53867        -1.81843         4.84255
     2017.54141         3.51721         4.85254
     2017.54414         2.57684         4.91155
     2017.54688        -4.66252         6.83168
     2017.54962        -2.25189         4.83801
     2017.55236        -2.35525         4.92426
     2017.55509         1.84038         4.86071
     2017.55783        -1.38098         4.87887
     2017.56057         3.10265         5.01323
     2017.56331         0.85929         5.10220
     2017.56605        -8.21908         4.97510
     2017.56878         0.17456         4.89430
     2017.57152        -0.34281         4.95694
     2017.57426         1.47983         4.95513
     2017.57700        -1.03754         4.95059
     2017.57974         0.51110         5.02412
     2017.58247        -0.37827         4.89339
     2017.58521        -4.25564         4.82076
     2017.58795         2.38400         4.98690
     2017.59069         2.49463         5.00597
     2017.59342         1.56627         4.89521
     2017.59616         7.07990         5.09312
     2017.59890         3.25554         4.97419
     2017.60164        -0.84983         4.85345
     2017.60438         0.38181         4.91518
     2017.60711         1.74344         5.06498
     2017.60985         2.12608         5.00597
     2017.61259        -2.14429         4.89612
     2017.61533        -9.42165         4.94968
     2017.61807         8.44698         4.94968
     2017.62080         2.81862         4.88068
     2017.62354        -0.77275         4.88250
     2017.62628         2.80188         5.01051
     2017.62902        -0.95948         5.16394
     2017.63175         3.57615         4.85345
     2017.63449         3.94979         4.86162
     2017.63723        -0.23158         4.84164
     2017.63997         1.95306         4.94605
     2017.64271         3.26769         4.89975
     2017.64544         2.40333         4.91155
     2017.64818         2.17596         4.93515
     2017.65092        -0.50640         4.84709
     2017.65366         2.26523         4.84709
     2017.65639         5.11587         4.97056
     2017.65913         9.42550         4.93788
     2017.66187         5.30914         4.87342
     2017.66461         6.15977         4.93606
     2017.66735         9.82441         5.01323
     2017.66980         6.11977         5.55250
     2017.67830         7.01194         4.84981
     2017.68104         4.27158         4.92971
     2017.68377        11.95421         5.39907
     2017.68651         6.25985         5.03865
     2017.68925        10.95248         4.85435
     2017.69199        -3.38988         4.95059
     2017.69472         9.59575         4.88704
     2017.69746        11.15239         4.93515
     2017.70020         6.96402         4.99053
     2017.70294        13.91566         5.19934
     2017.70568         2.30129         5.04228
     2017.70841         6.90593         4.88431
     2017.71115         5.58356         5.08677
     2017.71389         5.81920         4.97419
     2017.71663        18.18383         5.04047
     2017.71937        13.06846         5.00778
     2017.72210         3.70710         4.89521
     2017.72484        -0.41827         4.91790
     2017.72758         5.23937         4.86252
     2017.73032         3.54600         4.81713
     2017.73305         5.79964         4.83438
     2017.73579         0.84027         4.87070
     2017.73853         3.26591         4.87614
     2017.74127         5.25354         4.83166
     2017.74401        15.63918         5.17483
     2017.74646        -0.19146         5.48895
     2017.75320         8.52103         8.95427
     2017.75496         4.80972         5.31736
     2017.75770        -1.76265         4.98327
     2017.76043        -0.02801         4.93334
     2017.76317         3.24062         4.93425
     2017.76591         8.17125         4.92063
     2017.76865         3.40489         4.89339
     2017.77138        -2.64848         4.96148
     2017.77412        -2.39084         4.95422
     2017.77686         5.80979         4.96874
     2017.77960         2.40843         4.98690
     2017.78234         2.24406         4.85163
     2017.78507        -1.26530         4.85799
     2017.78781        -0.46067         4.80351
     2017.79055         0.21397         4.87342
     2017.79329        -0.40940         4.90429
     2017.79603         0.11724         4.89430
     2017.79796         1.43810         8.07818
     2017.80210         6.60508         6.83441
     2017.80424         5.85914         5.00506
     2017.80698        -1.60523         4.91790
     2017.80971        -2.25659         4.96965
     2017.81245        -4.85096         5.03593
     2017.81519        -0.88732         4.89067
     2017.81793         2.17731         4.95240
     2017.82067         1.09595         5.01323
     2017.82340         1.87958         4.88613
     2017.82614        -0.06478         4.78899
     2017.82888        -0.63815         4.81895
     2017.83162         3.00849         4.89884
     2017.83436         1.47812         4.89702
     2017.83709        -0.28724         4.99780
     2017.83983        -0.38261         4.93606
     2017.84257        -0.57997         4.88613
     2017.84531        -1.52834         4.87796
     2017.84804        -7.59970         4.88794
     2017.85078        -2.33407         4.90792
     2017.85352        -1.27144         5.00506
     2017.85626        -0.44780         5.09857
     2017.85900         0.97783         5.08677
     2017.86173         5.60347         4.98145
     2017.86447        -4.07890         4.82893
     2017.86721         3.67974         5.01323
     2017.86995        -7.16663         4.89612
     2017.87269         3.83301         4.84891
     2017.87542         3.87164         4.94605
     2017.87816         3.39028         4.92063
     2017.88090         3.52391         4.85435
     2017.88364        -3.96445         4.83529
     2017.88637         3.62818         4.94151
     2017.88911         4.79782         4.87160
     2017.89185         0.94345         5.13670
     2017.89459        11.28809         5.20297
     2017.89733         5.20072         5.01959
     2017.90006        -1.71065         4.88885
     2017.90280        -4.57701         5.11582
     2017.90554         3.17562         4.95059
     2017.90828         0.70126         4.87796
     2017.91102         2.10889         5.03048
     2017.91375         2.27053         4.97328
     2017.91649         3.07216         4.87251
     2017.91900        -3.94742         5.36911
     2017.92470        -1.70393         4.92517
     2017.92744        -2.65230         4.94332
     2017.93018        -2.26166         4.82258
     2017.93292        -1.82503         4.83801
     2017.93566        -0.66939         4.89521
     2017.93839         0.42624         4.91881
     2017.94113        -1.33012         4.85163
     2017.94387         2.57651         4.93515
     2017.94661         3.65914         5.01323
     2017.94935         3.49578         5.59971
     2017.95208         3.31141         5.70865
     2017.95482        -1.42195         5.91020
     2017.95647        11.30364        11.61159
     2017.96389         1.73578         7.71685
     2017.96577        10.73859         6.46945
     2017.96851         4.10022         6.25610
     2017.97125         0.96986         5.85028
     2017.97399         0.32049         5.09585
     2017.97672        -2.31087         4.91246
     2017.97946        -0.36624         4.95240
     2017.98220        -1.04260         4.93879
     2017.98494        -4.33197         5.04319
     2017.98767        -4.52534         5.01232
     2017.99041        -6.40570         5.26380
     2017.99315         0.45493         6.50576
     2017.99480        -6.75947        12.40779
     2018.00497        -4.94369         7.80219
     2018.00684        -6.33389         6.45220
     2018.00958        -2.63626         6.38411
     2018.01232       -11.22962         6.66191
     2018.01505         0.05001         4.98872
     2018.01779        -2.21735         4.87251
     2018.02053        -1.63372         5.04954
     2018.02327        -0.97008         4.92608
     2018.02600        -3.79145         4.95967
     2018.02874         0.33019         5.12490
     2018.03148        -9.12618         4.96511
     2018.03422        -9.40655         5.04773
     2018.03696        -8.02991         4.91700
     2018.03969        -7.33728         5.01595
     2018.04243       -11.28864         5.14215
     2018.04517       -11.49401         5.07315
     2018.04791        -5.77337         5.17937
     2018.05065         2.06526         6.37684
     2018.05230        -3.13815        11.38644
     2018.05976        -2.22297         7.98830
     2018.06160        -1.84820         6.34325
     2018.06433        -0.17556         6.44947
     2018.06707         2.41407         6.41951
     2018.06981        -5.30329         6.35687
     2018.07238       -11.38282         5.60153
     2018.07833        -6.91510         5.78673
     2018.08076       -10.17776         5.45173
     2018.08350        -7.10612         4.98327
     2018.08624        -5.83049         5.17937
     2018.08898        -7.38485         5.12127
     2018.09171        -7.36422         5.01414
     2018.09445        -5.47958         4.93606
     2018.09719        -4.45195         5.19299
     2018.09993        -8.75531         4.93788
     2018.10266        -9.28668         5.01686
     2018.10540        -6.20104         5.07133
     2018.10814        -6.58141         5.11491
     2018.11088        -4.24077         4.84981
     2018.11362        -2.61114         4.87523
     2018.11635        -2.47550         4.85072
     2018.11909        -5.68087         4.97964
     2018.12183        -3.12123         5.07315
     2018.12457        -2.17560         4.86343
     2018.12731        -4.90197         5.06679
     2018.13004         4.76367         4.87887
     2018.13278         9.58930         4.90338
     2018.13552         4.67394         4.89521
     2018.13826        -1.61643         4.88341
     2018.14099        -6.28979         4.85980
     2018.14373        -3.29416         4.90519
     2018.14647        -4.78252         5.17665
     2018.14921        -5.13489         5.00415
     2018.15195        -1.35425         4.97238
     2018.15468        -1.68662         4.87887
     2018.15742        -2.75998         4.84255
     2018.16016        -2.41635         4.87070
     2018.16290        -8.21971         4.99598
     2018.16564        -2.50908         4.95785
     2018.16837        -5.81044         4.88522
     2018.17111        -2.89181         4.84437
     2018.17385        -7.17218         4.87523
     2018.17659        -4.93854         4.86888
     2018.17932        -6.69891         4.90429
     2018.18206         5.26673         5.03774
     2018.18480        -1.35164         4.95059
     2018.18754        -6.32000         4.87070
     2018.19028        -3.38737         4.87523
     2018.19301        -5.63673         4.87523
     2018.19575         3.74290         4.98145
     2018.19849        -0.16746         4.86434
     2018.20123         6.33317         4.93697
     2018.20397         5.15681         4.90429
     2018.20670         2.36044         4.87342
     2018.20944         0.64708         4.84255
     2018.21218        -5.78029         4.86071
     2018.21492       -14.22566         4.89339
     2018.21765         2.70798         4.93152
     2018.22039        -0.71239         4.91881
     2018.22313        -2.69075         4.84981
     2018.22587        -8.52912         4.80624
     2018.22861       -12.73748         4.80896
     2018.23134        -9.43085         4.82621
     2018.23408        -8.95521         4.83983
     2018.23682        -9.16258         4.82712
     2018.23944        -7.31505         4.96421
     2018.24230       -10.41431         4.84255
     2018.24503        -4.35967         4.85345
     2018.24777        -3.65904         4.82984
     2018.25051         3.03760         4.83620
     2018.25325        -5.24777         4.77991
     2018.25598        -1.31113         4.85799
     2018.25872        -3.20050         4.97510
     2018.26146         3.29913         4.99870
     2018.26420        -0.94823         5.02866
     2018.26694        -1.51860         4.86888
     2018.26967        -5.33596         4.73724
     2018.27241       -12.76633         4.88522
     2018.27515        -0.04469         4.80896
     2018.27789         4.18994         4.99780
     2018.28062        -2.27042         4.98145
     2018.28336        -5.19979         4.81713
     2018.28610        -3.18215         4.81078
     2018.28884         1.93148         4.77900
     2018.29158        -4.01088         4.95240
     2018.29431        -4.22025         4.88885
     2018.29705        -3.73761         4.76266
     2018.29979        -4.01698         4.72907
     2018.30253        -1.53234         4.84255
     2018.30527        -5.13571         4.75358
     2018.30800        -3.51108         4.77265
     2018.31074        -3.78244         4.75721
     2018.31348        -2.01281         4.80987
     2018.31622        -2.15117         4.76811
     2018.31895        -1.83354         4.98327
     2018.32169        -2.88290         4.85435
     2018.32443        -1.60227         4.79534
     2018.32717        -8.47763         4.81804
     2018.32991        -1.79900         4.92426
     2018.33264        -1.90736         4.74995
     2018.33538        -5.00173         4.90701
     2018.33812        -4.82609         4.94877
     2018.34086        -2.06446         4.78899
     2018.34360         0.16518         4.83620
     2018.34633        -2.54019         4.75267
     2018.34907        -1.52755         4.85617
     2018.35181        -2.59892         4.86525
     2018.35455        -0.83629         4.78899
     2018.35728         2.40135         4.81078
     2018.36002         0.68598         4.78445
     2018.36276        -1.30538         4.84346
     2018.36550         0.61225         4.75812
     2018.36824        -0.68711         4.80261
     2018.37097        -0.58048         4.80351
     2018.37371         1.33216         4.79534
     2018.37645        -3.48221         4.94151
     2018.37919        -3.84257         4.76720
     2018.38193        -2.89694         4.77083
     2018.38466         0.96970         4.77809
     2018.38740         4.12633         4.78990
     2018.39014         7.06797         4.77174
     2018.39288         1.63860         4.85254
     2018.39561         1.29223         4.82530
     2018.39835         0.56987         4.81804
     2018.40109        -0.71850         4.79534
     2018.40383         1.15814         4.78263
     2018.40657         5.25277         4.82349
     2018.40930         9.80141         4.91246
     2018.41204         7.46804         4.77174
     2018.41478         1.90168         4.79716
     2018.42299         4.15458         4.89612
     2018.42573         4.97922         4.77900
     2018.42847         2.13085         4.78990
     2018.43102         4.02030         5.11945
     2018.43394         0.14812         5.55886
     2018.43668         9.09176         5.01051
     2018.43942        -1.31561         4.83892
     2018.44216         0.40802         4.81078
     2018.44490         0.03466         4.75177
     2018.44763         5.21729         4.97964
     2018.45037         0.84293         4.78445
     2018.45311         1.82856         4.79353
     2018.45585         2.91620         4.76720
     2018.45859         0.15083         4.81078
     2018.46132        -3.82753         4.94605
     2018.46406        -0.75590         4.87433
     2018.46680         2.06774         4.79625
     2018.46954         2.58437         4.84074
     2018.47227         5.46401         4.88976
     2018.47501         4.38764         4.82167
     2018.47775         4.07528         4.88068
     2018.48049         3.13791         4.90701
     2018.48323         1.69955         4.76629
     2018.48596         0.08418         4.82893
     2018.48870        -1.75119         4.80079
     2018.49144         1.57945         4.76629
     2018.49418         0.96408         4.86706
     2018.49692         1.65472         4.91881
     2018.49965         0.47835         4.82076
     2018.50239        -4.67001         4.79534
     2018.50513         0.71262         4.83710
     2018.50787        -2.56674         4.90247
     2018.51060        -3.56411         4.83257
     2018.51334         0.31053         4.78263
     2018.51608        -0.78384         4.84164
     2018.51882         3.24780         4.91518
     2018.52156        -1.36257         4.80170
     2018.52429         2.37307         4.80079
     2018.52703         7.40170         4.79443
     2018.52977         1.89234         4.78808
     2018.53251        -4.84803         5.04591
     2018.53525         6.49060         4.80987
     2018.53798         4.14824         4.77628
     2018.54072         4.35787         4.77628
     2018.54346         4.55451         4.82803
     2018.54620         4.44114         4.81895
     2018.54893         0.43678         4.78445
     2018.55167         1.04141         4.75630
     2018.55441         6.32005         4.74632
     2018.55715         2.33968         5.02231
     2018.55989        -3.17368         4.95240
     2018.56262         1.71895         4.81350
     2018.56536         1.48559         4.79443
     2018.56810         5.96322         4.81713
     2018.57084         4.29386         4.85254
     2018.57266        -0.84639         8.00918
     2018.57631        -0.03688         7.36006
     2018.57905         3.98676         4.99507
     2018.58179         4.50539         4.88431
     2018.58453         7.60403         4.95150
     2018.58726         4.81466         4.80442
     2018.59000         5.98330         4.78626
     2018.59274         5.15593         4.78263
     2018.59548        13.10957         4.93152
     2018.59822         4.76020         4.77628
     2018.60095         2.29584         4.78626
     2018.60369         7.06447         4.77991
     2018.60643        12.09411         4.93152
     2018.60917         6.56974         4.79807
     2018.61190         6.74838         4.77355
     2018.61464         5.66801         4.79988
     2018.61738         7.12365         4.79625
     2018.62012         6.89828         4.85889
     2018.62286         7.14091         4.88794
     2018.62559         3.29455         4.84164
     2018.62833         3.75018         4.75721
     2018.63107         6.32382         4.75540
     2018.63381         3.30845         4.92608
     2018.63655         6.36509         4.76811
     2018.63928         5.74572         5.01141
     2018.64202         6.04436         5.01777
     2018.64476         8.89899         4.85345
     2018.64750         0.59463         4.75903
     2018.65023         7.66426         4.79443
     2018.65297        11.17490         4.78082
     2018.65617         6.85197         6.15714
     2018.65845         7.37717         4.84981
     2018.66119         7.75480         4.88794
     2018.66392         3.91644         4.83983
     2018.66666         6.45707         4.82984
     2018.66940         4.84870         4.82621
     2018.67214         4.93234         4.84437
     2018.67488         6.02697         4.86071
     2018.67761         5.39861         4.82984
     2018.68035         1.35224         4.94332
     2018.68309         1.39388         4.88885
     2018.68583         3.72251         4.83710
     2018.68856         5.08415         4.80805
     2018.69130         3.75978         4.77355
     2018.69404         2.78442         4.92154
     2018.69678         6.86505         4.81532
     2018.69952         5.37569         4.82984
     2018.70225         0.58132         4.88613
     2018.70499        -0.61604         4.76811
     2018.70773         1.85659         4.78263
     2018.71047        -2.36677         4.80896
     2018.71321         2.93486         4.78808
     2018.71594         5.78049         4.80896
     2018.71868        -1.35887         4.89702
     2018.72142        -2.50024         4.84437
     2018.72416         6.17140         5.06861
     2018.72689         1.13803         4.78899
     2018.72963         7.93667         4.79807
     2018.73237         1.68230         4.81804
     2018.73511         0.99294         4.79897
     2018.73785         3.55657         4.76538
     2018.74058         1.89821         4.79443
     2018.74332         9.13584         4.86252
     2018.74606         5.06648         4.83075
     2018.74880         4.56911         4.80351
     2018.75154         2.17275         4.84709
     2018.75427         6.05638         4.82984
     2018.75701         8.49501         4.90065
     2018.75975         7.24565         4.89158
     2018.76249         7.94828         4.82076
     2018.76522        -1.44108         4.86979
     2018.76796         8.85755         4.93425
     2018.77070        10.31419         4.83075
     2018.77344         5.45082         4.79443
     2018.77618         3.64246         4.84346
     2018.77891         4.70009         4.82803
     2018.78165         5.43873         4.87614
     2018.78439         5.94736         4.79716
     2018.78713         4.60800         4.76901
     2018.78987        -1.69337         4.83438
     2018.79260         2.97027         4.77265
     2018.79534         9.98590         4.75903
     2018.79808         0.53554         4.75449
     2018.80082         7.61517         4.77719
     2018.80355         6.74080         4.75903
     2018.80629         7.00444         4.87887
     2018.80903         5.47807         4.92880
     2018.81177        -2.31029         5.05227
     2018.81451         0.63134         4.92335
     2018.81724         0.78198         4.85526
     2018.81998         5.07461         4.84164
     2018.82272         2.06925         4.97510
     2018.82546         6.76988         4.87433
     2018.82820         1.63852         4.78536
     2018.83093         4.03115         4.81259
     2018.83367         2.65979         4.81441
     2018.83641         3.33842         4.88613
     2018.83915         4.01606         4.88431
     2018.84188         0.33669         4.96874
     2018.84462         4.48633         4.81441
     2018.84736         0.91596         4.78263
     2018.85010         2.71559         4.77900
     2018.85284        -1.64477         4.76992
     2018.85557        -3.07714         4.80442
     2018.85831        -1.11550         4.83983
     2018.86105         0.95113         4.82530
     2018.86379         1.23677         4.83347
     2018.86653         2.74240         4.79988
     2018.86923        -2.29299         4.92426
     2018.87474         4.96931         4.81804
     2018.87748         4.48094         4.83529
     2018.88022         4.36258         4.82076
     2018.88295         3.14921         4.82439
     2018.88569         4.33285         4.88976
     2018.88843         6.85948         4.94514
     2018.89117         6.55012         4.97328
     2018.89390        -1.42725         4.95059
     2018.89664        -1.74562         5.10946
     2018.89938         1.38202         4.87160
     2018.90212         1.93865         4.90610
     2018.90485         9.68129         5.05953
     2018.90759         7.56792         4.92698
     2018.91033         7.42556         4.88250
     2018.91307        11.78119         4.99870
     2018.91581         9.52583         5.03139
     2018.91855        11.55347         4.85254
     2018.92128         4.81410         4.84528
     2018.92402         2.67573         4.85435
     2018.92676         5.50637         4.85708
     2018.92950         7.80400         4.81622
     2018.93223         3.12364         4.98055
     2018.93497         2.30327         4.87705
     2018.93771         3.67091         4.87977
     2018.94045        11.02454         4.90338
     2018.94318         6.10417         4.82712
     2018.94592         8.58381         4.91881
     2018.94866         0.10344         4.78536
     2018.95140         6.78208         5.04864
     2018.95414        13.98971         4.86252
     2018.95687         4.83735         4.87977
     2018.95961         9.07398         4.79171
     2018.96235        12.57862         4.93879
     2018.96509         6.52525         4.82803
     2018.96783        -0.07511         4.82621
     2018.97056         5.38452         4.81713
     2018.97330         0.72516         4.75812
     2018.97604        -1.22821         4.89612
     2018.97878         6.60043         4.89430
     2018.98151        -1.97794         4.81350
     2018.98425         4.62569         5.04682
     2018.98699        -3.37767         4.93061
     2018.98973        -2.92504         4.83620
     2018.99247         1.33560         4.84255
     2018.99520        -3.53077         4.86888
     2018.99794        -6.66913         4.86888
     2019.00068        -7.57950         4.82167
     2019.00342        -8.08386         4.83710
     2019.00616        -4.80223         4.81259
     2019.00889         2.55141         4.86071
     2019.01163         1.29304         4.83710
     2019.01437         4.76868         4.81441
     2019.01711         5.91831         4.79625
     2019.01984        -0.16605         4.78990
     2019.02258        -2.34942         4.79534
     2019.02532        -0.57278         4.88250
     2019.02806         2.72485         4.94514
     2019.03080        -3.56452         4.89793
     2019.03353        -0.53088         4.82621
     2019.03627        -3.22925         4.75358
     2019.03901         0.92739         4.77446
     2019.04175        -2.15098         4.80987
     2019.04449         4.08066         4.82439
     2019.04722         3.20229         4.92244
     2019.04996        -8.60607         4.96602
     2019.05270        -5.03144         5.01505
     2019.05544        -1.45280         4.89884
     2019.05817        -6.41317         4.95876
     2019.06091        -1.08053         5.01323
     2019.06365        -1.15890         4.81895
     2019.06639         0.03474         4.79534
     2019.06913        -1.56063         4.94423
     2019.07186        -2.36799         4.90973
     2019.07460         1.30564         4.79080
     2019.07734         3.03727         4.77083
     2019.08008         4.07091         4.78263
     2019.08282         3.69054         4.90883
     2019.08555         0.94818         4.83983
     2019.08829         3.64181         4.83257
     2019.09103         8.84645         4.80896
     2019.09377         4.24108         4.81713
     2019.09650         2.70072         4.79443
     2019.09924         3.84435         4.77083
     2019.10198        -1.82601         4.79353
     2019.10472         3.13562         4.78354
     2019.10746         0.50426         4.84528
     2019.11019         0.94789         4.74269
     2019.11293         4.42653         4.84891
     2019.11567         8.35016         5.00052
     2019.11841        10.72180         4.82076
     2019.12115        15.34943         4.95331
     2019.12388        11.10206         5.00778
     2019.12662         1.88470         4.85072
     2019.12936        -4.15067         4.83257
     2019.13210        -1.33703         4.78899
     2019.13483        -2.31140         4.82621
     2019.13757         2.25824         4.85072
     2019.14031         5.87087         4.77265
     2019.14305         0.52051         4.79807
     2019.14579        -0.93986         4.83257
     2019.14852        -4.83322         4.82258
     2019.15400        -3.62295         4.87705
     2019.15674       -15.29032         4.77265
     2019.15948        -3.55168         4.77719
     2019.16221        -5.36205         4.87433
     2019.16495         0.69258         4.79443
     2019.16769        -5.71278         4.72998
     2019.17043        -5.96415         4.79988
     2019.17316        -4.72751         4.81441
     2019.17590        -1.13888         4.83166
     2019.17864        -4.80424         4.87160
     2019.18138        -3.93361         4.85072
     2019.18412       -10.30997         4.79171
     2019.18685        -5.07034         4.78717
     2019.18959        -4.46270         4.78082
     2019.19233        -5.05707         4.88250
     2019.19507        -5.85043         4.83166
     2019.19780        -7.97380         4.79807
     2019.20054        -6.65116         4.89158
     2019.20328        -9.42853         4.75994
     2019.20602        -8.13589         4.77719
     2019.20876        -8.87326         4.80170
     2019.21149       -10.21763         4.79807
     2019.21423        -1.98199         4.82712
     2019.21697        -3.62836         4.76448
     2019.21971        -8.14272         5.01686
     2019.22245        -5.52209         4.91246
     2019.22518        -3.27745         4.81259
     2019.22792        -3.88282         4.86797
     2019.23066        -6.17118         4.78354
     2019.23340        -1.42155         4.80079
     2019.23613        -4.83891         4.88794
     2019.23887        -5.25728         4.85799
     2019.24161        -7.34164         4.93879
     2019.24435        -5.57101         4.87433
     2019.24709        -4.36337         4.94332
     2019.24982        -2.62374         4.82621
     2019.25256         4.66390         4.92426
     2019.25530        -3.45647         4.81804
     2019.25804        -3.72084         4.93788
     2019.26078         6.71080         4.79080
     2019.26351        -4.45657         4.86888
     2019.26625        -4.69293         4.84346
     2019.26899        -4.99930         4.99235
     2019.27173        -4.35766         4.97873
     2019.27446        -5.84303         4.81804
     2019.27720         2.82161         4.89430
     2019.27994         0.27824         4.88976
     2019.28268        -5.58712         4.84437
     2019.28542         4.91251         4.78899
     2019.28815         1.82315         4.81895
     2019.29089        -1.62622         4.82076
     2019.29363        -1.54658         4.80170
     2019.29637        -2.09995         4.90519
     2019.29911         2.88269         4.81350
     2019.30184        -1.04868         4.79625
     2019.30458       -10.11905         4.77719
     2019.30732        -3.06941         4.84800
     2019.31006         1.86522         4.93515
     2019.31279        -2.32814         4.88522
     2019.31553         6.22349         4.76448
     2019.31827        -0.52287         4.78354
     2019.32101        -2.86324         4.80714
     2019.32375        -8.58760         4.82076
     2019.32648        -0.93697         4.78808
     2019.32922        -1.17933         4.81441
     2019.33196        -1.29570         4.87887
     2019.33470         1.88594         4.91427
     2019.33744         3.22757         4.81078
     2019.34017        -2.84079         4.81078
     2019.34291         3.14184         4.88885
     2019.34565        -2.54053         5.02685
     2019.34839        -7.44789         4.90792
     2019.35112         0.21974         4.90792
     2019.35386        -1.00862         4.82349
     2019.35660         1.70301         4.81350
     2019.35934         5.80365         4.77446
     2019.36208         6.10128         4.84437
     2019.36481         1.00892         4.88613
     2019.36755         1.57055         4.84346
     2019.37029         0.54819         5.07133
     2019.37303         5.29982         4.87523
     2019.37577         6.88446         5.00688
     2019.37851         5.12310         4.85254
     2019.38124         3.86973         4.89248
     2019.38398         2.47436         4.89702
     2019.38672        -0.60500         4.85617
     2019.38945        -0.93837         4.84437
     2019.39219        -2.20574         4.92335
     2019.39493         2.49890         4.81532
     2019.39767         3.74854         4.85435
     2019.40041         4.31017         4.83892
     2019.40314         5.76780         4.79716
     2019.40588         4.81944         4.78717
     2019.40862         2.48907         4.80805
     2019.41136         4.20471         4.81804
     2019.41410         4.29934         4.85889
     2019.41684         0.57198         4.87160
     2019.41957         3.89061         4.94786
     2019.42231        -2.67575         4.82803
     2019.42505         1.87488         4.87705
     2019.42778         3.16652         5.04228
     2019.43052         4.34015         4.98055
     2019.43326        -3.47621         4.82621
     2019.43600        -1.89458         4.83166
     2019.43874         0.23405         4.86888
     2019.44147        -2.29531         4.88068
     2019.44421         1.63832         4.91609
     2019.44695         0.56496         4.90065
     2019.44969         4.38659         4.96421
     2019.45243         0.59923         4.90519
     2019.45517        -1.94013         4.93425
     2019.45790        -0.57750         4.86979
     2019.46064        -4.38687         4.88341
     2019.46338         0.08277         5.11310
     2019.46612         5.21341         5.12036
     2019.46885         5.40704         5.02776
     2019.47159         0.76767         4.93334
     2019.47433        -1.86469         4.87977
     2019.47707         5.90894         4.93697
     2019.47980         9.40958         4.94060
     2019.48254         1.04821         4.96511
     2019.48528         2.40684         4.86797
     2019.48802        -3.93052         4.85163
     2019.49076        -2.74589         4.83620
     2019.49350        -0.11125         4.81259
     2019.49623        -3.38562         4.85254
     2019.49897        -0.92998         4.80261
     2019.50114        -1.21190         6.12355
     2020.91444        -5.01784        13.86582
     2020.91718       -15.01521        13.71330
     2020.91991        11.67843        13.63432
     2020.92248       -33.15410        16.50045
     2020.92813        10.14533        13.47544
     2020.93086        20.67296        13.60799
     2020.94729       -12.45823        14.08280
     2020.95003       -11.36559        14.45503
     2020.95277       -20.42796        14.59665
     2020.95551       -10.98332        14.10459
     2020.95824        30.78331        14.71377
     2020.96098         3.43595        13.49904
     2020.96372       -36.52542        36.25195
     2020.96646         0.05422        13.66972
     2020.96919        -6.93115        13.74144
     2020.97193       -13.16451        13.26028
     2020.97467         2.54512        13.69787
     2020.97741        -2.85725        13.97113
     2020.98015        -0.17261        13.95479
     2020.98288        -6.01798        14.87627
     2020.98562       -11.83934        14.15725
     2020.98836        10.23729        13.78230
     2020.99110        22.11893        14.33246
     2020.99384        10.87256        14.27073
     2020.99657        49.31120        15.32476
     2020.99931        -1.53817        13.60072
     2021.00205        -3.42953        14.10731
     2021.00479        11.84210        13.97386
     2021.00752        15.86774        14.68472
     2021.01026        27.21237        14.42870
     2021.01300        -6.48899        15.23488
     2021.01574         3.27364        14.84541
     2021.01848        12.85828        14.46501
     2021.02121         3.46291        14.88081
     2021.02395        16.45454        14.09460
     2021.02669        -5.53082        13.95479
     2021.02943        20.46381        13.44185
     2021.03216         9.33345        13.68788
     2021.03450        10.68670        15.00701
     2021.04038         8.06835        14.26801
     2021.04312        24.32499        13.78865
     2021.04585        20.32562        14.04376
     2021.04859        10.36026        13.43731
     2021.05133        -2.72411        13.63704
     2021.05407         0.67653        14.00745
     2021.05681        22.00716        13.49632
     2021.05954         9.84380        13.89850
     2021.06776        13.32870        13.34380
     2021.07049        10.69033        13.72964
     2021.07323        19.79897        13.24484
     2021.07597         4.33760        14.07372
     2021.07871        19.54024        13.61434
     2021.08145        17.56787        13.37285
     2021.08418         6.09051        13.43549
     2021.08692         6.72114        13.18038
     2021.08966        13.72878        13.78411
     2021.09240        -4.59159        13.76051
     2021.09514         7.61005        13.43186
     2021.09787         8.83268        13.68152
     2021.10061        -4.16768        14.30795
     2021.10335        21.98995        13.40009
     2021.10609        11.05859        13.52991
     2021.10882         7.71322        13.13136
     2021.11156        -1.19115        13.26028
     2021.11430        -5.72451        13.33654
     2021.11704        11.19212        14.32883
     2021.11978        -1.64224        13.21579
     2021.12251         7.49839        13.41280
     2021.12525         7.05003        13.35742
     2021.12799        -3.60634        13.00970
     2021.13073        -1.63870        13.04783
     2021.13347         7.38493        13.93754
     2021.13620         6.65157        13.56441
     2021.13894         2.89520        13.97295
     2021.14168        12.49984        13.51266
     2021.14442        23.53847        13.95933
     2021.14715        -9.98189        13.82134
     2021.14989        10.71774        13.60799
     2021.15263       -11.61962        15.27301
     2021.15537        15.48801        13.93391
     2021.15811         3.32264        12.89441
     2021.16084         1.24428        13.39918
     2021.16358        -2.27009        14.21444
     2021.16632         4.85655        13.77957
     2021.16906        -1.69482        14.00563
     2021.17180        23.79082        14.27890
     2021.17453        -6.87255        14.50133
     2021.17727        -8.00991        12.82359
     2021.18001        -8.40528        13.87218
     2021.18275        -5.89264        13.80772
     2021.18548         3.81199        12.80271
     2021.18822        12.63663        13.40916
     2021.19096        -0.95974        12.78455
     2021.19370        -6.33710        14.74100
     2021.19644        -6.33247        13.16677
     2021.19917       -11.39783        13.08415
     2021.20191         6.85580        12.66018
     2021.20465         8.58343        12.92618
     2021.20744         4.93712        13.61253
     2021.21013         7.18870        13.43277
     2021.21286         1.44834        13.15496
     2021.21560        20.59097        12.95977
     2021.21834         8.40661        12.55486
     2021.22108         6.19224        12.71828
     2021.22381        -6.06712        12.08822
     2021.22655        -5.22149        12.76821
     2021.22929         8.19615        15.42281
     2021.23203        21.38578        12.73553
     2021.23477        -4.91758        13.11411
     2021.23750       -17.44895        13.54353
     2021.24024       -12.48931        12.49222
     2021.24298         6.53232        12.46317
     2021.24572        11.31295        12.65110
     2021.25119        -6.24678        12.91710
     2021.25393         5.16986        12.75550
     2021.25667         4.57649        12.54034
     2021.25941       -12.94687        12.87897
     2021.26214        11.48976        13.48361
     2021.26488        18.64340        12.47860
     2021.26762        13.42403        16.98706
     2021.27036        -6.60433        15.69063
     2021.27310        36.68330        12.76186
     2021.27583         7.89894        12.59299
     2021.27857         7.99357        12.62295
     2021.28131        20.63821        12.62749
     2021.28405         6.66484        13.33926
     2021.28679         3.11448        12.46771
     2021.28952        13.89211        12.90348
     2021.29226        11.78874        12.60843
     2021.29500        16.61338        12.67289
     2021.29774        -1.70699        12.97248
     2021.30047        -2.22735        12.85355
     2021.30321         7.13428        12.88170
     2021.30595         9.33592        13.69242
     2021.30869        13.01855        12.99609
     2021.31143         2.83419        12.94706
     2021.31416       -17.38918        13.03331
     2021.31690         1.34546        13.72873
     2021.31964         5.60509        13.20399
     2021.32238         3.58273        14.78821
     2021.32512        -8.57064        13.62070
     2021.32785       -10.61600        13.91212
     2021.33059        18.83763        13.27117
     2021.33333        -2.88473        14.06101
     2021.33607         1.70990        13.19491
     2021.33880        -1.31147        13.74871
     2021.34154       -14.81983        13.09504
     2021.34428       -45.96020        16.71198
     2021.34702       -13.75256        13.71965
     2021.34976        -6.59993        14.13273
     2021.35249         4.35771        13.62342
     2021.35523        -4.06966        13.69423
     2021.35797        -6.50902        14.68653
     2021.36071         2.52861        15.09870
     2021.36344       -13.71775        13.93028
     2021.36618       -10.79312        14.10731
     2021.36892        -5.88548        14.60392
     2021.37166       -12.24085        14.35970
     2021.37440        -9.92221        14.39783
     2021.37622       -54.64446        36.42626
     2021.37987        -5.17194        14.62298
     2021.38261       -18.73631        19.58355
     2021.38535       -13.70468        20.46872
     2021.38809        -6.09304        14.65929
     2021.39082       -22.66241        15.77234
     2021.39356       -10.67877        14.48771
     2021.39630        -6.45414        15.23034
     2021.39904        11.23650        14.50587
     2021.40177        37.35013        16.66658
     2021.40451        14.43377        16.97889
     2021.40725        13.28440        15.26484
     2021.40999         5.37604        14.86175
     2021.41273       -12.68033        14.34790
     2021.41546       -18.77369        14.49860
     2021.41820        -3.68906        14.71558
     2021.42094       -21.76742        15.72150
     2021.42368         7.66721        16.82183
     2021.42642        -4.22916        14.61209
     2021.42915        10.86848        15.13683
     2021.43189         1.18111        14.22624
     2021.43463        -8.54625        13.60799
     2021.43737        -5.31962        13.95025
     2021.44010         8.34602        14.06737
     2021.44284       -22.54235        14.63297
     2021.44558        -4.30671        14.63478
     2021.44832        -3.80008        13.83132
     2021.45106         5.61456        14.79638
     2021.45379        -2.78781        14.26801
     2021.45653        13.80283        15.06693
     2021.45927        17.79046        14.01834
     2021.46201        -4.12090        13.81226
     2021.46475        -0.15727        13.37013
     2021.46748        -8.75463        13.67880
     2021.47022         4.02000        15.61346
     2021.47296        15.27363        17.94123
     2021.47570        12.59627        17.90491
     2021.47843        -3.01510        17.37563
     2021.48117         0.92254        17.09873
     2021.48391        11.20517        17.81503
     2021.48665       -16.51619        19.14959
     2021.48939         5.44244        18.44237
     2021.49212       -21.11392        17.50727
     2021.49486         2.59671        18.63756
     2021.49760        -0.45765        17.27304
     2021.50034       -13.29702        17.32569
     2021.50308        17.03662        20.72746
     2021.50581         4.54225        18.75377
     2021.50855         6.24589        18.24536
     2021.51129       -17.68348        17.46914
     2021.51403       -31.56084        17.85680
     2021.51676        20.61679        18.15911
     2021.51950         1.08942        17.67341
     2021.52224        18.49706        17.68884
     2021.52498         3.37969        16.67839
     2021.52772       -19.20967        17.63800
     2021.53045        -1.76304        17.47731
     2021.53319        10.90160        17.53813
     2021.53593         6.06223        20.69387
     2021.53867        24.17587        19.60080
     2021.54141       -12.65050        17.65797
     2021.54414        14.56214        17.04516
     2021.54688         2.96377        17.49728
     2021.54962         6.91741        18.52226
     2021.55509        13.80868        17.15683
     2021.55783        11.81831        17.02338
     2021.56057         1.83995        17.40649
     2021.56331         6.65758        17.07422
     2021.56605       -28.16579        17.81140
     2021.56878        -4.64115        19.76059
     2021.57152       -20.71952        19.86318
     2021.57426         7.57412        17.76601
     2021.57700         9.71675        17.47277
     2021.57974       -26.45961        19.22313
     2021.58247        -5.45198        26.13925
     2021.58521         4.64266        20.21089
     2021.58795        -0.57671        17.78689
     2021.59069        -7.38707         6.73273
     2021.59342        -7.24044         5.34642
     2021.59616       -10.39680         5.54342
     2021.59890         5.00783         5.14941
     2021.60164         0.12847         5.33461
     2021.60438        -3.65490         5.01505
     2021.60711        -7.25227         5.31192
     2021.60985        -7.18563         5.10492
     2021.61259        -0.34900         5.13488
     2021.61533       -13.69136         5.25381
     2021.61807        -2.96873         5.12036
     2021.62080        -8.40509         5.15123
     2021.62354        -1.90246         5.34460
     2021.62628         1.39718         5.41269
     2021.62902         0.70781         5.05045
     2021.63175        -0.37955         5.06589
     2021.63449        -2.76392         5.32463
     2021.63723        -3.23828         5.25472
     2021.63997         0.23835         5.07315
     2021.64271        -0.65501         5.05045
     2021.64544        -3.50438         5.00688
     2021.64818        -4.70774         5.14124
     2021.65092         4.22689         5.18663
     2021.65366        -3.23948         5.04319
     2021.65639        -4.62184         5.09040
     2021.65913        -4.50621         5.22658
     2021.66187        -0.26957         5.09131
     2021.66461         0.88806         4.98963
     2021.66735        -0.39430         5.09403
     2021.67008        -1.48567         5.02049
     2021.67282        -0.97303         5.47170
     2021.67556         2.81660         5.74769
     2021.67830        -9.93076         5.15486
     2021.68104        -1.55813         5.03502
     2021.68377         0.62351         5.15667
     2021.68651        10.35314         5.35640
     2021.68925        -1.14022         5.17574
     2021.69199        -3.99059         5.14941
     2021.69472        -3.91595         5.01051
     2021.69746         0.55068         5.15123
     2021.70020         4.09431         5.07860
     2021.70294        -0.12105         5.17665
     2021.70568         5.80558         5.37456
     2021.70841         7.39122         5.07406
     2021.71115         0.69285         5.35822
     2021.71389        -8.63551         5.46535
     2021.71663        -0.93488         5.24020
     2021.71937        -5.61824         5.00506
     2021.72210        -1.03461         5.02322
     2021.72484        -3.47497         5.03593
     2021.72758        -4.73834         5.09857
     2021.73032        -4.25770         5.28922
     2021.73305         2.71693         5.03139
     2021.73579        10.03457         5.15123
     2021.73853         2.72120         5.26017
     2021.74127         0.72484         5.09766
     2021.74401         4.75947         5.11582
     2021.74674         6.18310         5.24474
     2021.74948         4.51474         5.08586
     2021.75222         5.89137         5.07769
     2021.75496         6.55401         5.13125
     2021.75770         1.16864         5.08223
     2021.76043         1.86128         5.28741
     2021.76317        -3.60209         5.12490
     2021.76591        -0.89745         5.06407
     2021.76865         4.52018         5.08495
     2021.77138         3.69082         5.06225
     2021.77412         6.43045         5.14850
     2021.77686         6.54209         4.96965
     2021.77960         3.14672         5.41723
     2021.78234         8.65736         5.08404
     2021.78507        10.95699         5.26289
     2021.78781         8.35262         5.12581
     2021.79055         1.37826         5.09675
     2021.79329         8.50889         5.01141
     2021.79603         5.48853         5.01868
     2021.79876         8.57616         5.19480
     2021.80150         0.92380         5.42722
     2021.80424         3.29843         5.46444
     2021.80698        -2.17993         5.19299
     2021.80971         2.12370         5.26380
     2021.81245        13.99734         5.56158
     2021.81519        10.86097         5.12308
     2021.81793         6.92361         5.07224
     2021.82067        -1.84076         5.25835
     2021.82340         9.72588         5.26017
     2021.82614         2.58351         5.28922
     2021.82888        12.80815         5.84120
     2021.83162         9.21178         5.25472
     2021.83436        11.52241         5.26199
     2021.83709         6.16305         5.14850
     2021.83983        -0.44432         5.34097
     2021.84257         3.17332         5.65237
     2021.84531        -4.70405         5.29194
     2021.84804         8.28559         5.27560
     2021.85078         0.67022         5.14850
     2021.85352         5.31586         5.41541
     2021.85626         6.86149         5.37456
     2021.85900         7.65813         5.18391
     2021.86173         7.01176         5.17211
     2021.86447        -5.37360         5.35640
     2021.86721        -2.22997         5.23021
     2021.86995        -0.31533         5.21659
     2021.87269        11.67630         5.44265
     2021.87542        -2.88906         5.21387
     2021.87816        -0.81843         5.13852
     2021.88090        10.79320         5.14578
     2021.88364        -2.18116         5.03683
     2021.88637         0.63447         5.03956
     2021.88911        -2.94489         5.66145
     2021.89185        -0.31326         5.23112
     2021.89459        -0.66462         5.35005
     2021.89733        -2.51499         5.01141
     2021.90006        -4.59235         5.07406
     2021.90280         2.69428         5.18391
     2021.90554        -2.16108         5.11128
     2021.90828         7.74555         5.10220
     2021.91102         0.29319         5.09675
     2021.91364        -1.97329         5.44537
     2021.91649         3.68946         5.08677
     2021.91923         5.43809         5.47170
     2021.92197        -6.98027         5.35277
     2021.92470        -5.47264         5.20025
     2021.92744         5.11099         5.37274
     2021.93018        -2.85237         5.37728
     2021.93292         8.54026         5.33552
     2021.93566        12.10890         5.41269
     2021.93839         1.80353         5.46989
     2021.94113         7.70917         5.37547
     2021.94387        13.85180         5.83666
     2021.94661         3.72244         5.22295
     2021.94935         8.94407         5.18209
     2021.95208         5.17471         5.20025
     2021.95482        -0.86166         5.33734
     2021.95756         3.35098         5.21114
     2021.96030         2.44061         5.28559
     2021.96303         8.40725         5.29104
     2021.96577         6.24188         5.31646
     2021.96851         2.57452         5.38001
     2021.97125        -0.86885         5.51619
     2021.97399         3.48378         5.32190
     2021.97672         3.07642         5.34006
     2021.97946        14.22105         5.33280
     2021.98220        12.66069         5.54524
     2021.99589        19.45886         5.56703
     2021.99863         1.05650         5.20751
     2022.00136         0.54513         5.20207
     2022.00410         2.15877         5.19571
     2022.00684        -1.71160         5.21114
     2022.00958         6.53104         5.27470
     2022.01232        -7.29133         5.15032
     2022.01505         6.25230         5.34279
     2022.01779         4.07194         5.27379
     2022.02053        -4.09643         5.25291
     2022.02327        -0.15879         5.56249
     2022.02600       -12.98016         5.50620
     2022.02874        -5.71052         5.38182
     2022.03148       -17.63389         5.24928
     2022.03422        -8.17725         5.31464
     2022.03696        -4.14062         5.17937
     2022.03969        -8.74698         5.14578
     2022.04243        -2.23635         5.13216
     2022.04517        -3.23471         5.18391
     2022.04791        -7.05108         5.25018
     2022.05065        -2.39644         5.15849
     2022.05338        -4.78981         5.27560
     2022.05612        -7.57817         5.44174
     2022.05886       -12.75254         5.10674
     2022.06160       -14.36991         5.19299
     2022.06433        -8.37327         5.18482
     2022.06707        -4.60764         5.33734
     2022.06981         2.83700         5.14487
     2022.07255        -7.67637         5.39181
     2022.07529        -4.44473         5.10129
     2022.07802        -6.25910         5.49258
     2022.08076         0.71754         5.26108
     2022.08350         3.32317         5.20933
     2022.08624         1.58481         5.15758
     2022.08898         0.70044         5.03411
     2022.09171        -2.12792         5.06952
     2022.09445        -6.83829         5.15032
     2022.09719        -3.39465         5.05136
     2022.09993        -1.32902         5.20297
     2022.10266        -4.63738         5.44356
     2022.10540        -2.80575         5.17301
     2022.10814         3.77588         5.19843
     2022.11088        -0.17448         5.06044
     2022.11362         2.07215         5.10765
     2022.11635         3.97779         5.19662
     2022.11909        -2.80258         5.04137
     2022.12183         3.34506         5.19299
     2022.13278        -7.95240         5.04319
     2022.13552        -4.70077         5.12944
     2022.13826         0.03087         5.07587
     2022.14099         2.32550         5.03502
     2022.14373        -4.49986         5.09040
     2022.14647         1.37377         5.02866
     2022.14921         0.75141         5.49803
     2022.15195         0.82004         5.41723
     2022.15468         1.91867         5.11491
     2022.15742        -2.20069         5.18119
     2022.16016         2.52394         5.07133
     2022.16290        -0.10542         5.13034
     2022.16564        -5.78979         5.09585
     2022.16837        -0.74015         5.25835
     2022.17111         0.08448         5.06407
     2022.17385         0.76012         5.02957
     2022.17659         4.54075         5.11854
     2022.17932        -4.57361         5.19662
     2022.18206        -0.97998         5.13670
     2022.18480        -1.35234         5.13761
     2022.18754         0.83929         5.12308
     2022.19028        -6.39707         5.16575
     2022.19301        -1.39944         5.36367
     2022.19575         0.93919         5.12671
     2022.19849         1.72383         5.08858
     2022.20123        -4.38554         5.13488
     2022.20397         5.40610         5.04773
     2022.20670         3.72273         5.22113
     2022.20944         5.01937         5.21205
     2022.21218         5.19500         5.19934
     2022.21492        -2.17336         5.04954
     2022.21765        -0.06173         5.04501
     2022.22039        -3.32709         5.04501
     2022.22313        -5.87846         5.21932
     2022.22587        -8.03782         5.96013
     2022.22861         0.80181         5.16394
     2022.23134        -0.33455         5.11491
     2022.23408         0.91708         5.12308
     2022.23682         2.83672         6.01279
     2022.23956         2.70835         5.06679
     2022.24230        14.30098         5.26652
     2022.24503         5.17262         5.11037
     2022.24777         4.85625         5.17937
     2022.25051        -7.25811         5.05590
     2022.25325         3.20752         5.05136
     2022.25598        17.74516         5.41269
     2022.25872         4.78179         5.63330
     2022.26146        -2.23357         5.11219
     2022.26420        -1.12194         5.10492
     2022.26694        -1.47830         5.41360
     2022.26967         4.85133         5.11037
     2022.27241         6.80797         5.09221
     2022.27515        11.81060         5.27560
     2022.27789         7.15524         5.13398
     2022.28062        -3.16813         5.23566
     2022.28336         1.80651         5.13761
     2022.28610         1.13614         5.17483
     2022.28884        -3.74423         5.17665
     2022.29158        -1.91659         5.12762
     2022.29431        -7.37196         5.12490
     2022.29705        -1.82932         5.06044
     2022.29979         7.97031         5.34188
     2022.30253         3.21795         5.29830
     2022.30527        -3.50842         5.16212
     2022.30800        -5.33078         5.23293
     2022.31074         0.67885         5.18300
     2022.31348        -3.33851         5.12399
     2022.31622        -2.67688         5.08677
     2022.31895       -22.07624         5.16121
     2022.32169        -4.67961         5.34188
     2022.32443        -1.76397         5.22295
     2022.32717        -5.20234         5.19208
     2022.32991         2.98530         5.24474
     2022.33264       -12.86107         5.67052
     2022.33538        -4.98844         5.32463
     2022.33812        -1.66580         5.40270
     2022.34086         6.55483         5.17755
     2022.34360        -1.02953         5.20570
     2022.34633        -5.36990         5.32554
     2022.34907        -4.15926         5.02503
     2022.35181         1.90137         5.05227
     2022.35455        -4.61999         5.44447
     2022.35728        -3.31336         5.07678
     2022.36002         0.60028         5.09040
     2022.36276        -3.48509         5.09312
     2022.36550        -7.86145         5.05227
     2022.36824        -3.62982         5.30012
     2022.37097        -2.44218         5.08768
     2022.37371        -5.12355         5.08314
     2022.37645        -6.52692         5.65418
     2022.37919         1.92372         5.27833
     2022.38193        -3.90465         5.32826
     2022.38466        -7.80101         5.19026
     2022.38740       -19.82538         5.20388
     2022.39014        -6.32874         5.11763
     2022.39288       -17.32011         5.26652
     2022.39561        -7.28247         5.04501
     2022.39835        -5.34384         5.16666
     2022.40109       -10.30920         5.92473
     2022.40383        -3.02257         5.10311
     2022.40657        -0.37993         5.06225
     2022.40930       -13.30930         5.29739
     2022.41204        -1.23566         5.09312
     2022.41478        -8.76103         5.03683
     2022.41752        -0.09639         5.19026
     2022.42026         1.15024         5.31827
     2022.42299        -6.08813         5.15213
     2022.42573        -1.46249         5.38182
     2022.42847        -7.21086         5.07950
     2022.43121        -8.11222         5.15849
     2022.43394         3.97141         5.28831
     2022.43668       -12.49995         5.19843
     2022.43942        -4.24032         5.05227
     2022.44216        -1.69168         5.20842
     2022.44490         1.50195         5.20116
     2022.44763        -1.73541         5.02049
     2022.45037        -4.51178         5.12853
     2022.45311       -13.74414         5.17937
     2022.45585        -6.47051         5.13398
     2022.45859       -19.77587         5.04682
     2022.46132       -10.48124         5.03320
     2022.46406        -7.93460         5.06135
     2022.46680        -9.90197         5.08132
     2022.46954         0.44766         5.25018
     2022.47227       -15.83170         5.27470
     2022.47501         2.57893         5.13307
     2022.47775        -5.14443         5.24110
     2022.48049        -8.39780         5.04319
     2022.48323         1.41084         5.14850
     2022.48596         4.98447         5.72409
     2022.48870        -6.51989         5.64147
     2022.49144        -6.59126         5.07950
     2022.49418        -2.63662         5.33915
     2022.49692        -3.86499         5.11582
     2022.49965       -10.98335         5.11673
     2022.50513        -7.35808         5.89567
     2022.50787         6.09355         5.63421
     2022.51060       -12.52181         5.25563
     2022.51334       -10.20718         5.23112
     2022.51608       -12.36655         5.32190
     2022.51882       -17.89691         5.09585
     2022.52156       -13.11728         5.22385
     2022.52429        -5.20864         5.15940
     2022.52703         2.49699         5.10492
     2022.52977         4.20463         5.13307
     2022.53251       -10.97474         5.14124
     2022.53525       -16.17610         5.26017
     2022.53798       -10.08847         5.20025
     2022.54072        -7.58883         5.04047
     2022.54346        -2.94120         5.01686
     2022.54620        -8.96256         5.05862
     2022.54893       -11.45993         5.30465
     2022.55167        -3.04829         5.26471
     2022.55441        -5.29866         5.04319
     2022.55715         7.26297         5.21387
     2022.55989        -4.20739         5.07587
     2022.56262       -13.93876         5.49531
     2022.56810       -10.99849         4.98236
     2022.57084        -8.70085         5.53616
     2022.57359         3.48080         5.21750
     2022.57631       -14.55358         5.10674
     2022.57905        -8.62395         5.47533
     2022.58179        -2.83531         5.11128
     2022.58453        -3.34068         5.49440
     2022.58726        -7.60704         5.11219
     2022.59000         1.95159         5.13579
     2022.59274        -4.64577         5.12308
     2022.59548        -7.85314         5.03683
     2022.59822       -10.46650         5.39363
     2022.60095       -16.87687         5.20842
     2022.60369        -1.96524         5.03139
     2022.60643        -4.07660         5.29467
     2022.60917        -0.52497         5.22567
     2022.61190         4.02867         5.17937
     2022.61464        -1.87770         4.97601
     2022.61738         4.75694         4.98781
     2022.62012        -5.29643         5.16938
     2022.62286        -2.47679         4.95876
     2022.62559        -5.83616         5.25109
     2022.62833         0.20348         5.16394
     2022.63107        -5.90189         5.00052
     2022.63381         1.96175         5.00688
     2022.63655         0.64838         4.95150
     2022.63928         0.19202         5.00597
     2022.64202         2.77165         5.46172
     2022.64476         6.71429         5.36911
     2022.64750        -1.43308         5.45354
     2022.65023         0.59155         5.08858
     2022.65297         7.23619         5.24020
     2022.65571        -0.20318         5.23838
     2022.65845        10.18846         5.13761
     2022.66119         5.49509         5.32463
     2022.66392         2.82573         5.35731
     2022.66666         0.19136         4.98236
     2022.66940         5.92100         5.03502
     2022.67214         4.83163         5.34460
     2022.67488         7.03527         5.02322
     2022.67761         4.50490         5.01505
     2022.68035         8.80454         5.06952
     2022.68309         1.11217         5.62150
     2022.68583         6.96681         5.32190
     2022.68856         9.26044         5.11491
     2022.69130         2.85708         5.29830
     2022.69404         6.76571         5.92019
     2022.69678         6.77834         5.44265
     2022.69952        -4.76902         5.19480
     2022.70225         5.13461         5.18572
     2022.70499        11.91625         5.51619
     2022.70773         4.49388         5.05772
     2022.71047         5.15652         5.04228
     2022.71321         9.70215         4.98145
     2022.71594         7.85579         4.92154
     2022.71868         5.52642         5.04501
     2022.72142         6.68006         5.14215
     2022.72416        -1.51131         5.13125
     2022.72689         4.75833         5.06679
     2022.72963        10.28896         4.86616
     2022.73237         6.92360         4.98781
     2022.73511         3.46923         4.94968
     2022.73785         0.51786         5.06135
     2022.74058        16.74250         5.64601
     2022.74332        10.33613         5.31918
     2022.74606        13.65577         5.04047
     2022.74880         7.84940         5.10492
