# ================= DQRFIT RESULTS ================
# INPUT FILE: series/RYA1.rad
# OUTPUT: LDETRENDED
# FILTER FUNCTION: f(t)
# f(t)=+line(t)+annual(t)
# line(t)=+P 1+P 2*t
# annual(t)=+P 3*sin(2*pi*t+P 4)
# heav(t)=(t<0?0:1)
# TOTAL OBSERVATIONS MTOT= 2824
# INITIAL TIME INTERVAL= 2022.7488 - 2014.5818 =  8.1670
# TOTAL OBSERVATIONS AFTER PREFILTER M= 2800
# TIME-SPAN= 2022.7488 - 2014.5818 =  8.1670
# OBSERVATIONS: USED M=  2800 REJECTED MTOT-M=    24 %USED=   99.1501
# N=  4 PARAMETERS
# MAXSIG= 175.00000
# MAXRES=  27.01003
# SCALE FACTOR FOR LENGTHS: SCL=  10.00000
# SCALE FACTOR FOR SIGMAS: SCLSIG=   1.00000
# CHI^2=   4841.664 DOF=  2796 CHI^2/DOF=   1.73164
# RMS=      7.560 SDEV=      7.560 MEAN=   -0.15369
#  P #       PARAMETER +-    SIGMA %error PARAMETER NAME
# P 1 =      5444.56904 +-  118.992   2.19 YZERO                              
# P 2 =        -2.70246 +-    0.059   2.18 SLOPE                              
# P 3 =         4.61689 +-    0.190   4.12 ANNUAL AMPLITUDE                   
# P 4 =         2.81143 +-    0.055   1.95 ANNUAL PHASE                       
#       T            LDETRENDED       SIG_OBS
     2014.58179        -7.43025         7.48231
     2014.58453        -5.81785         7.64022
     2014.58603         8.44421        29.36865
     2014.65147       -15.58793        29.25548
     2014.65297        -0.63387         7.26518
     2014.65571        11.16452         7.22307
     2014.65845         3.44592         7.20070
     2014.66119         9.27332         7.19807
     2014.66392        13.67672         7.34545
     2014.66666         7.22412         7.21255
     2014.66940         4.29852         7.18228
     2014.67214         7.62692         7.47968
     2014.67488        -9.29268         7.16122
     2014.67761       -11.80928         7.20991
     2014.68035        -8.61089         7.21912
     2014.68309       -10.81349         7.24544
     2014.68583        -0.52409         7.20860
     2014.68856        -0.84569         7.13754
     2014.69130        -8.40229         7.24281
     2014.69404       -10.63389         7.14149
     2014.69678        -6.59849         7.23097
     2014.69952        -7.13409         7.17044
     2014.70225        -3.18869         7.07174
     2014.70499        -5.74229         7.07832
     2014.70773        -4.44190         7.15333
     2014.71047         0.95150         7.25465
     2014.71321         4.56790         7.09674
     2014.71594         3.47130         7.09674
     2014.71868        -4.54630         7.10201
     2014.72142        -7.71890         7.11122
     2014.72416        -4.32750         7.13359
     2014.72689        10.18390         7.16912
     2014.72963        -1.48070         7.25334
     2014.73237         1.32369         7.30598
     2014.73511        -6.60391         7.25071
     2014.73785        -7.17751         7.24544
     2014.74058        -4.05311         7.09674
     2014.74332         0.01929         7.11517
     2014.74606         4.15569         7.36782
     2014.74880         1.13209         7.07306
     2014.75154        -4.02651         7.32571
     2014.75427        -7.32711         7.24018
     2014.75701        -6.45272         7.15333
     2014.75975        -1.20032         7.17702
     2014.76249        -7.10592         7.18886
     2014.76522         4.00648         7.15465
     2014.76794        -2.71018         7.20597
     2014.77002         4.48543         9.72463
     2014.79277        -2.81207         7.62574
     2014.79534         2.79387         7.17175
     2014.79808        -0.53673         7.29413
     2014.80082         1.93767         7.13754
     2014.80355         8.97507         7.38756
     2014.80629        -3.84053         7.29808
     2014.80903         7.90686         7.25597
     2014.81177        13.06826         7.09411
     2014.81451         7.50566         7.04148
     2014.81724         7.16606         7.12175
     2014.81998         5.08846         7.19675
     2014.82272        -5.50614         7.41388
     2014.82546         0.68626         7.28492
     2014.82820        -8.84934         7.00463
     2014.83093         2.00806         7.19017
     2014.83367         3.00746         7.18623
     2014.83641         2.72585         7.17833
     2014.83915         1.66025         7.54679
     2014.84188         0.29665         7.32440
     2014.84462         3.10805         7.33361
     2014.84736         1.37545         7.26518
     2014.85010         1.51285         7.21386
     2014.85284        -7.32075         7.19675
     2014.85557         1.84365         7.30598
     2014.85831        -1.41295         7.28492
     2014.86105       -10.31956         7.10990
     2014.86379        -8.47316         7.16912
     2014.86653        -8.26576         7.13885
     2014.86926        -6.69336         7.24939
     2014.87200        -4.34596         7.17965
     2014.87474        -7.30256         7.20465
     2014.87748        -6.30616         7.17702
     2014.88021        -5.00176         7.13096
     2014.88295        -4.36336         7.15465
     2014.88569        -5.08497         7.34151
     2014.88843        -2.85957         7.50600
     2014.89117        17.51683         7.45073
     2014.89390         2.31623         7.32966
     2014.89664         0.31163         7.25729
     2014.89938        -5.66197         7.28360
     2014.90212       -14.26457         7.23097
     2014.90485        -1.28317         7.14280
     2014.90759        15.40323         7.25729
     2014.91033         6.23863         7.12175
     2014.91307        -3.54398         7.05200
     2014.91581        -2.05858         7.01253
     2014.91854         1.58982         7.03358
     2014.92128        -4.21578         7.12569
     2014.92402        -4.21838         7.04279
     2014.92676        -8.59398         7.06121
     2014.92950        -9.20658         7.10332
     2014.93223        -8.60818         7.12043
     2014.93497       -10.88578         7.17307
     2014.93771        -6.66839         7.14017
     2014.94045         1.41101         7.22834
     2014.94318         5.98741         7.34282
     2014.94592         4.64981         7.15465
     2014.94866        -8.98779         7.06911
     2014.95140        -7.65639         6.97831
     2014.95414        -5.86699         7.07437
     2014.95687        -0.02659         7.14938
     2014.95961         4.37081         7.08885
     2014.96235       -12.19679         7.17175
     2014.96509        -1.13140         7.27703
     2014.96783        -4.83600         7.02700
     2014.97056         0.02340         7.12964
     2014.97330        -9.69420         7.13491
     2014.97604        -8.28980         7.11780
     2014.97878        -5.73640         7.02174
     2014.98151         2.39000         7.24018
     2014.98425        -6.40760         7.18754
     2014.98699        -5.24520         6.99016
     2014.98973        -6.52881         7.07832
     2014.99247       -18.42241         6.97700
     2014.99520       -17.73701         7.00463
     2014.99794        -7.96761         6.93489
     2015.00068       -10.04421         6.95199
     2015.00342       -13.53381         6.90330
     2015.00616       -23.17241         6.95594
     2015.00889       -17.72301         7.10859
     2015.01163        -9.15061         7.22570
     2015.01437        -7.67121         7.08622
     2015.01711       -13.31082         7.33098
     2015.01984        -8.78142         7.07306
     2015.02258        -7.06402         7.20465
     2015.02532        -5.23962         7.07569
     2015.02806        -9.30922         7.07043
     2015.03080        -4.89882         7.04016
     2015.03353       -10.79642         7.09148
     2015.03627        -5.64302         7.16912
     2015.03901        -3.34562         7.10596
     2015.04175        10.76977         7.13096
     2015.04449        -6.66083         7.11780
     2015.04722        -7.06943         7.13491
     2015.04996        -1.75103         7.06253
     2015.05270        -4.87863         7.05727
     2015.05544        -3.11923         7.05858
     2015.05817        -5.07683         7.05332
     2015.06091       -12.46943         7.17307
     2015.06365        -0.04203         7.55732
     2015.06639         4.47136         7.29018
     2015.06913        -1.79624         7.12964
     2015.07186       -10.52384         7.04016
     2015.07460        -5.72244         7.11122
     2015.07734       -12.83304         7.06385
     2015.08008       -13.55964         7.03884
     2015.08282        -5.41224         7.00200
     2015.08555        -6.51984         7.04674
     2015.08829        -6.80744         7.06911
     2015.09103        -2.60304         7.14280
     2015.09377        -5.81465         7.05990
     2015.09650        -4.32125         7.14938
     2015.09924         9.65115         7.30992
     2015.10198         5.18055         7.20333
     2015.10472         1.68595         7.07832
     2015.10746        -6.86065         7.10464
     2015.11019       -11.22125         7.15859
     2015.11293       -12.70285         7.20991
     2015.11567       -11.01245         7.07964
     2015.11841       -14.47606         7.01647
     2015.12115        -8.17766         7.07043
     2015.12388       -11.60126         6.99016
     2015.12662       -11.74086         7.06516
     2015.12936        -6.64346         7.07437
     2015.13210        -5.20406         7.02437
     2015.13483        -8.34566         7.17175
     2015.13757        -5.44226         7.04542
     2015.14031       -10.68586         7.00595
     2015.14305        -6.66146         7.01516
     2015.14579        -7.69207         7.14280
     2015.14852        -2.49067         7.09938
     2015.15126        -8.04227         7.00989
     2015.15400        -4.89287         7.02042
     2015.15674        -0.23747         7.00463
     2015.15948        -4.76807         7.06779
     2015.16221        -3.37467         7.01911
     2015.16495        -6.12927         7.05069
     2015.16769        -2.92887         7.03095
     2015.17043        -5.71748         7.06779
     2015.17316        -5.48108         7.38756
     2015.17590        -8.34068         7.28492
     2015.17864        -9.47228         7.04542
     2015.18138        -1.73588         6.99279
     2015.18412        -0.11548         7.12043
     2015.18685        -6.57708         7.30071
     2015.18959        -2.08268         7.08753
     2015.19233        -1.08728         7.29808
     2015.19507        -8.71489         7.08622
     2015.19780         1.81051         7.06648
     2015.20054        -4.73109         7.25729
     2015.20328        -7.75669         7.10596
     2015.20602       -16.35029         7.54416
     2015.20876        -9.68089         7.00858
     2015.21149       -16.76849         6.99937
     2015.21423       -15.02109         7.24281
     2015.21697        -8.28569         7.12175
     2015.21971        -8.03329         7.13491
     2015.22245        -5.20590         6.98752
     2015.22518        -8.03550         7.04937
     2015.22792        -8.49110         6.99147
     2015.23066       -12.31370         7.11648
     2015.23340        -6.06030         7.28624
     2015.23613        -1.47890         7.35598
     2015.23887       -10.60850         7.38625
     2015.24161       -11.34310         7.47968
     2015.24435       -11.82570         7.43625
     2015.24709        -0.93331         7.40072
     2015.24982        -8.57991         7.09938
     2015.25256        -9.18551         7.04806
     2015.25530        -7.02311         7.13491
     2015.25804        -9.27971         7.05727
     2015.26078        -6.80231         7.11780
     2015.26351        -4.65891         7.17833
     2015.26625        -4.94651         7.10069
     2015.26899        -4.74211         7.04806
     2015.27173         0.13329         7.26518
     2015.27446         8.80168         7.34151
     2015.27720         8.55608         7.11517
     2015.27994        -3.27352         7.10727
     2015.28268        -1.60712         7.07437
     2015.28542        -3.87972         7.21518
     2015.28815        -9.03832         7.28887
     2015.29089        -9.29792         7.14149
     2015.29363        -7.71752         7.16254
     2015.29637        -6.94512         7.13754
     2015.29911        -2.75473         7.20728
     2015.30184        -2.06633         7.09280
     2015.30458         1.17007         7.39677
     2015.30732        -3.51753         6.92699
     2015.31006        -4.51913         7.02174
     2015.31279        -3.58473         7.00726
     2015.31553       -11.00633         6.93883
     2015.31827       -11.66093         6.94673
     2015.32101       -10.75553         6.92962
     2015.32375         7.12686         7.21518
     2015.32648        -1.01874         7.15465
     2015.32922        -3.65634         7.18491
     2015.33196         4.07606         6.94936
     2015.33470        -5.22254         6.98621
     2015.33744        -5.09714         6.99542
     2015.34017        -4.57274         7.06648
     2015.34289        -5.64439         7.00858
     2015.34566        -5.02590         7.03621
     2015.34839        -6.75054         6.94541
     2015.35112       -10.26515         7.06779
     2015.35386        -1.35875         7.02569
     2015.35660        -7.84635         7.00068
     2015.35934        -5.70195         7.14807
     2015.36208        -8.50255         7.10069
     2015.36481        -7.42615         6.97831
     2015.36755        -4.30575         7.01384
     2015.37029        -3.81735         7.00595
     2015.37303       -13.81095         7.05727
     2015.37577       -11.46656         6.99279
     2015.37850        -8.62716         7.24939
     2015.38124        -7.26476         7.01911
     2015.38398        -6.64436         7.11780
     2015.38672        -3.60696         7.13227
     2015.38945       -14.98356         7.25992
     2015.39219       -10.70216         7.06779
     2015.39493       -11.98276         7.22570
     2015.39767       -15.43136         7.32308
     2015.40041        -9.09896         7.11912
     2015.40314       -10.83657         7.35993
     2015.40588       -17.49017         7.12043
     2015.40862        -6.44177         7.30861
     2015.41136        -8.67637         7.22702
     2015.41410        -3.79897         7.13227
     2015.41683        -7.85057         7.06648
     2015.41957        -9.80617         7.02832
     2015.42231        -9.11877         7.04674
     2015.42505       -14.25937         7.34414
     2015.42778       -11.38298         7.15333
     2015.43052        -6.27658         7.07437
     2015.43326        -5.98518         7.10069
     2015.43600         4.69622         7.03095
     2015.43874        -4.12938         6.95594
     2015.44147        -0.77698         7.20333
     2015.44421         4.30742         7.20202
     2015.44695        -8.30118         7.10596
     2015.44969       -10.01578         7.03753
     2015.45243        -9.45738         7.17965
     2015.45516        -2.65499         7.16386
     2015.45790         0.32741         7.42178
     2015.46064        -3.66719         7.29018
     2015.46338         3.30921         7.19939
     2015.46611        -0.47339         7.13491
     2015.46885        -0.94099         7.14412
     2015.47159        -1.84259         7.12043
     2015.47433        -5.55919         7.38493
     2015.47707        -7.86179         7.12175
     2015.47980        -2.84840         7.21518
     2015.48254        -5.18900         7.47968
     2015.48528        -4.21660         7.11122
     2015.48802        -6.19420         7.18096
     2015.49076       -10.76980         7.31913
     2015.49349         3.12860         7.56916
     2015.49623        -8.05200         7.47836
     2015.49897        -9.11360         7.26387
     2015.50171        -0.10620         7.14412
     2015.50444         1.47219         7.07043
     2015.50718       -10.09541         7.20202
     2015.50992       -13.99701         7.14017
     2015.51266        -6.02561         7.10859
     2015.51540         1.83279         7.12043
     2015.51813         1.22519         7.20070
     2015.52087        -3.30641         7.25860
     2015.52361         5.67099         7.33098
     2015.52635         6.09539         7.16649
     2015.52908         5.20979         7.13359
     2015.53182         5.26518         7.24544
     2015.53456         5.09858         7.20202
     2015.53730         7.24498         7.18886
     2015.54004        -1.40062         7.23755
     2015.54277        -9.55822         7.19412
     2015.54551         7.11618         7.25334
     2015.54825         1.73958         7.31256
     2015.55099         3.77598         7.32308
     2015.55373         8.64538         7.30861
     2015.55646         5.76077         7.21912
     2015.55920         3.68217         7.25597
     2015.56194        15.28757         7.21912
     2015.56468         6.15697         7.41783
     2015.56741        -4.35763         7.49152
     2015.57015         2.62177         7.59679
     2015.57289        -1.70283         7.63232
     2015.57563         4.73457         7.31519
     2015.57837         1.24497         7.29150
     2015.58110         8.35637         7.35466
     2015.58384        -0.27224         7.38888
     2015.58658         2.47916         7.55863
     2015.58932         4.93456         7.44678
     2015.59206        10.28396         7.51915
     2015.59479         5.20336         7.36124
     2015.59753         2.23076         7.43494
     2015.60027         6.12616         7.60600
     2015.60301         5.43556         7.50994
     2015.60574         5.86296         7.68759
     2015.60848         9.14135         7.62838
     2015.61122        11.38975         7.50731
     2015.61396         6.05315         7.47968
     2015.61670         9.40255         7.37440
     2015.61943         5.37995         7.39414
     2015.62217         8.31135         7.31256
     2015.62491        11.58175         7.26255
     2015.62765         5.05115         7.26123
     2015.63039         9.24755         7.33493
     2015.63312        10.93194         7.28624
     2015.63586        18.01334         7.39151
     2015.63860        -2.52526         7.24676
     2015.64134        -2.47186         7.19939
     2015.64407         3.46454         7.30992
     2015.64681         0.79894         7.49547
     2015.64955         6.59134         7.16254
     2015.65229         6.29674         7.30466
     2015.65503         6.17414         7.21386
     2015.65776         7.02154         7.28887
     2015.66050         8.44893         7.30334
     2015.66324         7.46733         7.28887
     2015.66598         9.15173         7.47836
     2015.66872        11.44713         7.39809
     2015.67145         8.52553         7.21912
     2015.67419         8.17093         7.20860
     2015.67693         9.50233         7.22965
     2015.67967         7.56773         7.37309
     2015.68240         6.37313         7.24150
     2015.68514         0.61952         7.30729
     2015.68788         0.01392         7.51784
     2015.69062         0.08132         7.67706
     2015.69336        -4.93628         7.50468
     2015.69609         5.91712         7.27176
     2015.69883        14.66652         7.27966
     2015.70157         4.74492         7.54942
     2015.70431         9.64532         7.28755
     2015.70705         7.86972         7.18228
     2015.70978        12.43812         7.31124
     2015.71252         5.30451         7.31913
     2015.71526         2.68091         7.18623
     2015.71800        15.42631         7.31782
     2015.72073        19.52471         7.39019
     2015.72347         2.64711         7.22044
     2015.72621        -2.03949         7.27308
     2015.72895        -0.87909         7.16649
     2015.73169         5.16031         7.25597
     2015.73442         5.86371         7.26913
     2015.73713         3.47403         7.40335
     2015.73992         5.89157         7.47178
     2015.74264         4.46290         7.35072
     2015.74538        12.58030         7.49942
     2015.74811         3.37370         7.59548
     2015.75085        -0.89090         7.24808
     2015.75359         3.77550         7.36651
     2015.75633         8.11990         7.24939
     2015.75906         9.53430         7.30203
     2015.76180         4.90770         7.25071
     2015.76454         1.75009         7.24150
     2015.76728         1.87649         7.25729
     2015.77002        -0.95011         7.38361
     2015.77275        10.90929         7.25729
     2015.77549         8.33469         7.41256
     2015.77823        13.80609         7.25334
     2015.78097        15.29149         7.31650
     2015.78371         3.26289         7.19807
     2015.78644         3.86029         7.36256
     2015.78918         4.10268         7.15201
     2015.79192         8.46408         7.22439
     2015.79466        11.88748         7.24018
     2015.79739         6.57488         7.24281
     2015.80013         1.91828         7.50336
     2015.80287        -0.55732         7.20991
     2015.80561         2.52508         7.27834
     2015.80835         1.60948         7.25202
     2015.81108        -4.24612         7.25071
     2015.81382        -2.24273         7.24150
     2015.81656         2.94867         7.24544
     2015.81930         3.69307         7.20333
     2015.82203         1.49247         7.26913
     2015.82477         8.47387         7.29808
     2015.82751        14.27427         7.32440
     2015.83025        16.58967         7.43230
     2015.83299        18.69707         7.36124
     2015.83572        10.37547         7.26913
     2015.83846         4.31987         7.55337
     2015.84120        -3.54574         7.46125
     2015.84394         0.90766         7.43494
     2015.84668         2.22806         7.35466
     2015.84941         9.19146         7.45994
     2015.85215         6.52686         7.44809
     2015.85489        10.24226         7.37440
     2015.85763         2.11466         7.37309
     2015.86036         3.12106         7.49678
     2015.86310         6.26246         7.37572
     2015.86584        11.81085         7.47310
     2015.86858         4.08125         7.45731
     2015.87132         4.66265         7.44941
     2015.87405         5.72505         7.52179
     2015.87679        -2.43555         7.55863
     2015.87953         6.74485         7.72970
     2015.88227         2.09725         7.62838
     2015.88501        -7.55935         7.46783
     2015.88774        -3.75495         7.28492
     2015.89048         3.66745         7.36782
     2015.89322         6.90784         7.25202
     2015.89596         6.19024         7.37046
     2015.89869        -0.43136         7.26123
     2015.90143        -6.21296         7.33229
     2015.90417        -4.24256         7.33624
     2015.90691        -2.41916         7.40993
     2015.90965         0.17924         7.78234
     2015.91238         1.37164         7.34019
     2015.91512        -1.93896         7.32045
     2015.91786        -3.05757         7.39941
     2015.92060        -3.78017         7.37835
     2015.92334         8.68223         7.40862
     2015.92607        -2.93737         7.45994
     2015.92881        -0.61397         7.44020
     2015.93155         1.14143         7.84419
     2015.93429         6.87983         7.78497
     2015.93702        14.40123         7.59679
     2015.93976        11.33863         7.56521
     2015.94250         3.63702         7.55468
     2015.94523         0.81641         7.41125
     2015.94798         8.66682         7.60337
     2015.95071         9.79422         7.34019
     2015.95345         2.63862         7.29808
     2015.95619        -4.71198         7.36519
     2015.95893        -0.23358         7.46125
     2015.96167        -0.73418         7.46389
     2015.96440         5.22022         7.34677
     2015.96714        -4.77538         7.56390
     2015.96988         9.04401         7.47178
     2015.97262         8.82641         7.43625
     2015.97535         7.44481         7.31519
     2015.97809         4.08121         7.30203
     2015.98083        -7.25339         7.34414
     2015.98357        -9.29999         7.28755
     2015.98516       -12.05269        18.87026
     2016.06684         4.14805        18.72419
     2016.06844        -5.03262         7.27439
     2016.07118        -4.22122         7.43362
     2016.07392        -7.39483         7.31650
     2016.07666         2.85357         7.24676
     2016.07939         4.87497         7.14412
     2016.08213        -2.25663         7.33756
     2016.08487        -3.03223         7.16912
     2016.08761       -10.95883         7.15070
     2016.09034        -8.82843         7.52573
     2016.09308        -3.80403         7.37046
     2016.09582        -9.83163         7.11517
     2016.09856         2.69176         7.30203
     2016.10130       -16.48584         7.13491
     2016.10403       -12.09444         7.11254
     2016.10677       -10.10104         7.19939
     2016.10951       -10.77664         7.08227
     2016.11225       -13.60424         7.42309
     2016.11498        -6.18284         7.12701
     2016.11772        -0.82044         7.10990
     2016.12046        -6.02804         7.37967
     2016.12320        -0.29165         7.13885
     2016.12594        -4.18725         7.07569
     2016.12867        -2.93985         7.03226
     2016.13141        10.41255         7.23228
     2016.13415         5.33895         7.07437
     2016.13689         0.31335         7.05990
     2016.13958        -8.47137         7.10201
     2016.14239       -10.32979         7.15596
     2016.14510       -12.73545         7.09411
     2016.14784       -10.77905         7.06779
     2016.15058        -8.58466         7.10859
     2016.15331        -4.57226         7.19281
     2016.15605        -3.51786         7.04016
     2016.15879        -9.37246         7.27571
     2016.16153        -4.57006         7.24018
     2016.16427        -3.00166         7.04674
     2016.16700        -6.47526         7.05858
     2016.16974        -6.67886         7.05464
     2016.17248        -7.70146         7.25729
     2016.17522        -6.56607         7.03753
     2016.17796         6.56133         7.12306
     2016.18069         0.89573         7.20465
     2016.18343        -6.44887         7.34019
     2016.18617        -8.85947         7.05464
     2016.18891        -0.83407         6.91910
     2016.19164        -4.90467         7.07832
     2016.19438         4.26873         6.98489
     2016.19712         3.09813         6.91778
     2016.19986         7.83253         7.31913
     2016.20260        -2.67008         7.26387
     2016.20533        -5.03468         7.53889
     2016.20807        -1.53828         7.26255
     2016.21081        -9.33788         7.16780
     2016.21355        -8.12648         7.14280
     2016.21629        -6.44908         7.25992
     2016.21902         6.07132         6.93620
     2016.22176        -1.98428         6.92436
     2016.22450        -4.06288         7.13227
     2016.22724        -9.59649         7.14938
     2016.22997        -3.68609         6.92831
     2016.23271        -5.98069         6.94541
     2016.23545        -5.97929         6.95199
     2016.23819        -4.63089         6.95594
     2016.24093         1.00751         7.14017
     2016.24366        -3.63709         7.03095
     2016.24640        -2.22769         7.08885
     2016.24914        -5.44929         7.01647
     2016.25188        -1.00990         7.34019
     2016.25462        -1.54950         7.38230
     2016.25735        -8.76510         7.12964
     2016.26009        -4.82770         6.97436
     2016.26283       -10.17730         7.09674
     2016.26557        -9.91490         7.08753
     2016.26830        -7.46050         7.06121
     2016.27104        -1.00310         7.07701
     2016.27378         5.77130         6.99937
     2016.27652        -1.94230         7.00331
     2016.27926        -7.13291         7.08095
     2016.28199        -5.94051         7.34151
     2016.28473        -3.72211         7.00068
     2016.28747        -7.77871         7.18491
     2016.29021       -11.00031         7.08095
     2016.29295        -9.91691         7.04411
     2016.29568        -9.20251         7.05858
     2016.29842        -7.43511         7.11648
     2016.30116        -6.17071         7.13885
     2016.30390       -11.90532         7.19939
     2016.30663         9.52508         7.13359
     2016.30937        -0.87652         7.10859
     2016.31211        -3.10312         7.17438
     2016.31485        -3.27072         7.25729
     2016.31759        -2.78932         7.05858
     2016.32032        -6.41892         7.09674
     2016.32306       -11.73752         7.08885
     2016.32580        -5.66612         7.23755
     2016.32854        -5.58572         7.03095
     2016.33128        -8.37333         7.17438
     2016.33403        -5.47089         7.21912
     2016.33675        -6.07753         7.54679
     2016.33949        -5.14313         7.21123
     2016.34223         1.29727         7.44941
     2016.34496        -1.26933         7.32308
     2016.34770        -0.25093         7.19807
     2016.35044         6.53947         7.55205
     2016.35318        -6.16713         7.08095
     2016.35592        -5.55474         7.03753
     2016.35865       -11.49634         7.05332
     2016.36139        -4.38794         7.12043
     2016.36413        -2.38154         7.74549
     2016.36687        -2.50214         7.07437
     2016.36960         8.07823         7.09148
     2016.37234        12.58666         7.07437
     2016.37508        -0.40894         7.18754
     2016.37782        -8.96754         7.05858
     2016.38056         1.61686         7.48231
     2016.38329         0.92625         7.13491
     2016.38603        -3.11235         7.17833
     2016.38877        10.33005         7.28492
     2016.39151        -1.58755         6.99016
     2016.39425        -0.10915         7.38230
     2016.39698         2.20525         7.06516
     2016.39972         5.19265         7.06779
     2016.40246         0.97205         7.10990
     2016.40520        -5.88055         6.99937
     2016.40794        -9.71316         7.09806
     2016.41067        -8.51776         7.25465
     2016.41341        -9.82136         7.03884
     2016.41615        -6.22796         7.17570
     2016.41889        -0.00156         7.44020
     2016.42162        -2.12616         7.11912
     2016.42436       -10.34176         7.15859
     2016.42710        -7.36436         7.29018
     2016.42984        -3.85596         7.37046
     2016.43258         2.21643         7.19675
     2016.43533         7.19989         7.37309
     2016.43805         3.53823         7.12964
     2016.44078        -3.23838         7.04148
     2016.44354        -2.04693         7.33361
     2016.44626        -3.89257         7.02305
     2016.44900        -2.43317         7.18096
     2016.45174         8.87723         7.14807
     2016.45448        -6.50037         7.22702
     2016.45722        -2.21697         7.36651
     2016.45995        -0.44558         7.31256
     2016.46269         0.22982         7.22570
     2016.46543        -5.50878         7.04148
     2016.46817        -6.64638         7.34545
     2016.47091         5.87302         7.21255
     2016.47364        -6.31058         7.29413
     2016.47638         4.31282         7.18886
     2016.47912        -0.09678         7.35861
     2016.48186        -0.26838         7.60074
     2016.48459        -9.55599         7.19412
     2016.48733        -8.47259         7.44415
     2016.49007        -5.41319         7.33229
     2016.49281         0.56621         7.23623
     2016.49555        -2.34039         7.32045
     2016.49828        -1.86599         7.15465
     2016.50102         5.31041         7.46257
     2016.50376        12.37881         7.48889
     2016.50650         2.20321         7.36651
     2016.50924         6.97361         7.26650
     2016.51197        -3.93300         7.22307
     2016.51473         0.73344         7.12306
     2016.51745        -1.87820         7.54021
     2016.52019        -3.08780         7.16254
     2016.52292        -1.50040         7.17438
     2016.52566         3.56300         7.15333
     2016.52840         1.31140         7.19017
     2016.53114         1.40180         7.22570
     2016.53388        -3.65480         7.14149
     2016.53661         2.42359         7.24413
     2016.53935         1.78199         7.15465
     2016.54209         5.05239         7.12701
     2016.54483         5.80879         7.25202
     2016.54757         8.53619         7.50600
     2016.55030         1.77759         7.19939
     2016.55304         2.30399         7.07174
     2016.55578         6.86039         7.95078
     2016.55852        -3.59821         8.09816
     2016.56125         1.20918         7.17307
     2016.56399         0.54958         7.61916
     2016.56673        -1.98402         7.46389
     2016.56947        -5.02262         7.88103
     2016.57221         3.70478         7.23228
     2016.57493         3.13215         7.41651
     2016.57767         9.14955         7.14543
     2016.58041        13.00594         7.24018
     2016.58316         5.10238         7.26518
     2016.58590         3.50878         7.26123
     2016.58863         4.40817         7.41783
     2016.59137        -4.65243         7.38230
     2016.59411         5.18097         7.33887
     2016.59685        12.18637         7.32835
     2016.59958         7.54477         7.32571
     2016.60232         1.13017         7.26913
     2016.60506         7.60057         7.08622
     2016.60780         2.67197         7.10201
     2016.61054         0.99637         7.20728
     2016.61327        -1.70124         7.38098
     2016.61601         2.46916         7.28229
     2016.61875         2.99456         7.45994
     2016.62149         0.47696         7.12043
     2016.62423         5.38336         7.42178
     2016.62696         5.11576         7.20465
     2016.62970         3.14416         7.20860
     2016.63244         9.16856         7.25729
     2016.63518         3.94696         7.04148
     2016.63791        12.16036         7.05200
     2016.64065        21.56275         7.27571
     2016.64339         6.01215         7.09806
     2016.64613         3.36455         7.17307
     2016.64887         2.88395         7.21386
     2016.65183         6.06497         7.76655
     2016.65412         7.36215         7.68496
     2016.65823       -13.93874        19.54401
     2016.65982         0.85355         7.11912
     2016.66256         2.63295         7.18623
     2016.66529         6.23634         7.31913
     2016.66803        10.20774         7.12701
     2016.67077         2.81014         7.27966
     2016.67351        12.60454         7.23886
     2016.67624         4.31394         7.23228
     2016.67898        12.38834         7.16649
     2016.68172        11.76074         7.15728
     2016.68446        11.41214         7.40335
     2016.68720        10.08454         7.83234
     2016.68993         0.48193         7.22176
     2016.69267         0.46433         7.11254
     2016.69541        13.23473         7.33756
     2016.69815        -1.69587         7.11254
     2016.70089         7.27353         7.08095
     2016.70362         6.05193         7.33756
     2016.70636         4.04833         7.54942
     2016.70909         8.10471         7.50600
     2016.71184         6.37214         7.10727
     2016.71457        18.44953         7.17570
     2016.71731        22.72492         7.11780
     2016.72005        15.50832         7.20202
     2016.72279         4.38772         7.18096
     2016.72553        12.92712         7.27966
     2016.72826        12.08052         7.19544
     2016.73100        10.01392         7.17570
     2016.73374         7.95132         7.20202
     2016.73648         1.16272         7.00726
     2016.73921         4.29212         7.19412
     2016.74195         3.26351         7.09938
     2016.74469         2.83591         7.12569
     2016.74743         5.43831         7.35072
     2016.75017        14.44671         7.25860
     2016.75290         3.53811         7.14280
     2016.75564         8.99851         6.93225
     2016.75838         8.84091         7.10859
     2016.76112        11.04331         7.09148
     2016.76386         7.40271         7.15859
     2016.76659         8.83511         7.12964
     2016.76933         6.04750         7.02174
     2016.77207        12.78990         7.14280
     2016.77481         4.47130         7.12569
     2016.77754        -6.02630         7.00200
     2016.78028         0.75610         7.20728
     2016.78302        -1.97850         7.03621
     2016.78576        11.41590         7.21123
     2016.78850        19.22630         7.12306
     2016.79123        15.81270         7.08095
     2016.79397        14.68709         7.12964
     2016.79671         4.63649         7.13885
     2016.79945        -2.00911         7.07043
     2016.80219         0.54329         7.31124
     2016.80492         8.64269         7.22965
     2016.80766         8.65909         7.29940
     2016.81040        -3.07051         7.17965
     2016.81314        -1.09211         7.25334
     2016.81587        -0.36071         7.15991
     2016.81861        -7.66831         7.15728
     2016.82135         4.34708         7.20991
     2016.82409         2.61248         7.28360
     2016.82681        -2.58417         7.25729
     2016.82956         2.08428         7.17965
     2016.83230         7.45768         7.01647
     2016.83504         4.89308         7.01121
     2016.83778         0.62448         7.04542
     2016.84052        -3.39512         7.14807
     2016.84325        -6.29072         7.34019
     2016.84599        -3.48233         7.09938
     2016.84873         4.80807         8.74954
     2016.85147        -3.22953         7.33887
     2016.85422        -3.75709         7.14543
     2016.85694         1.38827         7.06385
     2016.85968        -3.59333         7.30466
     2016.86242        -0.01293         6.98884
     2016.86516         9.97947         7.34282
     2016.86789         5.53087         7.16517
     2016.87063         6.53626         7.13754
     2016.87337        12.31066         7.31387
     2016.87611        12.93106         7.13491
     2016.87885         0.70846         7.13227
     2016.88158        -7.91914         7.26123
     2016.88432         1.77826         7.14938
     2016.88705         3.85163         7.08490
     2016.88980         4.84706         7.42178
     2016.89253         3.00546         7.22176
     2016.89527         0.09086         7.34151
     2016.89801         2.35725         7.15728
     2016.90075         3.75165         7.12964
     2016.90349         6.49405         7.30334
     2016.90622        10.10845         7.21386
     2016.90896        10.77985         7.12569
     2016.91170         4.44925         7.29018
     2016.91444         2.99466         7.16649
     2016.91705       -18.14430         7.81524
     2016.92024        -6.42068         8.11132
     2016.92247        -8.32664         7.73760
     2016.92575         6.78322         8.24291
     2016.92813        -1.53636         7.10859
     2016.93086        -1.21096         7.04148
     2016.93360        -2.68256         6.93094
     2016.93634        -2.48816         6.95857
     2016.93908        -6.07076         7.15596
     2016.94182        -7.76836         7.33887
     2016.94455       -13.76796         7.31387
     2016.94729         0.25344         7.05727
     2016.95003        -2.18217         8.31265
     2016.95368         3.27170        11.32742
     2016.95480        -0.48827        10.90764
     2016.99771        16.72769        17.31221
     2016.99931         4.29601         6.93620
     2017.00074         5.25687       151.01341
     2017.00479        -4.72219         6.89936
     2017.00753        -8.09178         6.89673
     2017.01226        -1.49199        11.68272
     2017.01574        -1.13459         6.89804
     2017.01851        -4.19710         7.00989
     2017.02121        -7.30779         6.94410
     2017.02395       -11.29439         6.96121
     2017.02669       -13.94700         7.15596
     2017.02943         3.42040         6.93489
     2017.03216        -5.29920         6.88620
     2017.03490        -5.40480         6.87567
     2017.03764        -7.39040         7.02832
     2017.04038        -4.71200         6.91120
     2017.04312        -3.98160         7.00595
     2017.04585        -0.28920         7.21912
     2017.04859        -8.63880         7.25071
     2017.05133        14.82959         7.02437
     2017.05407         7.41799         7.04542
     2017.05681         8.10539         6.93883
     2017.05954        -0.83321         7.10201
     2017.06228        -2.77981         6.97436
     2017.06502        -4.80741         6.95594
     2017.06776        -4.38801         7.01647
     2017.07049        -3.23861         6.90857
     2017.07323        -6.49421         6.94936
     2017.07597        -9.29081         7.00595
     2017.07871        -6.65842         7.02042
     2017.08145         0.90898         6.97700
     2017.08418        -8.11862         6.88883
     2017.08692        -3.73222         6.91252
     2017.08966        -7.53082         6.92962
     2017.09240        -5.81442         6.91646
     2017.09514       -22.58102         6.92041
     2017.09787       -13.40562         7.06911
     2017.10061         0.83678         7.06385
     2017.10335        -0.01683         7.06121
     2017.10609        -3.96243         7.03095
     2017.10882         2.79997         7.07174
     2017.11156        12.87937         6.98752
     2017.11430        -1.29923         7.09543
     2017.11704       -11.35683         7.04937
     2017.11978       -10.64443         7.03490
     2017.12251        -9.41803         7.05595
     2017.12525        -1.53163         7.05727
     2017.12799         4.70077         7.11254
     2017.13073         0.97716         7.13359
     2017.13347         5.16456         6.99673
     2017.13620         1.80896         7.13491
     2017.13894        -1.16864         6.96910
     2017.14168        -3.20124         7.19544
     2017.14442        -3.85084         7.01121
     2017.14715        -8.90744         6.97042
     2017.14989        -6.35004         7.05332
     2017.15263        -1.09464         7.03621
     2017.15537         3.77475         7.14675
     2017.15811        -0.84185         7.19939
     2017.16084        -3.48045         6.98884
     2017.16358        -5.36305         7.07832
     2017.16632        -8.70465         7.02305
     2017.16906        -5.88425         7.02832
     2017.17180        -0.48085         7.09411
     2017.17452         1.40651         7.11780
     2017.17727        -1.63905         7.08359
     2017.18001         1.13334         7.00200
     2017.18275         0.49874         7.22176
     2017.18548        -7.89686         7.08885
     2017.18822       -25.18546         6.98094
     2017.19096       -12.78406         7.01253
     2017.19370        -2.15866         7.06121
     2017.19644        -7.75126         6.93883
     2017.19917        -5.35286         7.05200
     2017.20191        -2.15846         7.02963
     2017.20465        -0.75606         7.19544
     2017.20739        -7.79965        11.20636
     2017.21013        -0.05527         7.05069
     2017.21286         1.03013         7.06253
     2017.21560        -7.17947         7.05858
     2017.21834        -7.47907         6.93883
     2017.22108         1.65033         7.01516
     2017.22381        -1.87627         7.13754
     2017.22655        -3.37887         7.11780
     2017.22929        -3.14147         6.96121
     2017.23203        -3.75008         6.92436
     2017.23477        -4.57468         6.95199
     2017.23750       -10.53428         7.08622
     2017.24024        -7.64588         7.17175
     2017.24298        -7.19748         6.96384
     2017.24572        -7.80308         6.92436
     2017.24846       -11.51368         6.91778
     2017.25119        -1.01928         6.99279
     2017.25393        -9.14788         6.98884
     2017.25667       -10.11748         6.99279
     2017.25941       -10.09809         7.01647
     2017.26214        -3.74369         6.95331
     2017.26488         5.02371         7.08227
     2017.26762        -0.86089         7.03490
     2017.27036        -1.39249         6.98752
     2017.27310        -7.14009         7.30598
     2017.27583        -7.18869         6.98621
     2017.27857       -11.28629         6.97700
     2017.28131        -9.81489         7.00595
     2017.28405       -12.74750         7.06253
     2017.28679        -5.43210         7.12833
     2017.28952        -6.27770         7.11912
     2017.29226        -7.99630         7.04148
     2017.29500        -8.85590         7.02963
     2017.29774       -11.01950         7.05069
     2017.30047       -10.52210         7.05464
     2017.30321        -9.38370         6.99016
     2017.30595       -13.23230         7.04148
     2017.30869        -3.03691         6.98621
     2017.31143        -3.37251         7.03621
     2017.31416        -6.72911         6.99279
     2017.31690        -2.98871         7.04148
     2017.31964        -5.54131         7.12569
     2017.32238        -6.87091         7.07701
     2017.32512       -10.96351         6.99937
     2017.32785        -9.13111         7.07964
     2017.33059       -11.44771         6.97568
     2017.33333       -10.01031         6.95331
     2017.33607       -13.84992         6.95857
     2017.33880       -12.58852         6.92962
     2017.34154         1.71588         7.26123
     2017.34428        -3.87272         7.03884
     2017.34702        -1.49732         6.91646
     2017.34976       -11.75792         6.89804
     2017.35249        -9.15752         7.20991
     2017.35523       -15.00012         6.93489
     2017.35797        -6.99072         7.01253
     2017.36071        -9.63333         7.08753
     2017.36344        -6.34993         6.99147
     2017.36618        -6.44453         6.99279
     2017.36892        -5.53313         6.95199
     2017.37166        -7.47873         6.95726
     2017.37440       -10.44833         6.98226
     2017.37713        -5.81493         7.05069
     2017.37987       -12.02053         7.10859
     2017.38261       -10.83713         6.98358
     2017.38535       -14.24373         6.96647
     2017.38809        -9.94934         7.00463
     2017.39082        -8.73794         6.94410
     2017.39356         5.77946         7.15201
     2017.39630        -3.69314         6.95857
     2017.39904       -10.28574         6.95331
     2017.40177        -7.29734         6.97831
     2017.40451        -2.00494         7.39546
     2017.40725        -2.66154         7.12833
     2017.40999        -5.45514         7.15201
     2017.41273         0.08725         7.07043
     2017.41546        -7.99035         7.02437
     2017.41820        -9.69595         7.18754
     2017.42094        -6.11355         7.03753
     2017.42368        -8.23415         7.16780
     2017.42642       -10.94775         7.01253
     2017.42915       -12.10435         7.05990
     2017.43189       -10.72195         7.06516
     2017.43463        -5.24655         7.09148
     2017.43737         4.46484         7.04148
     2017.44010         3.23824         6.95857
     2017.44284        -1.05736         7.20333
     2017.44558        -3.98696         7.12833
     2017.44832        -0.88156         7.03358
     2017.45106         9.66584         7.04279
     2017.45379         0.50324         7.15465
     2017.45653         2.79964         7.26650
     2017.45928         0.38606         7.17570
     2017.46201         1.71245         7.14543
     2017.46475        -8.09915         7.20991
     2017.46749         0.20625         7.09674
     2017.47023         4.09866         7.12569
     2017.47296        -2.37597         7.20991
     2017.47570        -9.56657         7.15991
     2017.47843       -10.40917         6.99805
     2017.48117        -6.89577         7.26387
     2017.48391         0.29261         7.10464
     2017.48665         5.62304         7.20070
     2017.48939         1.05642         6.97568
     2017.49212         5.36182         7.08885
     2017.49486        -5.41178         7.05858
     2017.49762        -1.48931         7.08622
     2017.50034         2.13802         7.12833
     2017.50308         5.93942         7.11122
     2017.50581         3.05882         7.21781
     2017.50855        -2.74578         7.17833
     2017.51129        -6.73638         7.12438
     2017.51403        -3.22098         7.19939
     2017.51676        -6.60659         7.23755
     2017.51950         1.02881         7.10332
     2017.52224        -8.05779        15.97393
     2017.52498         3.39861         7.14807
     2017.52772         1.72901         7.33624
     2017.53045         4.20641         7.16649
     2017.53319         5.05081         7.24676
     2017.53593         1.40221         7.35335
     2017.53867         9.71161         7.31913
     2017.54141         7.95200         7.10069
     2017.54414         3.59440         7.25334
     2017.54688         2.68480         7.13491
     2017.54962         0.62120         7.19149
     2017.55236        12.73160         7.17833
     2017.55509         9.15100         7.09938
     2017.55783         5.65540         7.19675
     2017.56057         6.55580         7.31650
     2017.56331         2.36720         7.14017
     2017.56605         0.42260         7.08227
     2017.56878         2.17899         7.13885
     2017.57151         7.27335         7.14017
     2017.57425        -0.23425         7.26518
     2017.57700         4.77419         7.15465
     2017.57974         2.75259         7.11254
     2017.58247         2.08698         7.04806
     2017.58522        -0.58760         7.04411
     2017.58795         5.32479         7.25334
     2017.59069         3.53319         7.58495
     2017.59342         5.57758         7.20070
     2017.59616        -2.16602         7.12833
     2017.59892         2.03545         7.24676
     2017.60164         3.20978         7.13885
     2017.60438        -3.95382         7.13359
     2017.60711        -1.52142         7.17833
     2017.60985         1.46698         7.28360
     2017.61259         1.69538         7.27703
     2017.61533        10.81578         7.30729
     2017.61807        13.84117         7.35598
     2017.61989         7.28709        11.78931
     2017.62639         5.88568         7.66654
     2017.62902         8.15877         7.70996
     2017.63175         8.44517         7.28624
     2017.63449         7.18457         7.15465
     2017.63723         5.40997         7.04279
     2017.63997         7.05037         7.15070
     2017.64271         3.43977         7.26518
     2017.64544         9.61516         7.53231
     2017.64818        12.70956         7.29545
     2017.65092         8.30996         7.16912
     2017.65366         7.39836         7.03095
     2017.65639         2.25276         7.07043
     2017.65913         5.41016         7.22307
     2017.66187         6.52556         7.45467
     2017.66461        13.07096         7.35993
     2017.66735         5.74736         7.25334
     2017.67008        10.46475         7.30992
     2017.67282        11.52315         7.35993
     2017.67556         3.34855         7.17307
     2017.67830         5.67995         7.11385
     2017.68104         8.88535         7.31256
     2017.68377        10.44975         7.34808
     2017.68651        11.00015         7.36651
     2017.68925        13.07955         7.22570
     2017.69199        19.36895         7.09806
     2017.69472        13.76835         7.07701
     2017.69746        15.34874         7.29150
     2017.70020        18.68314         7.39019
     2017.70294        16.30354         7.44415
     2017.70568         4.17394         7.73102
     2017.70841         8.69934         7.12701
     2017.71115        10.22474         7.14280
     2017.71389        13.16314         7.33624
     2017.71663        14.97954         7.10332
     2017.71937        16.95094         8.81270
     2017.72210        10.14233         7.03621
     2017.72484         2.25273         7.10464
     2017.72758         9.93913         7.08622
     2017.73032        12.50953         7.14543
     2017.73305         9.89693         7.06385
     2017.73579         3.22133         7.20465
     2017.73853         3.76673         7.35730
     2017.74127         4.20413         7.25597
     2017.74401         6.56653         7.05990
     2017.74674        22.36192         7.22439
     2017.74948         7.09332         7.12043
     2017.75222         5.83272         7.04937
     2017.75496         3.53312         7.14017
     2017.75770         2.15952         7.28624
     2017.76043         1.29992         7.08622
     2017.76317         8.97832         7.19675
     2017.76591        25.79772         7.27308
     2017.76865         8.03812         7.07964
     2017.77138         2.86852         7.07569
     2017.77412         5.30891         7.12043
     2017.77686        10.26631         7.08885
     2017.77960         9.23171         7.09148
     2017.78234         4.56411         7.13622
     2017.78507         6.44251         7.13622
     2017.78781        -4.74109         7.14412
     2017.79055         1.41731         7.11780
     2017.79329         5.22671         7.16386
     2017.79603        13.25711         7.24150
     2017.79876        12.38650         7.46915
     2017.80150        14.39590         7.33361
     2017.80424        20.25530         7.00858
     2017.80698         9.43070         7.13227
     2017.80971         0.73810         7.22044
     2017.81245        -2.59550         7.23097
     2017.81519         9.37890         7.25071
     2017.81793         0.22530         7.13359
     2017.82067        -6.16930         7.11780
     2017.82340        -0.39190         7.22834
     2017.82614         0.16649         7.34808
     2017.82887        -0.63413         7.20860
     2017.83161         7.20627         7.14412
     2017.83435         6.60767         7.10859
     2017.83709        -2.37391         7.32177
     2017.83983       -17.39151         7.16122
     2017.84257        -1.34011         7.11254
     2017.84531        -4.10971         7.10859
     2017.84804        -3.83631         7.16649
     2017.85078         3.18808         7.17833
     2017.85352         3.62648         7.22176
     2017.85626         5.86988         7.36388
     2017.85900        11.50228         7.39677
     2017.86173        10.78068         7.35466
     2017.86447         2.42808         7.16386
     2017.86721        10.22748         7.23623
     2017.86995         6.83088         7.11122
     2017.87269         5.33028         7.14807
     2017.87542        16.89868         7.07964
     2017.87816        14.52307         7.10990
     2017.88090        11.13847         7.21123
     2017.88364         4.27987         7.13622
     2017.88637        15.63127         7.20860
     2017.88911         9.74967         7.82182
     2017.89185         6.38507         7.09543
     2017.89459        14.91447         7.23360
     2017.89733        14.80787         7.17570
     2017.90006         5.51927         7.21781
     2017.90280         8.49366         7.08227
     2017.90554        15.35606         7.07832
     2017.90828         5.94946         7.08095
     2017.91102         2.77786         7.31782
     2017.91375         5.68526         7.25597
     2017.91649         9.70966         7.11254
     2017.91923        10.66106         8.19422
     2017.92197         8.16046         7.17833
     2017.92470         5.49486         7.12438
     2017.92671        -4.36772        11.30242
     2017.93685         9.97969        21.28102
     2017.93839         3.60085         7.02963
     2017.94113         2.62925         7.12438
     2017.94387         3.95165         7.03095
     2017.94661         4.31205         7.08753
     2017.94935         4.45645         7.60864
     2017.95208         4.99585         7.26387
     2017.95482         2.16224         8.08237
     2017.95716         2.97058         8.90482
     2018.02726        -1.57198        28.58831
     2018.02874         0.12102         7.03358
     2018.03148         0.79841         7.12438
     2018.03422       -10.77919         7.21649
     2018.03696        -8.05979         7.25860
     2018.03898       -11.71333        10.60893
     2018.05730        -9.28182        24.35369
     2018.05886         0.64840         7.31124
     2018.06160         0.98680         7.14412
     2018.06433         0.13620         7.24281
     2018.06707         6.19960         7.12964
     2018.06981         2.92500         7.36651
     2018.07253        -7.57564         7.22176
     2018.07529       -14.04420         7.31650
     2018.07802        -6.56280         7.24808
     2018.08076        -1.16340         7.54284
     2018.08350         0.67099         7.14280
     2018.08624        -4.97661         7.12964
     2018.08898        -4.23421         7.21518
     2018.09171         7.30519         7.42046
     2018.09445         4.23759         7.23755
     2018.09719         3.49399         7.35993
     2018.09893       -10.00131        15.09226
     2018.11199        -4.73301        17.94254
     2018.11362        -3.05362         7.20597
     2018.11635        -3.07622         7.09938
     2018.11908        -1.52986         7.23228
     2018.12182        -0.25046         7.21123
     2018.12456        -1.34905         7.15596
     2018.12730        -7.60865         7.08359
     2018.13004         3.14278         7.18096
     2018.13278         5.21216         7.47573
     2018.13552        -6.12243         7.22044
     2018.13826        -2.83403         7.12569
     2018.14099        -4.14063         7.29282
     2018.14373        -3.56023         7.09543
     2018.14647         1.55217         7.40467
     2018.14919         1.89752         7.53758
     2018.15195         8.70497         7.34282
     2018.15468         9.18337         7.22439
     2018.15742         2.81277         7.22702
     2018.16016        -3.65584         7.30861
     2018.16290        -0.07044         7.34282
     2018.16564        -3.06904         7.41520
     2018.16834        -3.20374         7.21518
     2018.17110        -2.70227         7.15991
     2018.17384        -3.56387         7.19544
     2018.17659         0.92357         7.34019
     2018.17932         0.75396         7.15333
     2018.18206         5.33436         7.47047
     2018.18480         6.13275         7.27045
     2018.18754        -0.89585         7.04279
     2018.19028        -1.71645         7.03884
     2018.19301        -1.01405         7.15728
     2018.19575         2.12735         6.93489
     2018.19849         4.86275         7.10464
     2018.20123         8.55115         7.11254
     2018.20397         5.51855         7.05595
     2018.20670         6.17395         7.03226
     2018.20944         4.73335         6.97568
     2018.21220         2.78980         7.09674
     2018.21492        -9.44686         6.92962
     2018.21765         1.77354         6.97173
     2018.22039         0.69394         6.96515
     2018.22313         6.02634         6.97305
     2018.22587       -18.75526         7.18228
     2018.22861         0.74614         7.00068
     2018.23134         1.50254         6.97963
     2018.23408         0.42694         7.11648
     2018.23682         1.52333         6.98752
     2018.23955        -2.72929         6.95726
     2018.24230         4.85113         6.99147
     2018.24503        -3.92347         7.04937
     2018.24777         1.06793         7.07306
     2018.25051         4.77633         7.08359
     2018.25325        -2.20527         6.87172
     2018.25598         1.16913         6.87435
     2018.25872        -4.40347         7.07832
     2018.26146         0.62193         7.23097
     2018.26420        -0.28468         6.98752
     2018.26694        -1.33928         7.04937
     2018.26967        -1.96088         6.99805
     2018.27241        -5.00748         7.04016
     2018.27515         4.19392         7.17307
     2018.27789         6.00432         7.14280
     2018.28062        -4.25328         7.15333
     2018.28336         1.95512         7.03621
     2018.28609        -0.76751         7.09148
     2018.28883         5.16289         7.09411
     2018.29157         5.40229         7.17438
     2018.29431        -1.61429         7.16517
     2018.29705        -2.85689         7.00068
     2018.29979        -5.11949         6.96252
     2018.30253         4.20491         7.07306
     2018.30526        -3.64170         7.07043
     2018.30801        -3.00428         6.94541
     2018.31074        -4.20589         6.87962
     2018.31348        -1.19549         6.95068
     2018.31622        -4.90710         6.91252
     2018.31897         2.55835         7.08622
     2018.32171         2.50475         7.00068
     2018.32445        -1.82785         7.02832
     2018.32719        -3.16844         6.92962
     2018.32991        -3.75210         7.06253
     2018.33169         2.03672        13.83819
     2018.33538        -1.04830         7.49678
     2018.33812         5.26010         7.16386
     2018.34086        -3.10051         7.02437
     2018.34360        -5.97911         6.95857
     2018.34633        -3.27471         7.04806
     2018.34907        -6.70031         6.93225
     2018.35181         0.31009         7.02832
     2018.35455         5.54349         7.05332
     2018.35728        -1.81511         6.96121
     2018.36002        -9.66671         6.99016
     2018.36276         1.50869         7.20465
     2018.36550        -5.45692         6.93752
     2018.36824         0.70948         6.98358
     2018.37097         0.31088         7.05595
     2018.37371         0.44128         7.19675
     2018.37645        -5.77532         7.25992
     2018.37919         1.84108         6.95594
     2018.38193        -5.25552         7.08885
     2018.38466        -1.99812         7.03095
     2018.38740        -4.06472         7.08622
     2018.39014         0.50868         7.06385
     2018.39288         6.29207         6.97831
     2018.39561         1.25447         7.17833
     2018.39835         5.99787         7.32571
     2018.40109         1.52627         7.12833
     2018.40383         3.29867         6.94410
     2018.40657         7.33007         7.07437
     2018.40930        11.57647         7.40599
     2018.41204         6.07587         7.05069
     2018.41478        -0.48173         7.03095
     2018.42299         9.93646         7.24939
     2018.42573         6.02186         7.44415
     2018.42847         1.29926         7.11912
     2018.43121         6.92566         7.16122
     2018.43394         4.75506         7.07832
     2018.43668         4.00546         7.08490
     2018.43942         9.56286         6.97173
     2018.44216        10.29326         7.08753
     2018.44491         2.53369         7.32703
     2018.44763         4.75405         7.01253
     2018.45037         4.99245         7.13754
     2018.45311         2.34185         7.12306
     2018.45585         4.53025         7.12043
     2018.45859         0.08265         7.03753
     2018.46132        -1.06295         6.95463
     2018.46406         3.26745         7.04279
     2018.46679        -1.52918         7.01121
     2018.46954         6.00824         6.99542
     2018.47227        13.11464         7.23755
     2018.47498         8.85697         7.03490
     2018.47775         4.77144         7.00726
     2018.48015        10.36993         8.36003
     2018.48428         0.30008        16.79901
     2018.48596         4.08464         6.99542
     2018.48872         5.66909         7.10332
     2018.49144         7.03744         6.97700
     2018.49418         5.95083         7.25465
     2018.49693         6.32929         7.36256
     2018.49965        13.44563         7.33229
     2018.50239         0.35303         7.40204
     2018.50511         0.23039         7.13359
     2018.50787         8.63083         7.35335
     2018.51060        10.44723         7.40072
     2018.51336        13.59767         7.68891
     2018.51608         6.21403         7.09674
     2018.51882         4.28743         7.43099
     2018.52158         7.37090         7.21386
     2018.52429         0.92822         7.34808
     2018.52700         4.18153         7.60469
     2018.52977         8.71502         7.20202
     2018.53251         9.54442         7.31650
     2018.53525         6.51282         7.06911
     2018.53798         7.29022         7.20070
     2018.54072        10.74162         6.97305
     2018.54346        11.51102         7.29018
     2018.54620        14.90741         7.09543
     2018.54893         6.79881         6.95068
     2018.55167         9.52921         7.00726
     2018.55441         9.04061         6.92436
     2018.55715         4.60801         7.26123
     2018.55989         7.77441         7.24808
     2018.56262        11.99881         6.96910
     2018.56536         7.22621         6.98226
     2018.56810         5.07861         7.07306
     2018.57084         4.70301         7.11912
     2018.57357         8.46540         7.34677
     2018.57631         4.12080         7.45073
     2018.57905         6.60320         8.17185
     2018.58179        11.41360         7.18754
     2018.58453        20.99800         7.29940
     2018.58726        17.93140         6.96384
     2018.59000         8.96580         6.96647
     2018.59274         6.83120         6.98489
     2018.59548         7.01560         6.95199
     2018.59822        14.98699         6.96647
     2018.60095         9.15639         7.10859
     2018.60369         9.43879         6.89936
     2018.60643         9.87219         6.92831
     2018.60917        17.44359         7.15070
     2018.61190        20.09799         7.19412
     2018.61464        11.68639         6.94541
     2018.61738         5.06679         6.88225
     2018.62012        11.45319         6.90199
     2018.62286        15.59959         7.00858
     2018.62559        11.07798         7.33098
     2018.62833        11.89238         6.97568
     2018.63107         9.15978         6.99805
     2018.63381        10.95718         7.12833
     2018.63655         6.58758         6.99147
     2018.63928        15.28898         7.18754
     2018.64202        17.29338         7.34019
     2018.64476        18.25678         6.95331
     2018.64750        13.35218         6.99016
     2018.65023        21.38157         7.14412
     2018.65297        14.27297         6.93094
     2018.65571        11.17737         7.00726
     2018.65845        10.34877         6.94673
     2018.66119        25.93617         7.02832
     2018.66392        19.51157         6.95726
     2018.66666        19.20597         6.94410
     2018.66940         7.71037         6.93883
     2018.67214        11.03177         7.08359
     2018.67488        10.96416         6.95726
     2018.67761        10.95256         6.92041
     2018.68035        11.56196         6.97173
     2018.68309         6.06236         7.00595
     2018.68583        19.73376         7.05332
     2018.68856        16.55316         6.92962
     2018.69130        17.58356         7.15465
     2018.69404        17.99896         7.09543
     2018.69678        15.65436         7.06779
     2018.69952        11.06476         6.93883
     2018.70225         6.86815         7.05332
     2018.70499         9.71255         7.02437
     2018.70773         8.83795         7.04674
     2018.71047         4.78635         6.92568
     2018.71321         6.27875         6.94015
     2018.71594         7.77415         6.91778
     2018.71868         4.93855         6.93489
     2018.72142         4.62195         7.02569
     2018.72416        15.68235         7.02174
     2018.72689        10.22574         6.96252
     2018.72963        10.10014         6.85725
     2018.73237         3.89054         6.88883
     2018.73511         2.52994         6.89278
     2018.73785         4.04434         6.88883
     2018.74058         6.82974         6.89936
     2018.74332        10.50314         6.89278
     2018.74606         9.12854         6.84277
     2018.74880         9.23094         7.12833
     2018.75154        10.00034         7.12306
     2018.75427        15.04273         6.97173
     2018.75701        10.01513         7.02437
     2018.75975         8.48753         6.93094
     2018.76249        11.05793         6.85856
     2018.76522         3.90633         7.00858
     2018.76796         8.26273         6.85725
     2018.77070        11.18313         6.93357
     2018.77344        10.57453         6.97436
     2018.77618        12.62993         6.94936
     2018.77891        15.40132         6.99937
     2018.78165        16.36472         7.04279
     2018.78439         5.53212         6.86383
     2018.78713         4.86952         7.05200
     2018.78987        -0.92608         7.13491
     2018.79260         1.27132         6.90199
     2018.79534        10.65672         6.93883
     2018.79808         2.78312         6.93752
     2018.80082         2.86552         7.04674
     2018.80355         6.30291         7.02437
     2018.80629        10.37931         7.21781
     2018.80903         7.45571         6.96647
     2018.81177        16.44311         7.30466
     2018.81451        14.63551         7.02042
     2018.81724        15.43191         7.05332
     2018.81998        10.57931         7.11385
     2018.82272        12.87771         7.02963
     2018.82546        21.42411         7.06911
     2018.82820        10.51651         6.98752
     2018.83093         8.64190         6.97831
     2018.83367         9.24130         6.86120
     2018.83641        21.44570         7.02832
     2018.83915         8.70810         7.02963
     2018.84188         7.47050         6.99542
     2018.84462        11.92390         6.96778
     2018.84736         7.77930         6.93225
     2018.85010         8.81670         6.93620
     2018.85284         5.61810         6.95989
     2018.85557         2.43349         6.98358
     2018.85831         2.02689         6.94936
     2018.86105         3.48029         6.96384
     2018.86379         4.67269         7.10332
     2018.86651         9.41804         6.99673
     2018.86926         6.57049         7.00331
     2018.87200         7.14089         7.05727
     2018.87474        12.36029         7.03621
     2018.87748         8.40669         7.11385
     2018.88021         8.72909         7.35993
     2018.88295         9.60548         7.17833
     2018.88569         9.58388         7.22570
     2018.88843        13.45928         7.19675
     2018.89117        14.01468         7.21386
     2018.89390        14.78008         7.15728
     2018.89664        12.35248         7.31650
     2018.89938         7.08588         7.09148
     2018.90212         8.96228         7.07043
     2018.90485        14.33868         7.14938
     2018.90759        15.21607         7.02569
     2018.91033        15.56447         6.94541
     2018.91307        14.70587         7.16517
     2018.91581        11.07827         6.94541
     2018.91854        15.98167         6.98358
     2018.92128         4.00507         6.97700
     2018.92402        10.51447         6.92568
     2018.92676        14.02687         6.84277
     2018.92950        11.15127         6.91252
     2018.93223        11.13067         7.01121
     2018.93497         8.19106         6.90594
     2018.93771        10.19646         6.94278
     2018.94035        10.59359         7.21912
     2018.94318        13.67126         6.86514
     2018.94592        18.88966         6.90594
     2018.94866        11.89706         6.93225
     2018.95140        16.20646         7.14938
     2018.95414        16.98886         6.93752
     2018.95687         7.79626         7.08753
     2018.95961        18.22565         6.89278
     2018.96235        16.09505         7.01516
     2018.96509        18.19245         6.90330
     2018.96783        12.25885         6.89278
     2018.96977        20.90112        11.25899
     2019.07594        15.32502       164.72264
     2019.07734         3.64081         6.94410
     2019.08008         7.96121         7.13885
     2019.08282         5.48461         7.21649
     2019.08555         7.37401         7.02700
     2019.08829        13.37840         6.98358
     2019.09103         7.23180         6.96384
     2019.09377         2.62820         6.95857
     2019.09650        11.96860         6.97173
     2019.09924         6.35300         6.92041
     2019.10198         0.74940         6.92041
     2019.10472         3.85980         6.91910
     2019.10746        -1.68080         6.92568
     2019.11019         3.44160         6.93752
     2019.11293         8.40799         7.11517
     2019.11567         0.93139         7.29545
     2019.11841        18.89579         7.05727
     2019.12115        18.01719         7.17833
     2019.12388        10.01959         7.14412
     2019.12662        14.66699         7.32440
     2019.12936         8.86439         6.98094
     2019.13210         4.93079         7.02042
     2019.13483         2.22219         7.07043
     2019.13757         5.82059         7.04148
     2019.14031         8.78898         7.00200
     2019.14305         7.47138         7.04279
     2019.14579         4.14078         7.02700
     2019.14852         7.13518         7.04279
     2019.15126         6.74158         6.99016
     2019.15400         4.74498         6.92436
     2019.15674         6.20938         6.93489
     2019.15948         2.02878         6.97568
     2019.16221        -7.97782         7.10990
     2019.16495         0.50757         7.05727
     2019.16769        -2.90903         6.92041
     2019.17043        -0.66963         7.06253
     2019.17316         1.02877         7.01253
     2019.17590         5.55117         7.05069
     2019.17864         8.00957         7.07701
     2019.18138         7.54397         6.99410
     2019.18412        -2.30463         7.00068
     2019.18685         3.37077         7.03490
     2019.18959         0.76717         7.01121
     2019.19233         4.67656         7.06911
     2019.19507        -1.27304         7.01647
     2019.19780        -5.71264         6.94541
     2019.20054        -0.73524         7.17702
     2019.20328        -5.00984         7.04542
     2019.20579        -8.30707         7.75076
     2019.20876        -3.66604         6.92304
     2019.21149        -3.23964         6.98752
     2019.21423         0.74676         6.97173
     2019.21697         3.97815         7.01911
     2019.21971         9.19155         9.82069
     2019.22245         1.36995         6.89146
     2019.22518        -0.55765         6.85462
     2019.22792        -0.32525         6.93225
     2019.23066         6.99315         7.12175
     2019.23340         2.60655         6.92436
     2019.23613         1.09795         7.05200
     2019.23887         1.45135         6.93094
     2019.24161        -1.56226         7.23228
     2019.24435        -2.96886         7.17307
     2019.24709        -0.00146         7.18886
     2019.24982         3.09394         6.98489
     2019.25256         4.79234         7.09938
     2019.25530         3.88474         6.95989
     2019.25804         4.48414         6.94278
     2019.26078         9.92754         6.92436
     2019.26351         5.22094         7.07569
     2019.26625         2.42834         6.93489
     2019.26899         4.15273         7.09280
     2019.27173         5.46013         7.24413
     2019.27446         4.45353         6.97042
     2019.27720         1.71793         6.99673
     2019.27994         8.23733         6.88225
     2019.28268         9.42473         6.94673
     2019.28542        11.72313         6.87962
     2019.28815         7.62153         6.94410
     2019.29089         8.93493         6.93094
     2019.29363         3.50032         6.90857
     2019.29637         9.88872         7.00858
     2019.29911         8.37512         6.97700
     2019.30184        -3.16648         6.99937
     2019.30458        -5.87208         6.94015
     2019.30732         8.26532         6.93357
     2019.31006         8.44772         7.05858
     2019.31279        -1.14988         7.09148
     2019.31553         8.52752         7.01121
     2019.31827         5.49192         6.99673
     2019.32101        -3.31069         6.86383
     2019.32375        -5.46029         6.85725
     2019.32648         3.35611         7.00858
     2019.32922         1.04351         6.90330
     2019.33196         7.07091         7.09938
     2019.33470         5.40331         7.09674
     2019.33744         0.56471         6.96121
     2019.34017         0.46911         7.10201
     2019.34291         3.97351         6.96647
     2019.34565         3.76590         7.03095
     2019.34839         3.22830         7.06253
     2019.35112        -2.53830         6.89146
     2019.35386         2.92710         6.89278
     2019.35660         5.01350         6.88488
     2019.35934        13.92290         6.94541
     2019.36208        11.87930         6.96121
     2019.36481         8.84570         6.95726
     2019.36755         5.39310         7.01384
     2019.37029         1.93850         7.01779
     2019.37303         7.73889         6.94147
     2019.37577         5.51729         7.06385
     2019.37850         3.74169         7.03490
     2019.38124         6.23409         6.96252
     2019.38398        10.08349         6.96515
     2019.38672         2.88689         7.05464
     2019.38945         3.59129         6.98226
     2019.39219         5.49369         6.92436
     2019.39493         4.78209         6.97305
     2019.39767       -10.84352         6.93225
     2019.40041         4.08888         6.89804
     2019.40314         8.23428         6.90462
     2019.40588         8.21768         6.89541
     2019.40862         7.01308         7.04148
     2019.41136         4.56448         6.94147
     2019.41410         4.31588         6.91778
     2019.41683         1.05228         7.20070
     2019.41957        20.05768         7.20860
     2019.42231         9.33407         6.99147
     2019.42505        13.49947         7.12438
     2019.42778         8.93187         7.26913
     2019.43052         8.56527         7.45467
     2019.43326         3.83867         6.91646
     2019.43600        -0.41293         6.98884
     2019.43874         2.34547         7.06648
     2019.44147         1.15387         7.25202
     2019.44421         4.64627         7.09543
     2019.44695        12.07867         7.16517
     2019.44969        16.35306         7.16517
     2019.45243         9.23546         7.04542
     2019.45516         2.78586         7.11254
     2019.45790         5.69726         7.14807
     2019.46064        11.92766         7.11648
     2019.46338        20.56106         7.58890
     2019.46611        11.30846         7.44415
     2019.46885         7.15786         7.47310
     2019.47159         9.30826         7.10859
     2019.47433         9.00865         7.39019
     2019.47707        12.00505         7.04016
     2019.47980         4.53445         7.14017
     2019.48254         7.19285         7.15991
     2019.48528        10.18925         7.35203
     2019.48802        -0.43235         7.13491
     2019.49076         0.02305         6.95726
     2019.49349         3.28945         6.94147
     2019.49623         8.99585         7.01121
     2019.49897         3.80625         7.13227
     2019.50171         1.21664         7.18491
     2019.50444         3.38804         7.27703
     2019.50718         3.25644         6.91252
     2019.50992        10.05284         7.14938
     2019.51266        10.06924         7.07306
     2019.51540         4.59564         6.96384
     2019.51813         5.50004         7.01516
     2019.52087         8.24544         7.17044
     2019.52361         6.46784         7.70075
     2019.52635        -7.34877         6.91120
     2019.52908       -12.69137         7.27045
     2019.53182        -9.12897         7.19281
     2019.53456       -10.91457         7.10990
     2019.53730       -10.05017         7.14807
     2019.54004        -2.39677         7.08622
     2019.54277         2.96863         7.44809
     2019.54551        -2.68197         7.51257
     2019.54715        -7.35555        19.68876
     2019.54979        -8.46341        21.14154
     2019.55252       -10.44304        26.16834
     2019.55525        -8.52265        24.20368
     2019.56326        17.47899       606.30535
     2019.56355       -14.03124        24.70504
     2019.56741        -2.81878         9.52724
     2019.56892       -16.29571        23.97076
     2019.57164         1.37564        28.48962
     2019.57563        -0.22258         9.45750
     2019.57713         9.81247        26.14465
     2019.58110       -10.69279        10.58656
     2019.58384       -10.17839         8.45082
     2019.58540        -0.23319        33.89146
     2019.58861        -3.41450        11.67745
     2019.59080        16.48141        28.94888
     2019.59479       -10.27079         9.01404
     2019.59638         7.35650        18.80841
     2019.60027        -2.93599         9.27722
     2019.60301       -10.81060         8.48241
     2019.60447         4.41336        36.26275
     2019.60848         1.63720         9.10878
     2019.61122       -12.18140         8.03236
     2019.61396       -11.08500         9.09957
     2019.61550         5.70716        20.39673
     2019.61823         6.66454        30.54245
     2019.62217         2.85120         8.81007
     2019.62370       -49.68167        97.13579
     2019.62634       -54.37555       124.46740
     2019.63039        -4.30561         8.75743
     2019.63586        -3.37581         9.05878
     2019.63738        10.27729        26.40784
     2019.64010        15.45065       127.13213
     2019.64328       -17.60576        18.12282
     2019.64548       -45.65381      1745.51449
     2019.64955        -9.64281         8.44293
     2019.65229        -6.16341         8.45872
     2019.65524        -5.95244         8.74296
     2019.66055        -5.54408         9.19037
     2019.66324        -8.40282         6.94936
     2019.66598        -4.46242         6.94673
     2019.66872         0.77298         7.07964
     2019.67145        -4.77062         6.89278
     2019.67419         9.26778        29.88581
     2019.67695        -7.36677         7.09017
     2019.67967        -9.71442         7.12175
     2019.68240       -13.63403         6.91383
     2019.68514        -6.63963         6.97173
     2019.68788        -7.15523         7.00989
     2019.69062        -6.87783         7.08490
     2019.69336       -19.72143         6.90330
     2019.69609        -1.11303         6.89015
     2019.69883        -2.96263         7.11517
     2019.70157        -7.70523         6.89409
     2019.70431        -5.43283         6.93489
     2019.70705         0.44156         6.94936
     2019.70978         1.22596         6.97436
     2019.71252        -8.14664         7.12438
     2019.71526        -9.55324         6.85856
     2019.71800        -7.33584         7.13359
     2019.72073        -3.52044         7.34808
     2019.72347        -3.83704         6.88488
     2019.72621         0.64136         6.98094
     2019.72895        -2.19524         7.02832
     2019.73169        -4.50285         6.98621
     2019.73442         1.68155         7.03753
     2019.73716        -3.92505         7.00463
     2019.73990        -0.14665         7.20991
     2019.74264        -9.43825         7.01121
     2019.74538        -5.23585         6.88620
     2019.74811        -0.03545         7.04016
     2019.75085        -1.12105         7.04937
     2019.75359        -4.93065         7.29545
     2019.75633        -4.32325         7.05464
     2019.75906        -0.46186         6.91515
     2019.76180        -5.46146         6.90199
     2019.76454        -3.38906         7.03358
     2019.76728         5.18634         7.34151
     2019.77002        -5.66626         7.06253
     2019.77275        -3.93786         7.23886
     2019.77549        -0.25246         9.39302
     2019.77823        -2.79106         7.09806
     2019.78097         3.86834         7.14412
     2019.78371        -0.78827         7.09017
     2019.78644        -5.86487         7.06253
     2019.78918         0.08853         7.11517
     2019.79192         6.46893         7.07174
     2019.79466         7.58633         7.34808
     2019.79739        -1.65227         7.05069
     2019.80013         0.90113         7.01384
     2019.80287        -5.89847         7.01253
     2019.80561        -2.46807         7.21123
     2019.80835        -6.60767         7.13491
     2019.81108        -3.71928         7.01253
     2019.81382         5.34112         7.09280
     2019.81656        -6.96048         7.07964
     2019.81930        -4.54508         7.06385
     2019.82203        -3.43368         7.07832
     2019.82477        -7.81428         7.15991
     2019.82751        -3.73388         7.00463
     2019.83025        -1.61648         7.14807
     2019.83299        -0.07608         7.14543
     2019.83572        -1.62969         7.07306
     2019.83846         0.56871         7.07569
     2019.84120         1.95711         7.10332
     2019.84394        -0.26149         7.27571
     2019.84668        -7.70409         7.04411
     2019.84941        -0.41669         7.09411
     2019.85215        -3.45729         7.12175
     2019.85489        -3.29289         7.18228
     2019.85763        -6.92449         7.08490
     2019.86036        -1.74910         7.10069
     2019.86310         9.13230         7.04279
     2019.86858         0.82610         7.08622
     2019.87132         1.60950         7.18228
     2019.87405        -0.78010         7.03884
     2019.87679        -6.56970         7.14280
     2019.87953         4.42570         7.04674
     2019.88227         5.02010         7.10990
     2019.88501         0.90150         7.02963
     2019.88774         4.37989         7.23886
     2019.89048         8.45729         6.94015
     2019.89322         4.71169         7.21649
     2019.89596         6.58709        21.34550
     2019.89869         5.20849         6.97436
     2019.90143         5.05089         6.93752
     2019.90417        -3.60271         7.14280
     2019.90691         2.09769         6.95726
     2019.90965         1.28009         6.99147
     2019.91238         4.03648         7.00200
     2019.91512         6.52588         7.02700
     2019.91786        19.90728         7.06121
     2019.92334         8.47408         7.01779
     2019.92607        -0.96652         7.02832
     2019.92881        -1.54312         7.00989
     2019.93155         2.33628         7.07437
     2019.93429        -0.07832         7.14149
     2019.93702         2.16808         6.99937
     2019.93976         1.98247         7.02174
     2019.94250         4.95887         7.11254
     2019.94798         1.92567         7.11648
     2019.95071        -1.30693         7.42441
     2019.95345         8.43947         7.00595
     2019.95619         4.34887         7.04016
     2019.95893         0.09227         7.11385
     2019.96167         1.91867         7.10464
     2019.96440         6.24006         7.30203
     2019.96714        -3.73954         7.20070
     2019.96988        -5.21714         7.05464
     2019.97262        -0.76774         7.28360
     2019.97535         0.00066         7.13096
     2019.97809        -5.63994         7.07832
     2019.98083        -0.79954         7.12043
     2019.98357        -2.06414         6.99805
     2019.98631         3.76526         7.21912
     2019.98904         0.04265         7.11254
     2019.99178         1.08405         7.07569
     2019.99452         5.02445         7.09543
     2019.99726         9.00985         7.15859
     2020.00273         7.93365         7.18754
     2020.00547         0.58605         7.22176
     2020.00821        -3.01655         7.29018
     2020.01095         2.57485         7.34282
     2020.01368         8.12925         7.34677
     2020.01916        -6.60596         7.13096
     2020.02190         0.11844         7.50205
     2020.02464        -0.90216         7.34019
     2020.02737         8.42224         7.11648
     2020.03285         9.44904         7.14807
     2020.03559        23.57444         6.91383
     2020.03833        26.48984         6.92699
     2020.04106        18.75023         7.14675
     2020.04380        -4.36537         7.12306
     2020.04654        -0.33897         6.93883
     2020.04928        -1.93657         6.97042
     2020.05201        27.02383         7.08227
     2020.05749        -0.78137         7.12569
     2020.06023       -11.31497         6.95594
     2020.06297        -8.31557         6.92173
     2020.06570        -5.44217         7.06648
     2020.06844        -7.52078         7.10069
     2020.07118        -3.02438         6.99805
     2020.07666       -12.63158         8.51136
     2020.07939       -14.88018        16.17395
     2020.08178        -8.73373         8.95087
     2020.08478         1.35637         9.46013
     2020.08805         0.60421        14.16059
     2020.09057        -0.28798         7.45073
     2020.09308        -2.72419         6.93752
     2020.09582        -6.84679         6.92962
     2020.09856         0.90661         7.12306
     2020.10130       -12.71599         7.04411
     2020.10677        -6.59019         7.04937
     2020.10951        -9.17479         6.95857
     2020.11225         1.23461         6.93094
     2020.11498        -3.63699         6.97042
     2020.11772        -4.52059         7.09806
     2020.12046        -8.86620         7.16780
     2020.12320       -10.55080         6.93225
     2020.12594       -12.92340         6.97042
     2020.12867         8.24400         6.96121
     2020.13141        -2.23560         7.23886
     2020.13415        -9.37220         6.93094
     2020.13689        -3.32580         7.14280
     2020.13963        -2.93340         7.11122
     2020.14236        -3.39600         6.93752
     2020.14510         0.62139         7.12569
     2020.14784        -7.85921         6.96121
     2020.15058        -8.74181         7.00331
     2020.15331       -11.86341         7.01779
     2020.15605       -12.64701         6.98358
     2020.15879        -7.14361         7.00726
     2020.16153        -0.83721         7.06121
     2020.16427         1.29319         6.96252
     2020.16700         3.40859         6.97831
     2020.16974         1.69698         6.99410
     2020.17248        -5.86862         7.35466
     2020.17522        -6.99122         7.40335
     2020.17796        -1.68482         6.94278
     2020.18069        -7.14742         6.94805
     2020.18343         6.05998         6.98884
     2020.18617        -6.08562         6.94015
     2020.18891        -6.33422         7.09017
     2020.19164        -3.13582         7.08095
     2020.19438        -8.23042         7.05990
     2020.19712        -7.78003         7.18886
     2020.19986        -9.56863         7.29808
     2020.20260       -13.59623         7.08490
     2020.20533        -8.94883         7.03753
     2020.20807        -6.22543         7.09938
     2020.21081       -11.88603         7.19939
     2020.21355        -6.97363         7.66917
     2020.21629        -8.83023         7.42441
     2020.21902        -8.37883         7.28229
     2020.22179        -7.34636         7.26913
     2020.22450        -4.36804         7.09148
     2020.22724        -3.30264         7.11780
     2020.22997        -2.89024         7.04542
     2020.23271        -4.55384         7.05727
     2020.23545        -4.85144         7.09148
     2020.23819        -9.70104         7.09938
     2020.24093       -10.31864         7.05332
     2020.24366        -6.87024         7.11912
     2020.24914       -13.32645         7.09017
     2020.25188         7.60495         7.18228
     2020.25462        -1.18165         7.07964
     2020.25735        -2.38925         7.19149
     2020.26009         0.15715         7.06385
     2020.26282        -8.32546         7.05332
     2020.26557        -6.44805         7.17044
     2020.26830        -6.94565         7.14149
     2020.27104        -9.72425         7.11517
     2020.27378        -9.90586         7.10069
     2020.27652        -9.44646         7.12043
     2020.27929       -13.02997         7.18623
     2020.28199        -9.01766         7.15596
     2020.28473       -12.47226         7.32571
     2020.28747       -19.35486         7.12043
     2020.29021       -16.43746         7.11648
     2020.29295       -11.58606         7.12569
     2020.29568        -9.73166         7.16780
     2020.29842        -3.52627         7.15465
     2020.30116        -3.92387         7.07437
     2020.30390        -1.86247         7.10859
     2020.30663        -7.52007         7.22044
     2020.30937       -13.58267         7.72049
     2020.31211       -12.64527         7.45599
     2020.31485       -10.96387         7.15728
     2020.31759        -4.83747         7.08753
     2020.32032        -9.07507         7.28229
     2020.32306        -7.76367         7.05990
     2020.32580       -15.54128         7.01384
     2020.32854        -6.22488         7.03358
     2020.33128        -8.07548         7.03358
     2020.33401        -9.45108         6.97963
     2020.33675        -6.75168         7.23623
     2020.33949       -16.07728         6.98358
     2020.34223       -17.35488         7.18491
     2020.34496       -13.94948         7.02305
     2020.34770       -16.30908         6.99410
     2020.35044       -11.86169         7.15596
     2020.35318       -15.25929         7.09543
     2020.35592       -20.18389         7.14938
     2020.35865       -12.64949         7.03884
     2020.36139        -7.62709         7.04148
     2020.36413        -7.28769         7.08885
     2020.36687       -11.67329         7.04674
     2020.36961       -12.32189         7.07964
     2020.37234       -10.53849         6.99410
     2020.37508        -9.83109         7.01253
     2020.37782        -4.30670         7.10069
     2020.38056       -12.52430         7.05464
     2020.38329        -9.16190         7.06385
     2020.38603       -11.22250         6.97042
     2020.38877       -10.07710         7.10464
     2020.39151       -12.29770         6.97305
     2020.39425       -11.99630         7.03884
     2020.39698       -14.40690         7.11385
     2020.39972       -15.30550         7.06779
     2020.40246       -13.49711         7.08622
     2020.40520       -17.31071         7.14017
     2020.40794       -16.15631         6.95857
     2020.41067        -9.07991         7.01384
     2020.41341       -12.13551         7.35203
     2020.41615       -15.14811         7.02700
     2020.41889       -11.04471         7.03490
     2020.42162        -9.57331         7.15596
     2020.42436        -7.69991         7.46915
     2020.42710       -12.45851         7.53889
     2020.42984       -17.37312         7.22965
     2020.43258        -9.00572         7.11912
     2020.43531       -12.72432         7.25992
     2020.43805       -12.36892         7.20728
     2020.44079       -14.43652         7.18623
     2020.44353       -12.54912         7.20465
     2020.44626        -9.30672         7.25597
     2020.44900        -8.58032         7.22439
     2020.45174        -8.10892         7.01779
     2020.45448        -9.47253         7.00989
     2020.45722       -12.56213         7.07174
     2020.45995        -7.49173         7.05069
     2020.46269       -16.52233         7.01911
     2020.46543       -12.85593         7.04148
     2020.46817       -10.87753         6.97305
     2020.47091        -8.33713         7.03490
     2020.47364        -8.31073         6.99016
     2020.47638        -7.79033         6.98226
     2020.47912       -13.42794         7.19939
     2020.48086        -2.86923        14.19481
     2020.48485       -15.57346         8.32976
     2020.48733        -0.50974         7.34282
     2020.49007        -4.24734         7.48362
     2020.49281       -11.21994         7.08227
     2020.49555        -3.34654         7.20202
     2020.49828        -8.05214         6.99279
     2020.50102        -6.74874         6.95331
     2020.50376       -16.36334         7.08885
     2020.50650       -13.77795         7.12569
     2020.50924       -13.08755         6.98226
     2020.51197       -14.16815         6.95331
     2020.51471        -4.53375         7.14675
     2020.51745        -7.51735         7.02437
     2020.52019       -10.84695         7.20333
     2020.52292        -8.06155         7.12833
     2020.52566       -14.25615         7.10990
     2020.52840         6.98025         7.44152
     2020.53114        -7.53836         7.11122
     2020.53388        -8.34896         7.09280
     2020.53661       -11.26656         7.16912
     2020.53935       -12.14116         7.15596
     2020.54209        -2.53576         7.23097
     2020.54483       -14.12936         7.12306
     2020.54757        -6.79496         7.06779
     2020.55030       -11.14356         7.25071
     2020.55304        -8.28916         7.11385
     2020.55578        -4.79376         7.24281
     2020.55852         0.24363         7.19939
     2020.56125        -0.92097         7.10069
     2020.56399        -8.67857         7.07437
     2020.56673       -14.68117         7.06779
     2020.56947        -6.08877         7.20202
     2020.57221        -4.50037         7.37440
     2020.57494        -7.41897         7.15333
     2020.57768       -11.13857         7.11385
     2020.58042       -14.88717         7.22702
     2020.58316       -14.23178         7.26123
     2020.58590       -10.03838         7.15201
     2020.58863        -5.05098         7.20465
     2020.59137        -9.57458         7.09543
     2020.59411        -0.07418         7.00068
     2020.59685        -4.55878         7.28624
     2020.59958         1.03362         7.43362
     2020.60232        -7.70798         7.07174
     2020.60506       -10.38658         7.10332
     2020.60780        -2.27219         7.03226
     2020.61054         2.66121         7.05464
     2020.61327        -1.96639         7.14280
     2020.61601        -5.71599         7.08227
     2020.61875        -8.00959         7.10859
     2020.62149        -9.28419         7.05858
     2020.62423       -13.01179         7.12833
     2020.62696        -8.17539         7.15465
     2020.62970        -8.68799         7.30334
     2020.63244       -10.67459         7.34940
     2020.63518        -5.49020         7.29150
     2020.63791        -8.08080         7.16122
     2020.64065        -3.50140         7.46915
     2020.64339       -11.86900         7.10464
     2020.64613        -3.41260         7.14017
     2020.64887        -2.80620         7.16912
     2020.65160        -1.19280         7.06648
     2020.65434        -3.98240         7.05332
     2020.65708        -2.13600         7.05595
     2020.65982         0.86039         7.10596
     2020.66256        -5.45121         7.11780
     2020.66529        -2.19881         7.12438
     2020.66803        -2.77041         7.10201
     2020.67077         7.33099         7.25992
     2020.67351        -7.52961         7.06779
     2020.67624        -6.13621         7.08753
     2020.67898        -6.44481         7.16122
     2020.68172        -7.69441         7.11648
     2020.68446        -9.85201         7.14543
     2020.68720        -8.65862         7.06648
     2020.68993        -4.07422         7.17438
     2020.69267        -5.37082         7.24281
     2020.69541        -4.05742         7.43625
     2020.69815        -2.10702         7.24281
     2020.70089        -2.66862         7.04411
     2020.70362        -3.38122         7.12701
     2020.70602        -4.56374         8.60479
     2020.70910        -9.21941         8.56399
     2020.71184        -7.19003         7.31519
     2020.71457        -4.11963         7.32308
     2020.71731        -4.07023         7.33493
     2020.72008        -3.24974         7.46125
     2020.72279        -7.48343         7.23755
     2020.72553        -2.90703         7.46389
     2020.72826         1.93337         7.50600
     2020.73100         4.81377         7.42704
     2020.73374         2.37117         7.15728
     2020.73648         3.01557         7.69417
     2020.73921        -6.62904         7.23492
     2020.74195        -7.11264         7.15728
     2020.74469        -7.03024         7.16386
     2020.74743        -7.83984         7.09411
     2020.75017        -8.72744         7.15070
     2020.75290        -3.75004         7.26781
     2020.75564       -10.97764         7.09280
     2020.75838        -2.30224         7.07437
     2020.76112         5.18516         7.16517
     2020.76386        -6.96145         7.03753
     2020.76659        -0.38305         7.02174
     2020.76933         0.84335         7.19675
     2020.77207        -0.05425         7.10727
     2020.77481         4.47315         7.10069
     2020.77754        12.38055         7.05464
     2020.78028         1.90595         7.15596
     2020.78302        -0.05965         7.11122
     2020.78576         6.52975         7.10859
     2020.78850        -4.88686         7.11254
     2020.79123         6.41554         7.05990
     2020.79397         6.97694         7.61390
     2020.79671         1.19034         7.11648
     2020.79945         1.07574         7.09280
     2020.80219         2.27714         7.21912
     2020.80492         3.98754         7.06516
     2020.80766         0.35894         7.05727
     2020.81040         3.04834         7.05069
     2020.81314         6.33074         6.95199
     2020.81587        -0.14887         7.03490
     2020.81861         3.58853         7.00200
     2020.82135         1.19193         7.05858
     2020.82409        -2.75867         7.05332
     2020.82683        -0.78027         7.00200
     2020.82956         3.29913         7.15465
     2020.83230         4.99153         7.07701
     2020.83504         3.91093         7.12306
     2020.83778         2.73833         6.92041
     2020.84052         4.65472         6.93094
     2020.84325         3.89612         7.08095
     2020.84599        14.11652         7.34414
     2020.84873         1.00492         6.98094
     2020.85147         1.59232         7.01253
     2020.85420         7.03772         6.89278
     2020.85694        10.90712         6.98226
     2020.85968        18.10252         6.95463
     2020.86242        19.33792         7.06648
     2020.86516        18.03332         7.23755
     2020.87063        26.93011         7.11517
     2020.87337        10.36751         7.03358
     2020.87611         9.10191         7.19544
     2020.87885         0.10731         7.22307
     2020.88158         9.69071         7.21386
     2020.88432        13.62511         7.12043
     2020.88706         5.01451         7.55468
     2020.88980         5.87291         7.20070
     2020.89253         4.89630         7.17965
     2020.89527        11.27870         7.28624
     2020.89801         6.54710         7.26913
     2020.90075        10.41950         7.04542
     2020.90349        12.18090         7.10069
     2020.90622         7.81830         7.09674
     2020.90896         7.65770         7.29808
     2020.91170         6.43110         7.54942
     2020.91444        12.17350         7.16122
     2020.91718         0.10589         7.09148
     2020.91991        -0.36871         7.09280
     2020.92265        -0.43231         7.10990
     2020.92539        -1.73891         7.13491
     2020.92813        -1.99151         7.05200
     2020.93086         1.89789         7.06516
     2020.93360         4.32229         7.08885
     2020.93634         4.96969         7.13491
     2020.93908         0.87409         7.12043
     2020.94182        -1.63651         7.05727
     2020.94455        -0.71012         7.04674
     2020.94729         0.35028         7.09148
     2020.95003         0.27668         7.07043
     2020.95277        -2.86592         7.11122
     2020.95551        14.01748         7.08095
     2020.95824        20.00288         7.14412
     2020.96098         1.04928         8.05868
     2020.96372        -6.14132         7.06779
     2020.96646         2.46608         7.17702
     2020.96919         7.34247         7.16122
     2020.97193         0.99987         6.99937
     2020.97467         1.43827         7.15596
     2020.97741         2.28567         7.15070
     2020.98015         3.45707         7.39677
     2020.98288         4.23347         7.27308
     2020.98562        24.08987         7.07174
     2020.99110        15.95767         6.94015
     2020.99384         4.58007         6.96515
     2020.99657         5.24246         6.96778
     2021.00205        10.06026         7.29676
     2021.00479         9.42166         6.91778
     2021.00752         6.67706         7.08359
     2021.01026         4.49246         6.96384
     2021.01300         6.93986         7.00200
     2021.01574         0.51426         7.19939
     2021.01848        -3.61134         6.95463
     2021.02121        -4.59695         6.93883
     2021.02395        -4.05655         6.93620
     2021.02669        -4.63215         7.14149
     2021.02943        -1.45275         6.99410
     2021.03216        -2.82035         7.02042
     2021.03490         2.84205         7.13096
     2021.03764        -5.71555         7.02700
     2021.04038        -4.40515         7.04148
     2021.04312        -2.06675         7.04806
     2021.04585        -8.08336         7.02963
     2021.04859        -4.40296         6.99542
     2021.05133        -5.75756         7.09411
     2021.05407         2.36984         7.32571
     2021.05681        -2.40476         7.14149
     2021.05954        -4.67636         7.04016
     2021.06228        -5.99596         7.00858
     2021.06502        -1.35956         7.04016
     2021.06776         1.28984         6.99016
     2021.07049        -0.18876         6.98489
     2021.07323         2.66063         6.98489
     2021.07597        -6.09697         6.98621
     2021.07871       -13.11957         7.04016
     2021.08145        -7.52317         6.97173
     2021.08418        -9.82077         6.99937
     2021.08692        -3.81037         6.94805
     2021.08966        -7.87397         6.98752
     2021.09240        -8.27057         6.98884
     2021.09514        -2.38917         7.20991
     2021.10061        14.16562         7.10069
     2021.10335        18.08502         7.09280
     2021.10609        -4.27658         6.96384
     2021.10882        -5.35818         7.07569
     2021.11156        -7.15678         6.98752
     2021.11430        -9.83238         6.99673
     2021.11704        -5.66598         7.00858
     2021.11978        -4.64458         6.97831
     2021.12251        -6.23618         7.05464
     2021.12525        -0.64079         7.01647
     2021.12799        12.09661         6.96647
     2021.13073         4.66901         6.94410
     2021.13347        10.18541         7.04937
     2021.13620        14.30881         7.13622
     2021.13894         7.78221         7.01121
     2021.14442         6.51601         6.99279
     2021.14715        -0.24659         7.03358
     2021.14989        -6.67920         7.03358
     2021.15263        -5.48280         7.21386
     2021.15537        -1.40840         7.09938
     2021.15811        -2.47600         7.37440
     2021.16084        -1.94760         7.21386
     2021.16358        -4.42420         7.27308
     2021.16632        -5.25280         7.33624
     2021.16906        -0.83140         7.06911
     2021.17180        -6.33900         6.97173
     2021.17453        -6.37160         7.16649
     2021.17727        -1.17321         7.21649
     2021.18001        -5.83181         7.20070
     2021.18275        -7.62641         7.45336
     2021.18548        -7.07801         7.05727
     2021.18822        -6.98161         7.02305
     2021.19096        -2.20721         7.06648
     2021.19370        -5.17281         7.15070
     2021.19644        -9.52341         7.03095
     2021.19917        -8.75201         7.07569
     2021.20191        -5.09062         6.97173
     2021.20465        -5.25322         7.05727
     2021.20739        -8.10582         7.02832
     2021.21013        -5.47142         7.22439
     2021.21286        -8.22202         7.28229
     2021.21560         1.07738         7.07043
     2021.21834        -3.96122         7.14543
     2021.22108         0.17218         7.07437
     2021.22381       -11.66842         7.07043
     2021.22655        -4.42003         7.22702
     2021.22929        -2.35263         7.10596
     2021.23203         1.11177         7.07569
     2021.23477        -9.14983         7.01647
     2021.23750        -7.73343         7.05595
     2021.24024        -4.55403         7.06385
     2021.24298        -7.59863         7.04937
     2021.24572        -8.59423         7.05595
     2021.24846       -11.02683         7.19544
     2021.25119        -6.35843         7.02437
     2021.25393        -4.51304         7.22307
     2021.25667        -5.94464         7.04411
     2021.25941        -6.71924         7.05858
     2021.26214        -6.36184         7.13885
     2021.26488        -3.40944         7.00858
     2021.26762        -0.52204         7.17307
     2021.27036         0.45136         7.34808
     2021.27310         0.92976         7.10990
     2021.27583        -7.42784         7.02437
     2021.27857       -12.46545         7.11385
     2021.28131       -19.17805         7.15859
     2021.28405       -11.38665         7.14149
     2021.28679       -12.14225         7.21518
     2021.28952        -5.77985         7.43625
     2021.29226       -10.18445         7.15728
     2021.29500        -6.19505         7.12438
     2021.29774       -13.08665         7.62838
     2021.30047        -4.51425         7.19281
     2021.30321        -2.54385         7.14543
     2021.30595        -2.09246         7.42441
     2021.30869         2.91794         7.33098
     2021.31143        -4.74066         6.99016
     2021.31416         0.80874         7.02437
     2021.31690        -1.44686         7.04542
     2021.32021        -3.23692         9.89833
     2021.32295        -7.87652         9.71542
     2021.32569        -9.97712         9.29696
     2021.32842        -9.60172         9.39565
     2021.33116        -1.98232         9.31275
     2021.33390         0.32007         9.24695
     2021.33664        -5.53353         9.39434
     2021.33937        -6.18213         9.35749
     2021.34211       -13.99773         9.30485
     2021.34485        -9.75133         9.51014
     2021.34759       -13.71893         9.54040
     2021.35033        -4.14953         9.82333
     2021.35306        -8.89713         9.37197
     2021.35580        -9.32773         9.44039
     2021.35854        -8.88033         9.42592
     2021.36128       -15.95594         9.38249
     2021.36402       -17.50454         9.43513
     2021.36653       -17.83975         8.36003
     2021.36892       -19.24228         7.07832
     2021.37166       -10.12088         7.04674
     2021.37440        -2.07248         7.08227
     2021.37770       -11.21554         9.56014
     2021.38044        -4.31014         9.80754
     2021.38318       -11.80074        10.18915
     2021.38592        -2.70735         9.85359
     2021.38866       -14.58295         9.58251
     2021.39214       -23.81954       120.47359
     2021.39413        -6.99215         9.50619
     2021.39687       -10.22675         9.45750
     2021.39938        -9.24397         8.31792
     2021.40177         0.77751         7.23755
     2021.40451        -1.27109         7.45599
     2021.40782       -14.14215         9.62331
     2021.41056       -14.15375         9.56277
     2021.41330        -7.29136         9.70621
     2021.41603        -8.50796         9.54962
     2021.41877       -14.39756         9.58778
     2021.42151       -10.08416         9.68384
     2021.42425        -3.98676         9.78516
     2021.42699        10.75964        10.12730
     2021.42972         1.04804         9.58383
     2021.43246        -1.24056         9.60225
     2021.43520       -10.18816         9.53909
     2021.43794       -10.74577         9.67989
     2021.44068        -2.71837         9.67726
     2021.44341       -10.50297         9.51014
     2021.44615       -14.72457         9.73253
     2021.44889        -5.93117         9.62725
     2021.45163        -9.79677         9.82859
     2021.45436        -0.93537         9.97860
     2021.45710       -13.01397         9.73779
     2021.45984        -3.49357         9.47198
     2021.46258       -11.26418         9.42197
     2021.46528        -9.25287         9.73121
     2021.46805        -8.49738         9.41276
     2021.47079       -13.92998         9.56541
     2021.47353        -3.43958         9.92070
     2021.47627        -7.85518         9.63120
     2021.47901        -9.69478         9.50487
     2021.48174       -17.32938         9.42724
     2021.48448       -14.55798         9.49961
     2021.48722        -5.94458         9.54567
     2021.48996        -9.46319         9.63647
     2021.49269       -14.72379         9.49698
     2021.49520        -8.56000         8.39950
     2021.49817       -12.81399        10.21547
     2021.50091       -22.25659        10.07072
     2021.50365       -15.31319         9.61015
     2021.50638       -16.54079         9.75885
     2021.50912       -15.69539         9.71411
     2021.51186       -11.78099        10.12336
     2021.51458        -2.54065         9.94044
     2021.51733        -9.92420         9.84307
     2021.52007       -12.27880        10.04440
     2021.52281       -10.08640         9.74700
     2021.52555        -9.17600         9.72595
     2021.52829       -13.75760         9.66673
     2021.53102        -1.06520         9.82596
     2021.53376        -7.86080         9.64173
     2021.53650        -8.38540         9.86544
     2021.53924         0.77200        10.20626
     2021.54198        -8.03761         9.67200
     2021.54471       -14.79421         9.72990
     2021.54745        -5.49281         9.65884
     2021.55019        -5.66541         9.81017
     2021.55293        -8.70101         9.96413
     2021.55566         7.17739         9.80622
     2021.55840        -6.90721         9.85359
     2021.56114        -6.78581         9.64568
     2021.56388         1.90959         9.50487
     2021.56605        -1.09256         7.17438
     2021.56878        -5.46716         7.47441
     2021.57152        -7.01676         7.49284
     2021.57426       -11.36336         7.36124
     2021.57700         1.56304         7.95209
     2021.57974       -18.48856         7.27045
     2021.58247       -12.27216         7.29676
     2021.58521        -7.53476         7.39414
     2021.58795       -10.42037         7.38756
     2021.59069       -10.27397         7.40862
     2021.59342        -8.16657         7.42441
     2021.59616         0.25683         7.47441
     2021.59890        -7.78377         7.43888
     2021.60164        16.19463         7.68496
     2021.60438         1.49703         7.34019
     2021.60711         6.72043         7.28624
     2021.60985         5.20783         7.33624
     2021.61259        -1.10877         7.39677
     2021.61533        -7.69138         7.25202
     2021.61807        -2.63698         7.25992
     2021.62080        -2.31458         7.29808
     2021.62354         4.59782         7.29808
     2021.62628         1.89022         7.28097
     2021.62902        -3.76838         7.31519
     2021.63175        -4.39398         7.43757
     2021.63449         2.96042         7.69680
     2021.63723        -6.43218         7.77313
     2021.63997         2.29521         7.62311
     2021.64271         2.56361         7.59679
     2021.64544        -3.17299         7.42046
     2021.64818        -1.00059         7.31519
     2021.65092         1.36581         7.43625
     2021.65366        -0.85279         7.42704
     2021.65639        -3.55739         7.27045
     2021.65913        -2.12899         7.28624
     2021.66187         2.27841         7.27176
     2021.66461         2.63380         7.29808
     2021.66735         4.16020         7.22439
     2021.67008        -3.20440         7.54416
     2021.67282         3.50400         7.59021
     2021.67556         5.33540         7.70338
     2021.67830         4.49980         7.71523
     2021.68104         9.96720         7.46652
     2021.68377         2.56960         7.26123
     2021.68651         2.47200         7.31650
     2021.68925         4.48140         7.46389
     2021.69134        -0.23495         9.77859
     2021.69482         1.64745         7.85471
     2021.69746        -3.33541         7.29676
     2021.70020        -4.17401         7.64943
     2021.70294         0.71139         7.46257
     2021.70568        15.33979         7.72575
     2021.70841         2.77819         7.53231
     2021.71115         6.00559         7.38625
     2021.71389         5.01599         7.44678
     2021.71663         4.01538         7.59285
     2021.71937        -1.14522         7.47968
     2021.72210        -6.41482         7.53495
     2021.72484        -2.23742         7.34414
     2021.72758        -3.44502         7.37309
     2021.73032        -6.55362         7.76655
     2021.73305         1.49978         7.37572
     2021.73579         9.05418         7.55337
     2021.73855        12.34063         7.70470
     2021.74127         4.83098         7.39283
     2021.74401         5.65837         7.38230
     2021.74674         6.68477         7.62969
     2021.74948         4.06217         7.69812
     2021.75222        -0.73043         7.53626
     2021.75496         2.22197         7.44941
     2021.75706         6.95965        10.09835
     2021.76043         8.91877         7.35861
     2021.76317         8.04317         7.49678
     2021.76591         5.02157         7.77444
     2021.76865         5.74696         7.54416
     2021.77138         3.98536         7.39809
     2021.77412        14.84376         7.45599
     2021.77686         7.98116         7.44020
     2021.77960         7.00556         7.45336
     2021.78234         9.01396         7.42178
     2021.78507        11.98636         7.37177
     2021.78781        11.71076         7.36388
     2021.79055         5.58816         7.36519
     2021.79329         4.95756         7.36519
     2021.79603         5.00995         7.35598
     2021.79876         5.16735         7.31913
     2021.80150        15.33575         7.56653
     2021.80424         5.61915         7.59679
     2021.80698         7.07955         7.34545
     2021.80971         6.76395         7.51257
     2021.81245        17.01835         7.47441
     2021.81519        15.02975         7.29808
     2021.81793        14.71815         7.35730
     2021.82067        14.74654         7.46389
     2021.82340        12.40194         7.66785
     2021.82614         8.50734         7.50205
     2021.82888         5.71274         7.34545
     2021.83162        12.52414         7.42046
     2021.83436        13.34454         7.42967
     2021.83709         6.86194         7.52310
     2021.83983        -3.46566         7.44941
     2021.84257         2.24874         7.50205
     2021.84531         6.41213         7.45731
     2021.84804         5.34753         7.47704
     2021.85078        10.04793         7.42836
     2021.85352         4.80333         7.41388
     2021.85626        10.97373         7.32835
     2021.85900         4.92313         7.28755
     2021.86447         8.02093         7.62838
     2021.86721         9.97533         7.76918
     2021.86995        13.66473         7.80734
     2021.87269        22.60412         7.59943
     2021.87542         9.90552         7.85998
     2021.87816         8.46392         7.25465
     2021.88090         6.56032         7.30203
     2021.88911       -14.01148         7.35993
     2021.89185         1.64092         7.33624
     2021.89459         3.98332         7.34282
     2021.89733         3.22171         7.34151
     2021.90006        -0.72189         7.33624
     2021.90280        -1.83649         7.48231
     2021.90554         0.56791         7.31913
     2021.90828        16.91531         7.40862
     2021.91102        16.40571         7.38098
     2021.91375         4.99711         7.37572
     2021.91649         8.08451         7.42836
     2021.91923        15.25391         7.54152
     2021.92197         3.49631         7.70733
     2021.92470         8.41870         7.43362
     2021.92744        16.26310         7.53758
     2021.93018         9.47350         7.45599
     2021.93292        26.51990         7.53626
     2021.93839        20.41870         7.50073
     2021.94113        17.43210         7.84945
     2021.94661         9.79690         7.40072
     2021.94935        11.83629         7.37835
     2021.95208        16.73769         7.43625
     2021.95482        14.89609         7.35993
     2021.95756        15.36049         7.40204
     2021.96030        12.66589         7.39941
     2021.96281        10.60967         8.08237
     2021.96851         7.03909         7.37572
     2021.97126        13.51252         7.52047
     2021.97399         1.47188         7.56258
     2021.97946        19.15968         7.37835
     2021.98220        12.62208         7.43099
     2021.98494        23.52348         7.41388
     2021.98767        21.28388         7.41125
     2021.98966        21.96524        10.77210
     2022.02345        -0.50945         8.47319
     2022.02600        -6.03454         7.52442
     2022.02874        -5.74914         7.43625
     2022.03148       -12.78174         7.44283
     2022.03422       -11.20634         7.42178
     2022.03696        -8.01394         7.38361
     2022.03969       -12.29854         7.93762
     2022.04243        -1.98614         7.36914
     2022.04517         2.20326         7.46520
     2022.04791         0.06466         7.38756
     2022.05065        -3.49894         7.37704
     2022.05338        -2.80455         7.41388
     2022.05612       -10.02415         7.40072
     2022.05886       -11.37075         7.33098
     2022.06160        -6.45635         7.35993
     2022.06433        -1.52095         7.35335
     2022.06707        -4.71055         7.39941
     2022.06981         2.66085         7.35993
     2022.07255       -10.10875         7.15333
     2022.07529        -2.03535         7.14543
     2022.07802         1.36704         7.20597
     2022.08076         4.08644         7.19675
     2022.08350         5.52484         7.37309
     2022.08624         2.41024         7.20202
     2022.08898         0.91764         7.11780
     2022.09171         0.01204         7.18886
     2022.09445         0.71344         7.23886
     2022.09719        -6.22016         7.26650
     2022.09993       -10.24676         7.45599
     2022.10266        -2.16037         7.39151
     2022.10540         0.68403         7.14017
     2022.10814         2.15943         7.19149
     2022.11088         4.70983         7.35203
     2022.11362        -0.54077         7.22044
     2022.11635         1.59663         7.17175
     2022.11909         1.77303         7.13096
     2022.12183         4.04143         7.18754
     2022.12457         2.03783         7.44809
     2022.12731        -0.93877         7.27834
     2022.13004        -2.00538         7.21255
     2022.13278         2.12602         7.23755
     2022.13552         0.91842         7.17175
     2022.13826        13.67182         7.33361
     2022.14099         3.13722         7.23228
     2022.14373        -9.43538         7.19939
     2022.14647         0.70502         7.16254
     2022.14921         3.96142         7.40204
     2022.15195        -1.03418         7.45994
     2022.15468         1.66121         7.16780
     2022.15742         2.57461         7.21649
     2022.16016        -1.46699         7.69943
     2022.16290         1.44241         7.17307
     2022.16564        -1.40819         7.32440
     2022.16837        -4.75579         7.22570
     2022.17111        -3.56839         7.22176
     2022.17385         1.89001         7.24018
     2022.17659        -3.95159         7.14280
     2022.17932        -2.67719         7.14938
     2022.18206        -7.21580         7.23886
     2022.18480        -5.09840         7.22702
     2022.18754         0.87500         7.30729
     2022.19028        -1.41660         7.30466
     2022.19301         2.57880         7.11254
     2022.19575        11.54120         7.25202
     2022.19849        -3.09440         7.32703
     2022.20123        -0.19300         7.24413
     2022.20397         6.85340         7.26913
     2022.20670         0.41779         7.37572
     2022.20944        -1.42781         7.30466
     2022.21218         0.36959         7.26387
     2022.21492        -0.51301         7.29413
     2022.21765        -6.85061         7.18360
     2022.22039        -5.76721         7.20333
     2022.22313        -4.01881         7.14938
     2022.22587        -5.48841         7.34677
     2022.22861        -2.81801         7.37572
     2022.23134        -0.28161         7.20333
     2022.23408         0.24378         7.21912
     2022.23682        -1.41482         7.40862
     2022.23956        -4.30142         7.23492
     2022.24230        -1.24701         8.28897
     2022.24504         0.67739        11.98538
     2022.24778         5.11279        11.31031
     2022.25051        -5.37481         8.73638
     2022.25325        -1.46142         7.70470
     2022.25598         3.98998         7.33361
     2022.25872         8.99437         7.31519
     2022.26146        -2.65823         7.25071
     2022.26420        -6.14583         7.30071
     2022.26694        -7.35243         7.49020
     2022.26967         1.34397         7.25860
     2022.27241        15.57137         7.30466
     2022.27515        -2.09723         7.39677
     2022.27789        -3.90383         7.29808
     2022.28062        -4.31443         7.28097
     2022.28336        -1.88004         7.21518
     2022.28610         1.07536         7.37309
     2022.28884        -6.07224         7.28097
     2022.29158         7.34916         7.28755
     2022.29431        -2.31244         7.18754
     2022.29705        -1.45604         7.20465
     2022.29964         2.55596         7.53758
     2022.30253        -1.92123        11.38795
     2022.30531        -3.37272         7.55468
     2022.30800        -5.27644         7.21781
     2022.31074        -2.20805         7.21781
     2022.31348        -4.31765         7.30861
     2022.31622        -8.15325         7.34677
     2022.31895       -16.70685         7.50600
     2022.32169        -1.83245         7.49810
     2022.32443        -1.12305         7.21912
     2022.32717       -11.16265         7.18754
     2022.32991        -7.84625         7.16912
     2022.33264       -13.63385         7.41914
     2022.33538        -5.21446         7.55863
     2022.33812        -1.35106         7.66654
     2022.34086        -4.55566         7.24018
     2022.34360        -1.96126         7.28624
     2022.34633        -4.73886         7.29413
     2022.34907        -0.95046         7.19281
     2022.35181         5.23394         7.30861
     2022.35455         0.10634         7.30598
     2022.35728        -8.14226         7.16517
     2022.36002        -3.27886         7.22965
     2022.36276        -6.67847         7.26913
     2022.36550        -3.13107         7.32177
     2022.36824        -6.40667         7.28097
     2022.37097        -8.06227         7.23360
     2022.37371       -11.55987         7.22965
     2022.37645        -9.77547         7.18360
     2022.37919         0.02293         7.55600
     2022.38193        -9.98867         7.50336
     2022.38466       -10.67727         7.16386
     2022.38740       -22.64288         7.15596
     2022.39014       -10.36548         7.18754
     2022.39288       -10.45708         7.34019
     2022.39561       -11.01568         7.28624
     2022.40109        -8.43288         7.38888
     2022.40383        -3.18648         7.21386
     2022.40657        -4.76308         7.23886
     2022.40930       -14.66368         7.35861
     2022.41204       -11.61629         7.34151
     2022.41478       -11.54889         7.19675
     2022.41752        -9.66849         7.38361
     2022.42026       -12.09309         7.41914
     2022.42299       -12.10869         7.25729
     2022.42573       -11.71529         7.28229
     2022.42847        -5.32289         7.37440
     2022.43121       -12.10049         7.44678
     2022.43394        -2.22409         7.42967
     2022.43668        -6.10669         7.32571
     2022.43942        -6.64330         7.26387
     2022.44216         2.02410         7.66917
     2022.44490        -3.29750         7.68628
     2022.44763        -5.06010         7.25597
     2022.45037       -13.19470         7.18886
     2022.45311       -11.32930         7.12569
     2022.45585       -11.40090         7.21123
     2022.45859       -10.79250         7.55995
     2022.46132       -10.69310         7.32308
     2022.46406       -11.48771         7.18886
     2022.46680        -8.99331         7.19412
     2022.46954       -11.81091         7.25729
     2022.47227       -18.54851         7.30729
     2022.47501        -3.34311         7.46652
     2022.47775       -13.47571         7.50863
     2022.48049       -13.04631         7.19412
     2022.48323        -5.73391         7.25071
     2022.48596        -7.64551         7.30729
     2022.48870       -10.74911         7.26913
     2022.49144         0.14628         7.42178
     2022.49418       -11.19332         7.46652
     2022.49692       -19.12592         7.27308
     2022.49965       -14.07452         7.32177
     2022.50239       -22.10112         7.70601
     2022.50513        -4.36872         7.67706
     2022.50787        -0.65832         7.53231
     2022.51060       -13.49792         7.51257
     2022.51334       -14.25152         7.41388
     2022.51608       -13.42213         7.30861
     2022.51882       -15.01573         7.24413
     2022.52156        -6.87533         7.26255
     2022.52429       -10.99793         7.19017
     2022.52703        -9.23553         7.28887
     2022.52977         6.22087         7.45862
     2022.53251        -5.20073         7.55863
     2022.53525       -10.95933         7.57574
     2022.53798        -6.99193         7.27571
     2022.54056        -4.55997         7.75734
     2022.54359        -2.49779         8.10211
     2022.54620        -3.23274         7.26387
     2022.54893         1.31566         7.37046
     2022.55167         0.66106         7.33756
     2022.55441        -1.18654         7.33098
     2022.55715         1.27986         7.28887
     2022.55989       -12.93374         7.43230
     2022.56262        -6.15034         7.41125
     2022.56536       -17.27094         7.25465
     2022.56810        -8.49555         7.32703
     2022.57084        -6.60715         7.27966
     2022.57357        -1.05075         7.63890
     2022.57631        -3.59235         7.28229
     2022.57905        -4.22195         7.30729
     2022.58179        -2.10755         7.22570
     2022.58453         1.47085         7.46652
     2022.58726        -0.27475         7.23228
     2022.59000        14.38365         7.55468
     2022.59274        -4.24396         7.46125
     2022.59548        -7.87256         7.21386
     2022.59822        -5.59016         7.16780
     2022.60095       -15.14176         7.22307
     2022.60369        -7.76836         7.18360
     2022.60643        -5.79496         7.21649
     2022.60917        -6.20056         7.51257
     2022.61190         2.28984         7.88366
     2022.61464         6.26724         7.53495
     2022.61738         3.14364         7.14675
     2022.62012        -8.65897         7.16780
     2022.62286        -4.30857         7.19281
     2022.62559        -3.97817         7.21386
     2022.62833        -2.65077         7.24281
     2022.63107        -1.42737         7.28887
     2022.63381         9.32903         7.30334
     2022.63655         2.49343         7.29545
     2022.63928         1.99683         7.25202
     2022.64202        -1.54277         8.24028
     2022.64476         1.48162         7.79155
     2022.64750        -3.02798         7.41651
     2022.65023        -1.35758         7.46389
     2022.65297        12.82682         7.55468
     2022.65571         6.37322         7.43362
     2022.65845         4.87362         7.23097
     2022.66119         4.75002         7.21255
     2022.66392         1.49642         7.18096
     2022.66666        14.15182         7.38756
     2022.66940         1.91122         7.15859
     2022.67214         8.31061         7.19544
     2022.67488         4.25401         7.22570
     2022.67726        10.75245         8.51925
     2022.68059         5.70747         8.04421
     2022.68309         9.37821         7.22965
     2022.68583         7.16661         7.41388
     2022.68856        10.01701         7.24018
     2022.69130         4.84041         7.18886
     2022.69404         6.87381         7.21123
     2022.69678         6.88320         7.24544
     2022.69952        -0.90740         7.29676
     2022.70225         8.57300         7.48231
     2022.70499        -0.10460         7.39151
     2022.70773         6.75980         7.34414
     2022.71047         9.13920         7.18228
     2022.71321        12.07860         7.19412
     2022.71868        11.27040         7.13096
     2022.72142         8.50479         7.25597
     2022.72416         9.91719         7.47047
     2022.72689        17.20959         7.35203
     2022.72963         9.24299         7.21386
     2022.73238         1.58840         7.16122
     2022.73511         3.02479         7.25597
     2022.73785         7.41719         7.31913
     2022.74058        11.02059         7.45862
     2022.74332        20.29499         7.77181
     2022.74606         8.62339         7.40599
     2022.74880        -2.40922         7.22044
