# ================= DQRFIT RESULTS ================
# INPUT FILE: series/SACH.rad
# OUTPUT: LDETRENDED
# FILTER FUNCTION: f(t)
# f(t)=+line(t)
# line(t)=+P 1+P 2*t
# heav(t)=(t<0?0:1)
# TOTAL OBSERVATIONS MTOT=  604
# INITIAL TIME INTERVAL= 2016.4816 - 2014.5818 =  1.8998
# TOTAL OBSERVATIONS AFTER PREFILTER M=  602
# TIME-SPAN= 2016.4816 - 2014.5818 =  1.8998
# OBSERVATIONS: USED M=   602 REJECTED MTOT-M=     2 %USED=   99.6689
# N=  2 PARAMETERS
# MAXSIG= 175.00000
# MAXRES=  35.55116
# SCALE FACTOR FOR LENGTHS: SCL=  10.00000
# SCALE FACTOR FOR SIGMAS: SCLSIG=   1.00000
# CHI^2=   1078.194 DOF=   600 CHI^2/DOF=   1.79699
# RMS=      7.949 SDEV=      7.953 MEAN=    0.20003
#  P #       PARAMETER +-    SIGMA %error PARAMETER NAME
# P 1 =      3455.38444 +- 1208.739  34.98 YZERO                              
# P 2 =        -1.71405 +-    0.600  34.99 SLOPE                              
#       T            LDETRENDED       SIG_OBS
     2014.58179        -3.51031         7.61548
     2014.58453        -2.91361         7.75356
     2014.58726        -3.84292         7.66106
     2014.59000        -2.60623         7.52969
     2014.59274         4.85347         7.57661
     2014.59548        -4.05584         7.39966
     2014.59822        -4.26715         7.58331
     2014.60095         3.22654         7.62889
     2014.60369        -2.03876         7.52031
     2014.60643        -7.84807         7.51092
     2014.60917        -4.13738         7.67179
     2014.61190         8.47632         7.67447
     2014.61464         1.47901         7.47741
     2014.61738        -4.56530         7.72541
     2014.62012         5.57539         7.60610
     2014.62286         4.11709         7.60476
     2014.62559        -7.06522         7.39028
     2014.62833         8.98647         7.67179
     2014.63107        12.72316         7.67715
     2014.63381         5.68786         7.74954
     2014.63655         9.93855         7.70664
     2014.63928         0.15024         7.70798
     2014.64202        -2.75706         7.58867
     2014.64476         3.83363         7.76562
     2014.64750        -1.22368         7.55784
     2014.65023         3.69101         7.62755
     2014.65297         1.69371         7.56186
     2014.65571        12.69840         7.79511
     2014.65845        19.02909         7.73077
     2014.66118         2.89778         7.73881
     2014.66392        10.98948         7.68117
     2014.66606        12.99214        10.29786
     2014.67020        12.55324        13.50840
     2014.67214         5.24456         7.62889
     2014.67488         2.24725         7.54846
     2014.67761        -3.60506         7.45462
     2014.68035        -3.05636         7.38358
     2014.68221        -0.93818        13.00839
     2014.68661        -1.65863        12.53519
     2014.68856        -7.34829         7.62755
     2014.69130         1.81641         7.67983
     2014.69368        -3.18152         8.34071
     2014.73237         6.67180         8.99756
     2014.73511        -1.12451         9.09274
     2014.73785        -1.81282         7.64095
     2014.74058        -1.75012         7.83935
     2014.74332         9.45557         8.00021
     2014.74606         5.46326        13.72289
     2014.74880         0.77496         7.53908
     2014.75154         3.50065         7.74954
     2014.75427        -0.35966         7.84203
     2014.75701         2.79703         7.68385
     2014.75975         1.08673        11.21478
     2014.76249        -0.43558         7.58465
     2014.76522         3.19611         7.47741
     2014.76791         2.41571         7.91040
     2014.77002        -4.91467        10.17319
     2014.79277         1.42733         8.05920
     2014.79534        10.80673         7.63961
     2014.79808         0.34843         7.89699
     2014.80082         9.51912         7.59270
     2014.80355         7.55881         7.82058
     2014.80629        10.19850         7.93587
     2014.80903        10.45020         7.99083
     2014.81177        -2.17311        20.37320
     2014.81337        -0.70036        18.68146
     2014.82078         9.84333        13.12770
     2014.82272        16.91466         8.04445
     2014.82546         8.70835         7.71200
     2014.82820        -1.51695         7.60476
     2014.83093         0.04174         7.49216
     2014.83367        -4.74257         7.52835
     2014.83641        -5.00087         7.56320
     2014.86105       -11.00163         7.47875
     2014.86379        -1.83095         7.41843
     2014.86653         0.65375         7.56186
     2014.86926        -2.00756         7.48009
     2014.87200        -0.37787         7.58465
     2014.87474        -5.45617         7.39966
     2014.87748        -5.83948         7.42647
     2014.88021         0.03721         7.52299
     2014.88295         3.15590         7.55248
     2014.88569         5.96260         8.26698
     2014.88843         2.21829         7.85812
     2014.89117        11.13198         7.90102
     2014.89390        10.07968         7.95732
     2014.89664         0.95437         7.78573
     2014.89938        -5.65294         7.78439
     2014.90212        -9.04125         7.87420
     2014.90485         6.86545         8.00155
     2014.90759       -16.43386         9.67988
     2014.91033         1.86783         7.59538
     2014.91307        -0.57148         7.54846
     2014.91581        -3.94478         7.48545
     2014.91854        -2.20709         7.36213
     2014.92128        -5.51540         7.33129
     2014.92402         2.17730         7.36615
     2014.92676         0.28699         7.72809
     2014.92950        -3.23132         8.20263
     2014.93223       -10.21463         7.33398
     2014.93497       -15.36593         7.68251
     2014.93771       -12.40124         7.75222
     2014.94045        -3.72655         7.58331
     2014.94318         1.03115         7.53505
     2014.94593         4.57885         8.34339
     2014.94866       -12.67447         7.30851
     2014.95140       -12.44478         7.20261
     2014.95414        -7.23808         7.44524
     2014.95687        -0.31239         7.32325
     2014.95961        -0.03370         7.34202
     2014.96235        -6.67000         7.52969
     2014.96509         1.05869         7.55516
     2014.96783        -4.08462         7.35676
     2014.97056        -1.99293         7.76830
     2014.97330        -1.01223         7.50690
     2014.97604        -7.32754         7.42781
     2014.97878        -4.97585         7.27231
     2014.98151        -7.22915         7.42781
     2014.98425       -11.07546         7.41039
     2014.98699        -9.06277         7.40636
     2014.98973        -8.52808         7.37955
     2014.99247       -10.86638         7.65034
     2014.99520       -12.27169         7.45596
     2014.99794        -5.84700         7.31655
     2015.00068        -5.77631         7.35140
     2015.00342        -7.16861         7.40234
     2015.00616       -16.69092         7.27499
     2015.00889       -11.19923         7.41173
     2015.01163        -5.14553         7.51226
     2015.01437       -10.60384         7.73881
     2015.01711        -4.50615         7.84739
     2015.01984        -7.91946         7.46803
     2015.02258        -9.82276         7.52969
     2015.02532        -5.36407         7.41977
     2015.02806        -6.23538         7.62219
     2015.03080        -7.59168         7.40234
     2015.03353       -13.19499         7.36347
     2015.03627       -15.89930         7.32727
     2015.03815       -18.46507        11.54320
     2015.04793         3.81868        11.57135
     2015.04996         3.24017         7.49886
     2015.05270       -12.81114         7.21467
     2015.05544       -15.26945         7.31119
     2015.05817        -8.78076         7.44658
     2015.06091        -4.61506         7.55382
     2015.06365         2.96463         7.66240
     2015.06639        -6.35568         7.52165
     2015.06913       -12.48698         7.34738
     2015.07186       -10.62129         7.51629
     2015.07460        -6.54860         7.45596
     2015.07734        -9.36391         7.61548
     2015.08008       -19.07021         7.40905
     2015.08282       -13.32252         7.33129
     2015.08555        -1.98383         7.44658
     2015.08829        -1.46913         7.44122
     2015.09103         2.44656         7.58733
     2015.09377        -2.37775         7.35274
     2015.09650        -2.13906         8.23749
     2015.09924        19.25764        11.79254
     2015.10198         7.06733        12.26976
     2015.10472         1.45902         7.37955
     2015.10746        -0.24929         7.40905
     2015.11019       -10.43759         7.60074
     2015.11293       -11.08190        19.75254
     2015.11567         2.03479         7.51226
     2015.11841        -8.49251         7.34202
     2015.12115         1.20018         7.90236
     2015.12388        -8.79613         7.30583
     2015.12662        -9.20944         7.35542
     2015.12936        -3.60974         7.35140
     2015.13210        -4.99705         7.35676
     2015.13483        -8.39136         7.36213
     2015.13757        -2.81566         7.31923
     2015.14031        -5.26597         7.31789
     2015.14305        -6.78528         7.28840
     2015.14579        12.02841         9.75093
     2015.14852        -3.79889         7.31655
     2015.15126       -10.65820         7.36347
     2015.15400        -4.82251         7.35140
     2015.15636        -6.30946         8.79514
     2015.21251         3.32879        14.48698
     2015.21423        -8.63127         7.69994
     2015.21697         0.29243         7.51629
     2015.21971        -2.67488         7.40368
     2015.22245        -1.77819         7.35945
     2015.22518         1.68551         7.53505
     2015.22792         2.64120         7.57527
     2015.23066         0.79889         7.44390
     2015.23340        -2.54242         7.66106
     2015.23613        11.85328         7.67447
     2015.23887        -2.38403         7.69860
     2015.24161        -1.20634         9.51768
     2015.24435        -3.53464         7.69726
     2015.24709        -4.01995         7.52567
     2015.24982        -2.85926         7.28706
     2015.25256         6.77043         7.47205
     2015.25530        -2.70087         7.43049
     2015.25804        -6.05518         7.33934
     2015.26078         0.60451         7.39832
     2015.26351         0.27921         7.35408
     2015.26625         0.95090         7.33934
     2015.26899        -6.43841         7.31119
     2015.27173         6.38928         7.48143
     2015.27446         9.96198         7.62755
     2015.27720         4.05967         7.40770
     2015.27994         3.91136         7.53773
     2015.28268         7.36605         7.54578
     2015.28542        -1.41025         7.65704
     2015.28815        -8.66556         7.71066
     2015.29089        -4.10687         7.62085
     2015.29363        -1.09917         7.54042
     2015.29637        -0.71048         7.58733
     2015.29911         3.51521         7.52835
     2015.30184         6.45890         7.49082
     2015.30458         2.81460         7.72675
     2015.30732         6.18729         7.35408
     2015.31006        -5.10702         7.38760
     2015.31279        -2.58832         7.37955
     2015.31553        -6.62963         7.24282
     2015.31827        -0.78994         7.45730
     2015.32101         0.17375         7.66374
     2015.32375        -0.80555         7.42781
     2015.32648         8.24914         8.20263
     2015.32922         4.07683         7.45998
     2015.33196         4.34553         7.22137
     2015.33470        -4.78678         7.35408
     2015.33744        -2.50309         7.28706
     2015.34017        -7.87240         7.47473
     2015.34289        -5.89974         7.31521
     2015.34566        -2.00099         7.27365
     2015.34839        -5.04532         7.25086
     2015.35112        -1.28062         7.22405
     2015.35386         9.57507         7.28974
     2015.35660        -4.58024         7.33532
     2015.35934        -0.87055         7.43586
     2015.36208         1.80315         7.91978
     2015.36481        -0.84016         7.27767
     2015.36755        -3.38747         7.28438
     2015.37029         1.52023         7.29644
     2015.37303        -5.47108         7.33398
     2015.37577        -1.69439         7.36079
     2015.37850        -3.69370         7.50958
     2015.38124        -5.86400         7.21199
     2015.38398        -8.77031         7.19992
     2015.38672        -2.40362         7.37419
     2015.38945        -2.36293         7.26427
     2015.39219        -0.66323         7.25086
     2015.39493        -4.34454         7.23612
     2015.39767        -6.27885         7.31387
     2015.40041        -3.37715         8.83804
     2015.40314        -8.17946         7.36749
     2015.40588        -0.82277         7.44122
     2015.40862         9.10792         7.60342
     2015.41136         0.14362         7.28304
     2015.41410        -0.86569         7.37955
     2015.41683         0.29600         7.38492
     2015.41970        -5.45708         7.49484
     2015.42231         2.47739         7.40368
     2015.42505        -0.27492         7.72541
     2015.42778        -5.15223         7.31923
     2015.43052        10.00747         7.53505
     2015.43326        -2.15684         7.34470
     2015.43600         1.09885         7.42647
     2015.43874         3.69255         7.34336
     2015.44147         5.19424         8.35277
     2015.44421         0.43493         7.44524
     2015.44695        -3.99338         9.73082
     2015.44969         0.69032         7.38760
     2015.45243         5.79401         7.49484
     2015.45516         2.51570         7.36883
     2015.45790        -3.74060         7.66642
     2015.46064         5.29710         7.71200
     2015.46330         3.71464         7.90102
     2015.46617        -1.25443         7.72541
     2015.46885         4.75817         7.39966
     2015.47159         4.31986         7.70262
     2015.47433         6.29855         8.02836
     2015.47707         2.19324         7.80182
     2015.47980        -0.40906         7.61548
     2015.48254         2.39263         8.07662
     2015.48528         5.18832         7.43317
     2015.48802        10.15702         7.43317
     2015.49076        -1.33029         7.39162
     2015.49349         7.71940         7.62487
     2015.49623         1.63409         7.77903
     2015.49897         4.94579         7.40905
     2015.50171        12.73948         7.34872
     2015.50444        10.94517         7.47071
     2015.50718         5.07787         7.63157
     2015.50992         4.33156         7.48143
     2015.51266         4.88925         7.32727
     2015.51540         5.54794         7.34068
     2015.51813        12.28364         7.52567
     2015.52087        10.11533         7.44926
     2015.52361        12.02502         7.53773
     2015.52635         4.90672         7.42915
     2015.52908        11.05941         7.54846
     2015.53182        17.62410         8.49352
     2015.53456        11.60379         7.98547
     2015.53730         1.53549         7.42245
     2015.54004         4.77918         7.44792
     2015.54277         5.08487         7.51226
     2015.54551        13.95757         7.42647
     2015.54825        13.84226         7.44256
     2015.55099         6.83795         7.31789
     2015.55373        15.09064         7.41977
     2015.55646         9.02834         7.52299
     2015.55920        12.34503         7.45998
     2015.56194        13.85572         7.49484
     2015.56419         8.44658         8.97075
     2015.56827        -9.41843        13.14646
     2015.57015         3.78380         7.98815
     2015.57289        -1.40651         7.82192
     2015.57563         9.91519         7.67849
     2015.57837        10.72088         7.61414
     2015.58110         2.65557         7.48948
     2015.58384        10.59326         7.59002
     2015.58658        20.91396         8.33936
     2015.58932        12.52765         7.92514
     2015.59206        15.13734         8.02166
     2015.59479         9.06904         7.73345
     2015.59742         6.90554         7.99619
     2015.60103         7.04373        12.74431
     2015.60301         7.63011         7.96670
     2015.60574        15.09881         8.18521
     2015.60848        13.53650         7.79243
     2015.61122        12.71719         8.28977
     2015.61396         6.86189         7.68519
     2015.61670        12.60358         7.55650
     2015.61943         9.65227         7.82997
     2015.62217         7.10596         7.79109
     2015.62491        19.98366         7.82997
     2015.62765         6.72235         7.55918
     2015.63039        19.77104         7.76428
     2015.63312        18.29374         7.64632
     2015.63586        16.98343         7.63961
     2015.63860         4.36512         7.45998
     2015.64134        12.46681         7.56186
     2015.64407         7.95951         8.53776
     2015.64681         6.85520         7.59538
     2015.64955         4.18089         7.50422
     2015.65229         9.18359         7.61817
     2015.65503        22.78228         7.69994
     2015.65760        13.68569         8.32998
     2015.66061         2.63085        10.68259
     2015.66324        15.18136         7.74954
     2015.66598        18.04305         8.43454
     2015.66872        11.69574         8.02971
     2015.67145         9.59743         7.63827
     2015.67409         0.93095         7.77635
     2015.68588        35.55116        12.66522
     2015.68788         0.84958         7.78707
     2015.69062         6.91928         8.37690
     2015.69336         5.59698         7.80450
     2015.69609         4.94767         7.62353
     2015.69883         6.87836         7.58063
     2015.70157         1.39206         7.62755
     2015.70431         8.63375         7.47741
     2015.70705         3.75044         7.30314
     2015.70978        10.79513         7.41709
     2015.71252        10.22883         7.57661
     2015.71526         8.55652         7.61280
     2015.71800        16.00421         7.89029
     2015.72073         5.85191         7.62755
     2015.72347         0.04860         7.32593
     2015.72621        -7.25771         7.41441
     2015.72895         5.99898         7.61548
     2015.73169         2.39468         7.65034
     2015.73442        -1.13963         7.65838
     2015.73714        -2.62698         7.64364
     2015.73992         0.19380         7.54042
     2015.74264         5.23945         7.43854
     2015.74538         6.23914         7.75490
     2015.74811         2.67683         7.89029
     2015.75085        -5.63947         7.43183
     2015.75359         2.94122         7.39430
     2015.75633        -1.81009         7.36749
     2015.75906         6.75460         7.47339
     2015.76180         5.29630         7.49618
     2015.76454         4.49699         7.50154
     2015.76728         7.89468         7.63291
     2015.77002        31.52538         8.22140
     2015.77275        30.77207         7.87420
     2015.77549        11.80376         7.74552
     2015.77823         6.60445         7.60610
     2015.78097         5.57315         7.43317
     2015.78371         3.40884         7.32459
     2015.78644        11.23053         7.63559
     2015.78918         1.67123        10.13834
     2015.79192         5.62692         7.61414
     2015.79466         9.57061         7.51092
     2015.79739         5.12230         7.45462
     2015.80013         3.32300         7.43451
     2015.80287         4.58169         7.72407
     2015.80561         0.96938         7.52031
     2015.80835        -5.33592         7.46937
     2015.81108        -3.30423         7.65972
     2015.81382         7.83746         7.53773
     2015.81656         3.62715         7.76696
     2015.81930        -5.19715         7.47473
     2015.82203         5.29154         7.78975
     2015.82477        11.40923         7.93051
     2015.82751         7.87993         7.71066
     2015.83025        14.88962         8.06322
     2015.83299        17.18131         7.95598
     2015.83572        -1.63800         7.49484
     2015.83846        -5.43930         7.42513
     2015.84120        -7.25461         7.51092
     2015.84394         3.56008         7.46535
     2015.84668        -4.96122         7.52567
     2015.84941         7.71947         7.76830
     2015.85215         0.48416         7.55114
     2015.85489         0.37185         7.66911
     2015.85763        -7.20245         7.69458
     2015.86036         0.25224         8.01764
     2015.86310        -5.31607         7.67447
     2015.86584         2.87962         7.86080
     2015.86858        -1.59668         7.61817
     2015.87132        -2.13999         7.68519
     2015.87405        -2.55230         7.91844
     2015.87679        -2.06260         7.76294
     2015.87953         0.92709         7.77903
     2015.88227         0.31278         7.75088
     2015.88501       -11.03953         8.37154
     2015.88774        -7.36083         7.55918
     2015.89048        -0.70414         7.58197
     2015.89322         4.74455         7.68519
     2015.89596        -2.96675         7.55918
     2015.89869        -1.69606         7.63559
     2015.90143       -10.13437         7.57661
     2015.90417        -9.82768         7.49082
     2015.90691        -9.18298         7.61414
     2015.90965        -3.00129         8.00424
     2015.91238        -0.21560         7.65838
     2015.91512        -9.32390         7.74686
     2015.91786        -4.01421         7.59404
     2015.92060        -2.48652         7.60744
     2015.92334         1.11617         7.78171
     2015.92607        -5.86013         7.49082
     2015.92881        -7.74244         7.54310
     2015.93155         4.86625        10.05121
     2015.93428         3.47794         8.00826
     2015.93702        10.92364         8.15705
     2015.93976         3.10333         7.90638
     2015.94250        20.49402         9.53109
     2015.94524         9.33172         9.61822
     2015.94798        14.28141         9.46004
     2015.95071        12.78110         8.99086
     2015.95345        -3.20121         7.49618
     2015.95619         2.25949         7.56991
     2015.95893        -7.75282         7.84605
     2015.96146         4.97251         8.24553
     2015.96440         7.40057         7.90638
     2015.96714         8.67826         8.17046
     2015.96988         4.42095         7.85276
     2015.97262         8.25364         7.67849
     2015.97535         1.90734         7.62353
     2015.97809         0.31303         7.59404
     2015.98083        -2.12528         7.47339
     2015.98357        -5.85858         7.57527
     2015.98631        -7.01589         7.81120
     2015.98904        -1.58120         7.64632
     2015.99178       -11.44651         7.57661
     2015.99452       -10.16981         8.75493
     2015.99726        -6.16412         7.51092
     2016.00000        -9.09143         7.52165
     2016.00273       -10.86873         7.54176
     2016.00547        -5.23004         7.57795
     2016.00821       -10.25035         7.58331
     2016.01033        -4.87672        10.41583
     2016.01459       -15.75342        13.01375
     2016.01642       -15.18527         7.73211
     2016.01916        -8.16058         7.94927
     2016.02190       -11.08788         7.77769
     2016.02464       -13.66419         7.55784
     2016.02744        -4.55439         7.88091
     2016.03011        -5.18481         7.75490
     2016.03285        -4.85311         7.68519
     2016.03559       -12.25742         7.57661
     2016.03833       -14.45473         7.73077
     2016.04106        -2.53803         7.57929
     2016.04380         1.59066         7.85946
     2016.04654        -5.25465         7.59270
     2016.04928       -11.95396         7.58197
     2016.05201       -13.96426         7.47875
     2016.05475        -9.08357         7.51092
     2016.05749       -12.16188         8.37422
     2016.06023        -6.82119         7.55382
     2016.06297       -14.21349         7.45998
     2016.06570       -11.29980         7.59270
     2016.06844        -7.13511         7.67179
     2016.07118        -6.86741         7.78305
     2016.07392        -3.95772         7.72675
     2016.07666        -3.31303         7.58331
     2016.07939         5.24566         7.60610
     2016.08213        -5.71264         7.75758
     2016.08487        -7.87395         7.43451
     2016.08761        -7.42126         7.42111
     2016.09034       -10.09857         7.85678
     2016.09308        -2.65987         7.94525
     2016.09582       -15.01518         7.45194
     2016.09856        -9.06149         7.61683
     2016.10130       -16.83079         7.36615
     2016.10403       -13.14910         7.28706
     2016.10677       -16.56141         7.54980
     2016.10951        -3.66671         7.57795
     2016.11225       -12.33802         7.86616
     2016.11498        -4.93333         7.67715
     2016.11772       -10.22664         7.42513
     2016.12046        -7.22194         7.75222
     2016.12320       -10.55025         7.40636
     2016.12594       -10.03156         7.56052
     2016.12867        -3.72486         7.39832
     2016.13141         2.42783         7.43854
     2016.13415        -6.49048         7.32861
     2016.13689        -8.87279         7.50020
     2016.13957       -10.15619         7.56723
     2016.14239       -12.88935         7.61817
     2016.14510       -13.84271         7.36213
     2016.14778        -1.68712         7.52299
     2016.20488       -19.59125         9.26298
     2016.20807       -10.78277         7.50154
     2016.21081        -7.68008         7.47205
     2016.21341         3.66337         7.77501
     2016.21642        -5.19746         7.88091
     2016.21902        -2.20400         7.26025
     2016.22176        -0.76631         7.22673
     2016.22450        -4.60662         7.47205
     2016.22724        -7.23192         7.45462
     2016.22997         3.54377         7.27365
     2016.23271        -9.89854         7.21333
     2016.23545        -0.89385         7.37553
     2016.23819        -2.03415         7.31253
     2016.24093        -3.32446         7.34202
     2016.24366       -10.52677         7.15703
     2016.24640        -3.72107         7.21199
     2016.24914        -6.13538         7.09268
     2016.25188         2.21531         7.59136
     2016.25462        -2.18400         7.54176
     2016.25735        -3.23430         7.35140
     2016.26009        -6.72361         7.45462
     2016.26283        -3.24992         7.29644
     2016.26557        -2.38022         7.24550
     2016.26830        -3.49053         7.26561
     2016.27104         0.56916         7.33934
     2016.27378        -3.59915         7.15703
     2016.27652        -1.33745         7.22808
     2016.27926         2.25624         7.47339
     2016.28199        -5.75207         9.26700
     2016.28473         2.31763         7.47607
     2016.28747        -8.86568         7.67045
     2016.29021        -8.27399         7.26159
     2016.29210        -7.10374        12.39175
     2016.29645         1.75972        11.35285
     2016.29842        -2.14691         7.39832
     2016.30116         4.02278         7.78037
     2016.30390         4.81448         7.94927
     2016.30663         0.92117         7.51361
     2016.30937        -1.92614         7.25891
     2016.31211        -1.21845         7.41977
     2016.31485        -1.45675         7.29912
     2016.31759        -0.19306         7.27901
     2016.32032        -4.45737         7.35006
     2016.32306        -7.52767         7.27499
     2016.32580        -2.23598         7.34872
     2016.32854        -4.16029         7.23344
     2016.33128        -3.92860         7.31253
     2016.33401         1.95910         7.36615
     2016.33675         3.48279         7.44390
     2016.33949         0.26248         7.34604
     2016.34223         0.41617         7.53908
     2016.34496        -1.75813         7.54980
     2016.34770         1.57756         7.55382
     2016.35044         9.26725         7.67715
     2016.35318         4.26395         7.31387
     2016.35592        -6.87136         7.32325
     2016.35865        -3.44567         7.34470
     2016.36139        -1.62198         7.29108
     2016.36293         9.44166        24.86930
     2016.42294       -15.91548        96.81224
     2016.42436         1.09596         7.44658
     2016.42710         3.23465         7.24550
     2016.42984         0.81234         7.41441
     2016.43258         7.00704         7.39296
     2016.43531         5.65673         7.42379
     2016.43805        12.84742         7.44658
     2016.44079         3.51812         7.84337
     2016.44355        -3.27316         7.35945
     2016.44626         4.18850         7.35140
     2016.44900         4.96719         7.40368
     2016.45174        11.37389         7.39296
     2016.45448         7.20558         7.42379
     2016.45722         2.57327         7.28572
     2016.45995         5.98097         7.30717
     2016.46269         8.97466         7.43586
     2016.46543        -0.38165         7.28438
     2016.46817         7.89004         7.46401
     2016.47091        12.72674         7.44658
     2016.47364        -0.17957         7.19724
     2016.47638        15.33512         7.52969
     2016.47912         5.55982         7.57125
     2016.48161        -0.27392         8.03641
