# ================= DQRFIT RESULTS ================
# INPUT FILE: series/SEQM.rad
# OUTPUT: LDETRENDED
# FILTER FUNCTION: f(t)
# f(t)=+line(t)+annual(t)
# line(t)=+P 1+P 2*t
# annual(t)=+P 3*sin(2*pi*t+P 4)
# heav(t)=(t<0?0:1)
# TOTAL OBSERVATIONS MTOT= 2837
# INITIAL TIME INTERVAL= 2022.7488 - 2014.5818 =  8.1670
# TOTAL OBSERVATIONS AFTER PREFILTER M= 2797
# TIME-SPAN= 2022.7488 - 2014.5818 =  8.1670
# OBSERVATIONS: USED M=  2797 REJECTED MTOT-M=    40 %USED=   98.5901
# N=  4 PARAMETERS
# MAXSIG= 175.00000
# MAXRES=  24.30722
# SCALE FACTOR FOR LENGTHS: SCL=  10.00000
# SCALE FACTOR FOR SIGMAS: SCLSIG=   1.00000
# CHI^2=   2974.310 DOF=  2793 CHI^2/DOF=   1.06492
# RMS=      5.768 SDEV=      5.769 MEAN=    0.04811
#  P #       PARAMETER +-    SIGMA %error PARAMETER NAME
# P 1 =     -1715.41308 +-   96.547   5.63 YZERO                              
# P 2 =         0.85324 +-    0.048   5.60 SLOPE                              
# P 3 =         4.65808 +-    0.149   3.20 ANNUAL AMPLITUDE                   
# P 4 =         3.13426 +-    0.045   1.44 ANNUAL PHASE                       
#       T            LDETRENDED       SIG_OBS
     2014.58179         3.82511         5.67055
     2014.58453         4.18478         5.71493
     2014.58726         3.28944         5.91822
     2014.59000         6.04510         5.66436
     2014.59274         4.88077         5.66230
     2014.59548         5.03443         5.73144
     2014.59822         7.77809         5.92235
     2014.60095         2.68276         5.79645
     2014.60369         6.97342         5.60863
     2014.60643        -3.35291         5.61792
     2014.60917         4.46875         5.63443
     2014.61190        11.54841         5.83257
     2014.61464         6.50408         5.65198
     2014.61738         5.11074         5.75724
     2014.62012         8.01441         5.73040
     2014.62286         8.95207         5.62102
     2014.62559         4.70873         5.58800
     2014.62833         2.63440         5.66333
     2014.63107        18.84506         5.71905
     2014.63381         5.06673         5.78407
     2014.63655         8.45139         5.57768
     2014.63928         4.65105         5.60038
     2014.64202         0.67072         5.58903
     2014.64476         1.61738         5.66333
     2014.64750         1.12405         5.57045
     2014.65023        -2.40329         5.56839
     2014.65297         6.61237         5.60554
     2014.65571         7.16504         5.63443
     2014.65802        12.25607         6.74584
     2014.67858        -1.70147        11.52582
     2014.68035         9.52201         5.58593
     2014.68309         5.77768         5.57664
     2014.68583         4.12434         5.66436
     2014.68856         5.09001         5.69222
     2014.69130         3.05967         5.62927
     2014.69404         3.97633         5.58284
     2014.69678         2.20600         5.58180
     2014.69952         7.37466         5.52711
     2014.70225         6.50032         5.60348
     2014.70499         7.17299         5.60760
     2014.70773        11.09765         5.61792
     2014.71047        10.17432         5.65920
     2014.71321        10.14498         5.49718
     2014.71594         5.50264         5.66333
     2014.71868         7.62031         5.57974
     2014.72142         1.33697         5.64063
     2014.72416        13.11964         5.66539
     2014.72689         9.73930         5.69635
     2014.72963        13.81796         5.71596
     2014.73237        -3.71137         5.80161
     2014.73511         3.60929         5.65301
     2014.73785         3.46996         5.57355
     2014.74058         1.65762         5.55394
     2014.74332         3.82428         5.73247
     2014.74606        13.43895         5.72834
     2014.74880         6.07261         5.60038
     2014.75154         6.62228         5.68809
     2014.75427         3.04294         5.62927
     2014.75701        14.41360         5.79748
     2014.75975         7.96027         5.72834
     2014.76249         3.73693         5.66849
     2014.76522         7.10860         5.61070
     2014.76793         7.22028         5.65301
     2014.77002         4.73851         7.51464
     2014.79289        10.35399         6.33203
     2014.79513         9.11308         6.18343
     2014.82085         9.01614         9.70856
     2014.82272        13.65054         5.96775
     2014.82546        11.92820         5.63340
     2014.82820         9.85987         5.65094
     2014.83093         4.89853         5.61276
     2014.83367        -0.02781         5.58696
     2014.83641        -5.09814         5.72215
     2014.83788        17.18860        22.61719
     2014.85928         8.87535        10.36075
     2014.86105         1.35583         5.58696
     2014.86379         2.76550         5.61379
     2014.86653         4.16616         5.61173
     2014.86926        -1.53917         5.64475
     2014.87200         1.50349         5.59109
     2014.87474         1.05315         5.57768
     2014.87748         1.87582         5.59419
     2014.88021         3.73348         5.58696
     2014.88295         1.55115         5.72524
     2014.88569         7.46681         6.25876
     2014.88843         6.59647         5.87694
     2014.89117        11.07414         5.90584
     2014.89390         4.34980         5.88313
     2014.89664         6.59447         5.78407
     2014.89938         0.54113         5.81915
     2014.90212        -0.17021         5.80574
     2014.90485         3.25046         5.75001
     2014.90759         3.49812         5.83670
     2014.91033         3.72378         5.66539
     2014.91307         2.91045         5.64269
     2014.91581        -0.96689         5.59212
     2014.91854         4.11878         5.60451
     2014.92128         3.01644         5.57768
     2014.92402         5.86110         5.59832
     2014.92676         2.96477         5.72112
     2014.92950         2.88343         5.68087
     2014.93223        -8.16590         5.57871
     2014.93497        -9.91024         5.74279
     2014.93771        -9.69758         5.97394
     2014.94045        -8.96291         5.81606
     2014.94318         3.37075         5.88726
     2014.94592        -3.03858         5.62515
     2014.94866       -13.53092         5.52814
     2014.95140        -5.03726         5.53949
     2014.95414        -1.48559         5.57974
     2014.95961        -0.82526         5.54156
     2014.96235        -0.12660         5.49925
     2014.96509         0.75206         5.68294
     2014.96783        -4.75227         5.59935
     2014.97056        -3.29761         5.68087
     2014.97330        -5.93494         5.59316
     2014.97604        -9.47728         5.55497
     2014.97878        -3.93862         5.55085
     2014.98151         0.52405         5.69325
     2014.98425        -8.49329         5.60451
     2014.98699        -2.18562         5.54672
     2014.98973        -2.41496         5.52711
     2014.99247        -3.34930         5.50028
     2014.99520        -6.66963         5.50750
     2014.99794        -0.76197         5.54672
     2015.00068        -1.08830         5.57871
     2015.00342        -4.92364         5.59419
     2015.00616        -7.32698         5.47758
     2015.00889        -0.73431         5.57045
     2015.01163        -0.49465         5.62102
     2015.01437        -7.45299         5.67055
     2015.01711        -4.86532         5.75414
     2015.01984         2.98434         5.59728
     2015.02258        -6.82799         5.75311
     2015.02532        -0.85233         5.60863
     2015.02806         2.75533         5.67674
     2015.03080        -1.18900         5.61895
     2015.03353         1.00366         5.60348
     2015.03627         0.61833         5.57252
     2015.09924        14.14260         5.77478
     2015.13210        -3.59644         5.57252
     2015.13483        -0.96177         5.62927
     2015.15126         0.17821         5.53021
     2015.15400        -1.59512         5.51060
     2015.15674        -0.53046         5.49615
     2015.15948         4.37120         5.54569
     2015.16221         2.83287         5.52711
     2015.16495        -0.31347         5.52195
     2015.16769         2.96120         5.50131
     2015.17043         2.80586         5.51886
     2015.17316         1.99852         5.71699
     2015.17590        -8.43881         5.64269
     2015.17864        -5.39715         5.52195
     2015.18138        -0.34648         5.49822
     2015.18412         2.64018         5.50131
     2015.18685         6.26584         5.53227
     2015.18959        11.37451         5.72112
     2015.19233         2.68417         5.82328
     2015.19507        -0.84216         5.48687
     2015.19780         3.74750         5.59109
     2015.19931         9.65321        17.97756
     2015.20418         0.39806         9.42271
     2015.20602       -10.09151         5.67571
     2015.20876         0.53116         5.60141
     2015.21149        -5.20618         5.55291
     2015.21423        -2.12052         5.72731
     2015.21697         0.57115         5.60657
     2015.21971        -1.59819         5.54569
     2015.22245        -4.75953         5.45178
     2015.22518         1.68214         5.51370
     2015.22792         1.12980         5.50234
     2015.23066        -3.42553         5.55807
     2015.23340        -2.46287         5.62205
     2015.23613        -1.92821         5.76033
     2015.23887        -2.65854         5.79955
     2015.24161         1.45412         5.88623
     2015.24435         2.10779         5.87385
     2015.24709        -8.30555         5.64991
     2015.24982         0.25711         5.45900
     2015.25256         0.74278         5.53537
     2015.25530        -1.16156         5.56220
     2015.25804        -0.67089         5.52505
     2015.26078         7.71977         5.53537
     2015.26351        -0.70257         5.51576
     2015.26625         3.02610         5.50131
     2015.26899        -2.88424         5.59832
     2015.27173         6.26043         5.61173
     2015.27446         8.77909         5.67468
     2015.27720         2.37475         5.54878
     2015.27994        -2.35258         5.53743
     2015.28268         1.41408         5.55291
     2015.28542        -0.94325         5.65714
     2015.28815        -2.97759         5.80367
     2015.29089        -6.38293         5.71183
     2015.29363        -2.74326         5.55807
     2015.29637         1.48040         5.52092
     2015.29911         2.62707         5.50647
     2015.30184         3.11973         5.51679
     2015.30458        -5.38261         5.64475
     2015.30732        -1.22494         5.47448
     2015.31006         0.52072         5.44971
     2015.31279        -3.42361         5.38883
     2015.31553        -5.76895         5.40637
     2015.31827        -5.09029         5.43733
     2015.32101       -14.55362         5.44662
     2015.32375        -6.05496         5.33723
     2015.32648        -3.14530         5.48893
     2015.32907         0.41449         5.85011
     2015.34112        -0.26679         9.49495
     2015.34289        -5.12030         6.14009
     2015.36036        -4.42620        10.69098
     2015.36208         1.47834         5.43836
     2015.36481        -0.47700         5.37541
     2015.36755        -1.98934         5.40225
     2015.46163         1.74439        11.62489
     2015.46338         0.89990         5.56942
     2015.46611         4.42257         5.49615
     2015.46885         0.81523         5.44868
     2015.47159         7.14389         5.45591
     2015.47433         1.34456         5.60244
     2015.47707         0.07522         5.58180
     2015.47980        -1.38011         5.51370
     2015.48254        -4.93945         5.67881
     2015.48528         4.94121         5.43733
     2015.48802         5.34988         5.41463
     2015.49076         3.60254         5.49202
     2015.49349         3.85921         5.63856
     2015.49623        -0.69013         5.70667
     2015.49897         1.17453         5.50338
     2015.50171         4.09720         5.50028
     2015.50444         5.86086         5.40947
     2015.50718         1.24953         5.46932
     2015.50992         6.55919         5.40534
     2015.51266         0.71385         5.41256
     2015.51540         2.86852         5.43011
     2015.51813         4.95818         5.57458
     2015.52087         4.24885         5.46829
     2015.52361         5.47851         5.55601
     2015.52635         3.99417         5.42598
     2015.52908         5.56884         5.42598
     2015.53182         8.01750         5.43114
     2015.53456         5.65216         5.43836
     2015.53730         2.45883         5.47964
     2015.54004         0.21349         5.59212
     2015.54254         2.91636         5.93679
     2015.57066         3.63437         7.72000
     2015.57289        -1.22354         5.93886
     2015.57518         7.04651         6.73655
     2015.58978        -4.38195         7.27729
     2015.59206         9.00011         5.76033
     2015.59479         4.83877         5.63340
     2015.59753         4.57544         5.76859
     2015.60027        13.07310         5.92338
     2015.60301        11.23876         5.95847
     2015.60574        10.32743         5.90893
     2015.60848         9.16409         5.67571
     2015.61122         9.99776         5.65610
     2015.61396         9.65842         5.69429
     2015.61670         9.39708         5.57664
     2015.61943         5.62575         5.61173
     2015.62217         8.59141         5.61586
     2015.62491        14.11708         5.54775
     2015.62765        10.58274         5.56839
     2015.63039        16.58840         5.62308
     2015.63312         8.53207         5.82122
     2015.63586        13.60173         5.59832
     2015.63860         2.96139         5.54981
     2015.64134        11.45406         5.52814
     2015.64407        10.09772         5.58696
     2015.64681         5.81539         5.63650
     2015.64955         9.99305         5.51782
     2015.65229         6.33471         5.61689
     2015.65503        20.19638         5.72524
     2015.65776        13.04304         5.82947
     2015.66050        14.24371         5.71080
     2015.66324        18.76937         5.53743
     2015.66598        17.74903         5.76859
     2015.66872        10.85170         5.78200
     2015.67145        10.59736         5.53640
     2015.67419         6.10903         5.52608
     2015.67693         7.74569         5.53433
     2015.67967         9.41035         5.71699
     2015.68240         4.00802         5.57355
     2015.68514         7.38968         5.66023
     2015.68788         4.80935         5.60760
     2015.69062        11.71301         5.86765
     2015.69336        10.84567         5.71905
     2015.69609         8.09134         5.54259
     2015.69883        15.14500         5.71905
     2015.70157         8.24867         5.70151
     2015.70431        12.58533         5.62308
     2015.70705        10.03599         5.54362
     2015.70978        15.44866         5.59212
     2015.71251         5.70633         5.66230
     2015.71526         8.51999         5.59625
     2015.71800         5.52765         5.70977
     2015.72073         8.03531         5.70254
     2015.72347         5.55298         5.52298
     2015.72621         7.80764         5.54878
     2015.72895         7.86131         5.66746
     2015.73169         9.81797         5.59316
     2015.73442         5.06663         5.59832
     2015.73713        11.14333         5.69738
     2015.73992        12.51994         5.66539
     2015.74264        10.40162         5.66023
     2015.74538        11.96229         5.81606
     2015.74811         0.53195         5.82844
     2015.75085        -2.05038         5.61379
     2015.75359         4.38228         5.63031
     2015.75633         8.84194         5.49202
     2015.75906         8.66661         5.64888
     2015.76180         4.68227         5.67055
     2015.76454         3.00894         5.59935
     2015.76683         6.31398         6.91714
     2015.77064        13.63273         8.06467
     2015.77275        22.42793         5.82225
     2015.77549        -0.07541         5.64785
     2015.77823        13.83626         5.68190
     2015.78097         9.91992         5.59006
     2015.78378        -0.03348         8.95111
     2015.78772        23.77416        23.21882
     2015.78918         6.35891         5.62824
     2015.79192        14.16058         5.63650
     2015.79466         9.51124         5.58490
     2015.79739        12.27690         5.64888
     2015.80013        15.26657         5.98323
     2015.80287        -7.69477         5.91306
     2015.80561        -0.26910         5.60863
     2015.80835         0.68256         5.56736
     2015.81108        -0.22278         5.67571
     2015.81382        12.01089         5.83463
     2015.81656         4.43255         5.75930
     2015.81930         0.82922         5.60967
     2015.82203         8.19688         5.73969
     2015.82477         6.34754         5.73969
     2015.82751        11.51221         5.70254
     2015.83025        12.75887         5.96569
     2015.83299         5.62454         5.85630
     2015.83572         4.35520         5.66436
     2015.83846        -1.98214         5.82122
     2015.84120        -3.67647         5.74279
     2015.84394        -2.25881         5.72421
     2015.84547        -7.63111        25.82036
     2015.86126         0.90341         9.37318
     2015.86310        -0.24016         5.80264
     2015.86490        11.46530        11.06867
     2015.89965         5.00365         9.87471
     2015.90143        -0.24387         5.71389
     2015.90417        -4.00320         5.67674
     2015.90691         0.85746         5.63753
     2015.90965         1.04313         5.88932
     2015.91238         1.51679         5.74795
     2015.91512        -1.47755         5.69945
     2015.91786        -0.73388         5.73453
     2015.92060         7.75978         5.78819
     2015.92334         0.94045         5.65301
     2015.92577        -6.75863         6.53842
     2015.93796        10.48597        10.23382
     2015.93976         8.18843         6.09262
     2015.94250         0.14909         5.88623
     2015.94524        -6.29224         5.83360
     2015.94798         1.16642         5.81502
     2015.95071         4.90508         5.59522
     2015.95345        -3.55425         5.59419
     2015.95619         3.73441         5.68397
     2015.95872        -0.89675         6.18653
     2016.01469        -9.71550        11.82096
     2016.01642        -0.41298         5.80470
     2016.01916         0.71768         5.93783
     2016.02063        11.05443        22.29935
     2016.07489         5.72013        10.85402
     2016.07666         0.63963         5.72834
     2016.07939         6.18229         5.59419
     2016.08213        -1.16705         5.73144
     2016.08487        -1.39438         5.56117
     2016.08761        -6.55472         5.51886
     2016.09034        -8.20405         5.90584
     2016.09308        -4.19039         5.78407
     2016.09582        -2.69173         5.71596
     2016.09856       -14.12506         5.68706
     2016.10130       -16.19740         5.51886
     2016.10403       -19.14573         5.52298
     2016.10677       -15.23807         5.66436
     2016.10951       -10.69041         5.65817
     2016.11225        -8.88774         5.86559
     2016.11498        -6.24308         5.75208
     2016.11772        -9.92041         5.56117
     2016.12046        -6.83475         5.76136
     2016.12320        -9.39509         5.53330
     2016.12594        -6.53542         5.62205
     2016.12867         0.28824         5.56013
     2016.13141         5.16991         5.50338
     2016.13415        -7.31643         5.52608
     2016.13689        -9.27577         5.57355
     2016.13957        -8.08905         5.67778
     2016.14239       -22.92446         5.64888
     2016.14510       -12.21777         5.50854
     2016.14784        -5.51311         5.53124
     2016.15058       -11.90145         5.47551
     2016.15331        -8.40578         5.63443
     2016.15605        -0.52012         5.47035
     2016.15879        -6.73546         5.64166
     2016.16153        -6.35579         5.58180
     2016.16427        -3.76313         5.53846
     2016.16700        -3.07146         5.57974
     2016.16974        -3.00780         5.57974
     2016.17248         1.54986         5.71905
     2016.17522        -0.66947         5.52608
     2016.17796         3.65119         5.63340
     2016.18069         3.76086         5.63134
     2016.18343       -10.74048         5.71389
     2016.18617        -6.64482         5.52711
     2016.18891         5.47385         5.80574
     2016.19164       -11.10049         5.37645
     2016.19438         0.61318         5.43527
     2016.19712        -1.13716         5.45281
     2016.19986        -3.37450         5.69738
     2016.20260        -8.41183         5.59832
     2016.20533        -6.46717         5.79645
     2016.20807        -5.00650         5.66952
     2016.21081        -7.73484         5.66539
     2016.21355        -0.85818         5.48893
     2016.21629        -6.76951         5.62102
     2016.21902        -1.46085         5.50544
     2016.22176        -0.87418         5.42082
     2016.22450        -8.67952         5.47345
     2016.22724       -10.34186         5.54981
     2016.22997        -4.65719         5.36406
     2016.23271        -5.27553         5.41360
     2016.23545        -5.71286         5.44249
     2016.23819        -3.81520         5.41876
     2016.24093         0.81246         5.46313
     2016.24366        -1.60787         5.39089
     2016.24640        -0.22021         5.43836
     2016.24914        -5.68654         5.38573
     2016.25188        -2.63588         5.56632
     2016.25462        -5.10522         5.50441
     2016.25735        -1.18655         5.51370
     2016.26009        -8.71189         5.41876
     2016.26283       -11.86122         5.42082
     2016.26557        -5.49656         5.41979
     2016.26830        -4.97690         5.46210
     2016.27104        -5.24023         5.45075
     2016.27378        -3.64057         5.43320
     2016.27652        -5.89591         5.40121
     2016.27926        -2.29224         5.45487
     2016.28199        -5.01858         5.91409
     2016.28473         0.53109         5.47345
     2016.28747        -9.03325         5.57871
     2016.29021       -11.71459         5.46932
     2016.29295        -8.18592         5.47861
     2016.29568        -5.69026         5.46107
     2016.29842        -0.09759         5.58490
     2016.30116        -1.21693         5.59728
     2016.30390        -8.56127         5.54465
     2016.30663         0.34340         5.43733
     2016.30937        -3.24094         5.42288
     2016.31211        -7.84627         5.46416
     2016.31485         0.82139         5.48790
     2016.31759        -2.45595         5.50234
     2016.32032        -4.42128         5.45900
     2016.32306        -8.21662         5.43836
     2016.32580        -7.80895         5.54569
     2016.32854        -8.23429         5.48171
     2016.33128        -5.53163         5.55704
     2016.33401        -5.25696         5.53949
     2016.33675        -2.20430         5.57768
     2016.33949         0.58837         5.46829
     2016.34223        -1.29297         5.60038
     2016.34496        -2.92231         5.62515
     2016.34770        -2.09764         5.57252
     2016.35044         0.31302         5.85011
     2016.35318        -3.86531         5.42288
     2016.35592        -9.26065         5.40844
     2016.35865        -9.16199         5.44971
     2016.36139       -12.06532         5.43114
     2016.36413        -3.30166         5.56117
     2016.36687         1.81501         5.41566
     2016.36961         5.97167         5.42804
     2016.37234         7.00733         5.42804
     2016.37508        -1.17500         5.54672
     2016.37782        -5.08234         5.48377
     2016.38056         2.71832         5.63650
     2016.38329         0.12799         5.40947
     2016.38603         2.87265         5.41050
     2016.38877         9.61832         5.38470
     2016.39151         1.08998         5.43011
     2016.39425        -5.22536         5.49306
     2016.39698        -0.30269         5.40947
     2016.39972         2.78097         5.44352
     2016.40246        -1.67636         5.51060
     2016.40520        -6.36370         5.49822
     2016.40794        -5.87104         5.45694
     2016.41067        -7.11837         5.47035
     2016.41341        -5.52171         5.43940
     2016.41615        -8.14304         5.44249
     2016.41889       -11.67438         5.47964
     2016.42162        -3.55272         5.48377
     2016.42436       -12.54305         5.46416
     2016.42710        -2.58639         5.46519
     2016.42984        -8.59872         5.48893
     2016.43258        -7.37706         5.44043
     2016.43531        -0.44740         5.53227
     2016.43805         1.29927         5.48583
     2016.44079       -16.08507         5.47448
     2016.44354        -8.77342         5.43114
     2016.44626        -2.88074         5.47139
     2016.44900        -2.11408         5.46623
     2016.45174         2.13659         5.48790
     2016.45448        -6.19375         5.44352
     2016.45722        -0.42408         5.47964
     2016.45995        -0.64042         5.42082
     2016.46269        -5.93576         5.45591
     2016.46543        -7.60509         5.42288
     2016.46817         2.68157         5.42288
     2016.47091        -2.63276         5.54775
     2016.47364        -0.65210         5.52505
     2016.47638        -5.03444         5.60038
     2016.47912        -3.41977         5.58180
     2016.48186         0.29289         5.64372
     2016.48459         1.09755         5.46003
     2016.48733         4.68122         5.54775
     2016.49007         0.90688         5.44765
     2016.49281        -4.35245         5.47861
     2016.49555        -1.79379         5.43733
     2016.49828        -2.24813         5.44146
     2016.50102        -1.04046         5.43836
     2016.50376         3.30120         5.56736
     2016.50650         1.98487         5.55188
     2016.50924         4.02753         5.45281
     2016.51197        -2.50081         5.46519
     2016.51471         4.13686         5.41256
     2016.51745        -6.81148         5.63856
     2016.52019         0.41319         5.50647
     2016.52292        -6.33515         5.41772
     2016.52566         2.00251         5.44765
     2016.52840        -2.42482         5.48067
     2016.53114        -3.82716         5.36406
     2016.53388        -2.56049         5.40534
     2016.53661        -0.95383         5.52505
     2016.53935        -0.11017         5.41979
     2016.54209         2.45950         5.39399
     2016.54483         4.56416         5.40947
     2016.54757         0.22883         5.42392
     2016.55030         0.14349         5.55085
     2016.55304         0.58115         5.42392
     2016.55578         3.10582         5.70461
     2016.55852         5.04448         5.40225
     2016.56125         1.69715         5.38470
     2016.56399        -0.44019         5.37954
     2016.56673         3.24347         5.68397
     2016.56947        -2.10586         5.72524
     2016.57221         6.27880         5.45178
     2016.57494         3.87147         5.56736
     2016.57768         4.32813         5.49925
     2016.58042         0.45879         5.38367
     2016.58316        -0.02754         5.40431
     2016.58590        10.70412         5.53949
     2016.58863         6.04978         5.40534
     2016.59137         0.94245         5.43733
     2016.59411         6.76311         5.53227
     2016.59685        10.91978         5.42392
     2016.59958         8.43644         5.49306
     2016.60232         2.84810         5.41979
     2016.60506         3.65877         5.41669
     2016.60780        -0.63657         5.43011
     2016.61054         1.92610         5.41463
     2016.61327         1.74276         5.41772
     2016.61601         6.74642         5.45384
     2016.61875         7.86309         5.49822
     2016.62149         0.69175         5.39089
     2016.62423         5.20942         5.47035
     2016.62696         6.21808         5.43733
     2016.62970         3.13074         5.37232
     2016.63244         2.09741         5.46210
     2016.63518         5.89507         5.38780
     2016.63791        10.62374         5.59006
     2016.64065         9.17040         5.45281
     2016.64339         4.14006         5.40534
     2016.64613         8.56873         5.42804
     2016.64887         2.05139         5.41050
     2016.65183         4.95986         6.04205
     2016.65434         4.88872         5.62205
     2016.65708        -1.35762         5.41876
     2016.65982         1.93605         5.43320
     2016.66256         7.36471         5.40637
     2016.66529        15.53438         5.70357
     2016.66803         3.11904         5.55188
     2016.67077         1.85770         5.59728
     2016.67351         2.74337         5.40741
     2016.67624         2.55403         5.37232
     2016.67898         5.56370         5.37025
     2016.68172        12.88636         5.38161
     2016.68446         6.76802         5.65198
     2016.68720         1.28069         5.69016
     2016.68993         3.75235         5.48687
     2016.69267         7.02601         5.46003
     2016.69541         3.70868         5.50854
     2016.69815         8.63234         5.40844
     2016.70089        10.88601         5.43011
     2016.70362        14.38967         5.55497
     2016.70636         2.28733         5.69429
     2016.70910         7.36500         5.67571
     2016.71184         9.28466         5.41669
     2016.71457         5.01633         5.40741
     2016.71731         8.58499         5.50647
     2016.72005         4.62265         5.40018
     2016.72279        10.94132         5.35374
     2016.72553        12.56898         5.45281
     2016.72826         3.82365         5.80780
     2016.73100         6.76831         5.47139
     2016.73374         8.68897         5.40637
     2016.73648         4.59264         5.41153
     2016.73921         5.82330         5.49822
     2016.74195         9.89497         5.37645
     2016.74469         3.52463         5.41463
     2016.74743         2.35629         5.42288
     2016.75017         7.81796         5.46107
     2016.75290         6.15062         5.43011
     2016.75564         9.43729         5.39915
     2016.75838        13.66995         5.40121
     2016.76112         8.17061         5.38573
     2016.76386        10.84528         5.43527
     2016.76659        13.31794         5.55910
     2016.76933        16.08561         5.51163
     2016.77207         1.32027         5.43217
     2016.77481         3.33693         5.43424
     2016.77754         3.63360         5.39296
     2016.78028         7.62326         5.44352
     2016.78302         2.75793         5.51576
     2016.78576         8.02359         5.83463
     2016.78850        13.58225         5.58180
     2016.79123        15.22192         5.50338
     2016.79397         9.04858         5.47035
     2016.79671         1.40424         5.43217
     2016.79945        -4.79409         5.45384
     2016.80219         2.47157         5.62205
     2016.80492        -2.22076         5.43424
     2016.80766        -3.30810         5.45694
     2016.81040        -5.56044         5.55394
     2016.81314        -2.76277         5.45281
     2016.81587        -0.62111         5.55291
     2016.81861        -4.95644         5.51576
     2016.82135        -5.40178         5.64888
     2016.82409        -2.36012         5.44456
     2016.82683        -2.41945         5.45487
     2016.82956        -2.03379         5.39399
     2016.83230         7.00788         5.40328
     2016.83504         2.65954         5.39812
     2016.83778         1.07520         5.43733
     2016.84052       -10.40213         5.60554
     2016.84325         2.56653         5.46107
     2016.84599         1.56720         5.53124
     2016.84873         6.94486         5.67262
     2016.85147        -1.38448         5.58800
     2016.85420         2.44919         5.56736
     2016.85694        -1.04515         5.55497
     2016.85968         0.43452         5.56942
     2016.86242        -4.98682         5.53330
     2016.86516         1.16784         5.50441
     2016.86789         0.14051         5.42495
     2016.87063         4.41917         5.48274
     2016.87337         3.79484         5.41876
     2016.87611         0.14550         5.42701
     2016.87885         0.74616         5.39399
     2016.88158        -6.65717         5.41256
     2016.88432         6.86249         5.42701
     2016.88706         6.90916         5.44559
     2016.88980         2.19782         5.46519
     2016.89253        -1.60352         5.45591
     2016.89527         1.10915         5.43836
     2016.89801        10.78181         5.43940
     2016.90075        -3.77853         5.43940
     2016.90349        -3.21486         5.57458
     2016.90622         3.41180         5.51989
     2016.90896         4.77947         5.43527
     2016.91170         0.23013         5.40741
     2016.91444         1.22879         5.48583
     2016.91718        -0.31354         5.53433
     2016.91991        -3.02988         5.65404
     2016.92265        -2.27321         5.40121
     2016.92539         0.06745         5.45591
     2016.92813        -5.19289         5.43630
     2016.93086       -10.75222         5.41463
     2016.93360        -6.88756         5.41566
     2016.93634        -5.33089         5.47655
     2016.93908        -1.23423         5.54053
     2016.94182         2.58343         5.54259
     2016.94455        -4.94690         5.55704
     2016.94729        -0.85824         5.52092
     2016.95003         1.42943         6.61685
     2016.95368         2.01631         8.96659
     2016.95551        -0.00225         5.44559
     2016.95824         2.45642         5.41669
     2016.96098         1.67708         5.41566
     2016.96372        -2.18025         5.50544
     2016.96646         1.03141         5.52402
     2016.96919         3.60907         5.50234
     2016.97193        -2.30126         5.45075
     2016.97467         4.99740         5.48996
     2016.97741         2.92207         5.43630
     2016.98015         2.43873         5.47035
     2016.98288        -0.11761         5.45591
     2016.98562         1.85006         5.40121
     2016.98836         4.75172         5.46416
     2016.99110         0.20239         5.40018
     2016.99384         9.73005         5.83670
     2016.99657         2.34771         5.45900
     2016.99931         2.76138         5.42392
     2017.00074        24.31816        91.61733
     2017.00479         0.66970         5.39502
     2017.00752        -1.89463         5.38883
     2017.01300         5.15470        17.59780
     2017.01574        -1.80864         7.05130
     2017.01847        -0.08597         6.20510
     2017.02121         2.48269         6.39085
     2017.02394         0.83836         6.91714
     2017.02668         2.55402        10.15024
     2017.02943         4.62068         6.50024
     2017.03217        -1.24866         6.39704
     2017.03491        -1.05200         6.10707
     2017.03764        -4.32933         6.88412
     2017.04038        -7.13667         6.18962
     2017.04312        -3.87400         6.61891
     2017.04585        -0.79834         6.60343
     2017.04802        13.50782         9.28650
     2017.05133         9.71799         6.10087
     2017.05407         5.27865         6.98732
     2017.05681         3.46032        23.20540
     2017.05954        -5.91502         6.32893
     2017.06228        -3.09635         6.67154
     2017.06501        -5.89268         6.28972
     2017.06776        -6.35802         6.89857
     2017.07050        -5.15436         6.70353
     2017.07323        -7.13069         6.86142
     2017.07597       -15.91903         5.86146
     2017.07871       -15.42937         6.44554
     2017.08145        -5.40770         6.30623
     2017.08419        -5.51104         5.95227
     2017.08692        -6.19938         7.01002
     2017.08966        -3.37872         6.35886
     2017.09239        -6.28904         6.14009
     2017.09514         2.63062         6.56112
     2017.09787         1.88828         6.64161
     2017.10062        -8.90806         6.02141
     2017.10335        -6.48440         5.99768
     2017.10608       -10.18473         6.80363
     2017.10882       -29.47606         6.73655
     2017.11111        -1.94802         7.60442
     2017.11431        -8.31474         6.80776
     2017.11704       -15.99308         6.11635
     2017.11977       -10.01541         6.86864
     2017.12251       -12.47974         5.90790
     2017.12526        -7.44109         6.00284
     2017.12799         1.68458         5.83154
     2017.13072         2.28025         5.83773
     2017.13347         2.01691         5.68603
     2017.13619        -1.95542         6.19375
     2017.13894        -2.45476         6.66638
     2017.14168        -4.79010         6.25567
     2017.14441        -3.74343         6.10191
     2017.14716       -14.64577         6.19169
     2017.14988        -7.57210         6.03070
     2017.15263        -1.57344         6.16692
     2017.15536         1.00423         5.69841
     2017.15810        -3.14311         9.38350
     2017.16083        -9.92044         7.08226
     2017.16631        -3.69711         5.72834
     2017.16906        -5.96646         5.74898
     2017.17180        -2.43780         5.83566
     2017.17454        -2.97813         6.74997
     2017.17726        -5.48646         6.93985
     2017.18000         0.81221         6.19169
     2017.18275        -3.10614         6.45070
     2017.18548        -6.00147         6.43522
     2017.18821       -14.10280         6.29798
     2017.19095        -6.41514         6.56628
     2017.19370        -3.47148         5.95434
     2017.19643        -9.27181         6.67567
     2017.19916        -7.54515         6.21232
     2017.20192        -3.36949         6.24019
     2017.20465       -17.85383         5.94815
     2017.20739        -6.73616         8.36600
     2017.21013        -0.58750         5.71183
     2017.21287        -7.14884         5.90480
     2017.21561        -3.99418         6.65400
     2017.21834        -1.01151         6.78918
     2017.22108         0.24315         7.48368
     2017.22381        -9.29418         6.98113
     2017.22655         0.58048         7.18751
     2017.22930       -13.67886        11.38445
     2017.23203        -3.86719         6.04618
     2017.23477        -4.07852         5.86972
     2017.23749        -5.74885         6.03586
     2017.24023        -4.23119         6.20200
     2017.24297        -8.75352         6.55596
     2017.24571       -13.29386         6.33203
     2017.24846        -9.78621         5.90996
     2017.25120        -4.40054         6.98732
     2017.25392       -11.77287         7.16894
     2017.25667        -6.72022         6.24638
     2017.25940       -11.31354         7.02550
     2017.26213       -13.26988         6.30314
     2017.26489        -8.85922         7.09980
     2017.26762        -5.12056         8.15755
     2017.27310       -11.84023         5.70667
     2017.27583       -12.31956         5.50234
     2017.27857       -15.66590         5.47448
     2017.28131       -10.39624         5.45797
     2017.28405       -19.29257         5.45075
     2017.28679       -13.96491         5.43733
     2017.28952       -15.69324         5.45900
     2017.29226        -8.22558         5.49306
     2017.29500       -12.78692         5.47551
     2017.29774        -8.50125         5.44043
     2017.30047       -11.60959         5.48583
     2017.30321       -10.56492         5.40947
     2017.30595       -13.54126         5.46210
     2017.30869       -13.61360         5.45487
     2017.31143        -7.44993         5.40534
     2017.31416       -11.15427         5.41669
     2017.31690       -11.80361         5.44868
     2017.31964       -10.96394         5.50957
     2017.32238       -10.30328         5.52195
     2017.32512       -15.96161         5.43630
     2017.32785       -15.22795         5.49202
     2017.33059       -16.00829         5.41566
     2017.33333       -14.74762         5.46829
     2017.33607       -11.34196         5.42392
     2017.33880       -10.30629         5.46829
     2017.34154         1.31137         5.60657
     2017.34428       -12.08497         5.47964
     2017.34702        -8.90530         5.39915
     2017.34976       -10.89764         5.43940
     2017.35249        -9.89597         5.41566
     2017.35523       -10.91931         5.38883
     2017.35797       -15.30465         5.54259
     2017.36071       -17.83998         5.40844
     2017.36344       -10.58732         5.43320
     2017.36618       -13.51465         5.41979
     2017.36892        -6.47399         5.40121
     2017.37166       -10.10333         5.41772
     2017.37440        -8.76966         5.43733
     2017.37713        -5.89300         5.51060
     2017.37987       -18.13333         5.54672
     2017.38261        -8.60367         5.37438
     2017.38535       -10.06101         5.38161
     2017.38809        -6.27534         5.40431
     2017.39082        -9.37168         5.47964
     2017.39356        -2.95401         5.50647
     2017.39630        -2.73335         5.40328
     2017.39904        -8.69669         5.44043
     2017.40177        -8.06302         5.46107
     2017.40451        -8.46436         5.62618
     2017.40725       -10.03369         5.41463
     2017.40999       -10.20303         5.52402
     2017.41273        -9.37537         5.46003
     2017.41546       -10.60270         5.47964
     2017.41820        -8.21004         5.54569
     2017.42094        -5.83538         5.41669
     2017.42368        -5.95271         5.40741
     2017.42642        -9.21005         5.40844
     2017.42915        -7.31438         5.46932
     2017.43189        -0.84072         5.53433
     2017.43463        -3.77806         5.42288
     2017.43737        -1.68839         5.42495
     2017.44010        -1.75073         5.42598
     2017.44284        -6.71406         5.49099
     2017.44558        -1.85440         5.44559
     2017.44832        -2.92374         5.40947
     2017.45106         1.00793         5.39399
     2017.45379         1.37459         5.61689
     2017.45653        -4.20874         5.58903
     2017.45927        -1.03908         5.46313
     2017.46201        -0.38542         5.47448
     2017.46475        -6.41475         5.48171
     2017.46748        -4.28109         5.53433
     2017.47022        -4.74642         5.44868
     2017.47296        -7.54476         5.41050
     2017.47570        -2.81010         5.41979
     2017.47843        -7.58843         5.41050
     2017.48117        -3.11177         5.66642
     2017.48391         0.04190         5.48687
     2017.48665        -6.49644         5.47139
     2017.48939        -5.04778         5.44868
     2017.49212        -6.04711         5.44662
     2017.49486        -5.01345         5.43733
     2017.49760        -5.80678         5.51060
     2017.50034        -3.46312         5.44352
     2017.50308         1.29154         5.44765
     2017.50581        -3.83979         5.42185
     2017.50855        -5.24313         5.46416
     2017.51129         0.84954         5.54672
     2017.51403        -3.38780         5.49822
     2017.51676        -6.73114         5.43114
     2017.51950        -5.17747         5.53227
     2017.52224        -1.31781         5.45178
     2017.52498        -3.24215         5.43217
     2017.52772        -5.04848         5.58593
     2017.53045        -6.22782         5.46003
     2017.53319        -2.93715         5.41463
     2017.53593         0.34251         5.45797
     2017.53867        -0.74483         5.44249
     2017.54141         8.14784         5.44456
     2017.54414        -2.27050         5.43733
     2017.54688        -1.79683         5.42082
     2017.54962        -2.49117         5.43424
     2017.55236        -4.50651         5.44249
     2017.55509         0.96216         5.42288
     2017.55783         0.95582         5.56736
     2017.56057        -3.19351         5.43320
     2017.56331        -3.95485         5.39812
     2017.56605        -2.09319         5.48996
     2017.56878        -3.99052         5.50441
     2017.57152        -0.71286         5.45281
     2017.57426        -3.71219         5.51266
     2017.57700        -7.07453         5.46313
     2017.57974        -5.84587         5.48583
     2017.58247        -5.05120         5.44456
     2017.58521        -1.35754         5.45075
     2017.58795        -0.27087         5.51886
     2017.59069        -2.49021         5.58696
     2017.59342        -1.37355         5.39915
     2017.59616        -5.22688         5.41050
     2017.59890        -3.37422         5.47655
     2017.60164        -2.94055         5.48687
     2017.60438        -3.38489         5.48067
     2017.60711        -4.99223         5.43836
     2017.60985        -3.15056         5.54981
     2017.61251        -2.55783         5.74279
     2017.61547         1.70464         5.98117
     2017.61807         0.83843         5.58387
     2017.62080        -3.74391         5.41876
     2017.62354         0.09076         5.56117
     2017.62628         2.89442         5.71699
     2017.62902         3.11608         5.78200
     2017.63175        -8.04525         5.51370
     2017.63449        -2.51359         5.44043
     2017.63723        -3.06992         5.41566
     2017.63997         2.54474         5.51576
     2017.64271         6.94640         5.52092
     2017.64544         3.19607         5.65817
     2017.64818        -0.35827         5.54672
     2017.65092         1.65940         5.41463
     2017.65366         2.53606         5.41463
     2017.65639         3.23272         5.45797
     2017.65913         5.45539         5.45075
     2017.66187         2.65605         5.54156
     2017.66461         2.46872         5.56220
     2017.66735         4.19838         5.56632
     2017.67008         8.20104         5.42082
     2017.67282         0.45071         5.58387
     2017.67556         2.44237         5.41772
     2017.67830         2.12304         5.42598
     2017.68104         2.13670         5.41669
     2017.68377         5.06336         5.57768
     2017.68651         6.11503         5.71905
     2017.68925         6.27069         5.45900
     2017.69199         3.57336         5.44043
     2017.69472         3.57802         5.40844
     2017.69746         7.97068         5.58593
     2017.70020         2.22735         5.58387
     2017.70294         8.15201         5.67055
     2017.70568         3.17768         5.55291
     2017.70841         7.00734         5.40018
     2017.71115         4.55600         5.52917
     2017.71389         2.28067         5.45487
     2017.71663         6.76733         5.42392
     2017.71937         4.43500         5.43424
     2017.72210         4.28966         5.51473
     2017.72484         3.86532         5.42082
     2017.72758         5.46599         5.42288
     2017.73032         2.46165         5.43836
     2017.73305         3.43731         5.47861
     2017.73579        -2.11102         5.44043
     2017.73853         0.44264         5.54465
     2017.74127         1.03131         5.43424
     2017.74401         8.34797         5.53227
     2017.74674         7.13063         5.50338
     2017.74948         1.15830         5.44249
     2017.75222         2.86696         5.46107
     2017.75496         3.00963         5.40018
     2017.75770         3.85429         5.51370
     2017.76043         1.06595         5.45384
     2017.76317         3.75762         5.47551
     2017.76591         1.79028         5.59625
     2017.76865         8.81295         5.40534
     2017.77138         0.22961         5.40844
     2017.77412         0.31927         5.48583
     2017.77686        -3.63906         5.43217
     2017.77960         1.95460         5.52195
     2017.78234         2.02627         5.45075
     2017.78507         0.61193         5.40225
     2017.78781        -0.61641         5.40637
     2017.79055         0.03826         5.49202
     2017.79329         4.70692         5.58696
     2017.79603         6.38659         5.61173
     2017.79876        13.26925         5.62824
     2017.80150         6.83191         5.56323
     2017.80424         4.12658         5.41876
     2017.80698        -0.02876         5.64063
     2017.80971        -6.90309         5.40741
     2017.81245        -7.70443         5.40534
     2017.81519        -3.35577         5.48377
     2017.81793        -5.49810         5.39709
     2017.82067       -11.93244         5.53021
     2017.82340        -3.72477         5.42185
     2017.82614        -6.28711         5.38470
     2017.82888         1.35055         5.38986
     2017.83162         4.38022         5.48687
     2017.83436         5.55888         5.43424
     2017.83709         2.40854         5.69738
     2017.83983        -7.26979         5.42908
     2017.84257        -0.69113         5.40121
     2017.84531       -13.79246         5.36922
     2017.84804        -3.89780         5.36613
     2017.85078        -1.29714         5.47139
     2017.85352         1.16953         5.44559
     2017.85626         1.95819         5.64475
     2017.85900        -2.94814         5.52298
     2017.86173        -0.13848         5.53330
     2017.86447         6.17718         5.40431
     2017.86721         5.08685         5.64269
     2017.86995        -2.94649         5.42392
     2017.87269        -1.14182         5.50028
     2017.87542        -2.96316         5.38057
     2017.87816         2.28350         5.38677
     2017.88090        -1.81883         5.40431
     2017.88364        13.67183         5.54053
     2017.88637         7.83750         5.46003
     2017.88911         3.38016         5.66436
     2017.89185        -8.36318         5.59832
     2017.89459         3.91149         5.90068
     2017.89733        -5.18785         5.43011
     2017.90006        -9.66318         5.42288
     2017.90280        -2.24752         5.57045
     2017.90554         1.49914         5.42804
     2017.90828         2.09881         5.48996
     2017.91102         1.21647         5.57458
     2017.91375        -5.16086         5.55085
     2017.91649        -1.94820         5.41772
     2017.91923         4.67746         5.46313
     2017.92197         0.80213         5.39709
     2017.92470        -3.17121         5.42495
     2017.92744        -6.36054         5.44868
     2017.93018        -5.84488         5.46623
     2017.93292        -7.48122         5.39399
     2017.93566        -3.12955         5.42082
     2017.93839        -2.23389         5.46416
     2017.94113        -9.95823         5.50854
     2017.94387        -6.11356         5.45591
     2017.94661       -16.13090         5.50234
     2017.94935        -2.94623         5.49925
     2017.95208        -6.16457         5.51473
     2017.95482        -6.57091         5.43940
     2017.95756        -0.55924         5.50028
     2017.96030         5.04542         5.45281
     2017.96303        -0.57891         5.40534
     2017.96577        -0.71725         5.50957
     2017.96851         2.33741         5.41876
     2017.97125        -2.55792         5.39605
     2017.97399         1.41674         5.39399
     2017.97672        -1.10059         5.38883
     2017.97946        -3.03393         5.40225
     2017.98220       -10.75027         5.36097
     2017.98494        -3.27260         5.35890
     2017.98767        -7.61094         5.36819
     2017.99041        -6.42827         5.40637
     2017.99315        -2.65061         5.41360
     2017.99589        -5.51995         5.51163
     2017.99863        -2.81628         5.37851
     2018.00136        -8.93062         5.36510
     2018.00410        -9.91795         5.40018
     2018.00684        -4.67729         5.39709
     2018.00958        -5.39463         5.43630
     2018.01232        -2.89896         5.41050
     2018.01505        -1.40730         5.38264
     2018.01779        -1.49163         5.36510
     2018.02053         0.85303         5.43940
     2018.02327         0.59969         5.43320
     2018.02600        -2.09164         5.48480
     2018.02874        -0.87198         5.46210
     2018.03148        -5.12631         5.49822
     2018.03422        -7.16265         5.38677
     2018.03696       -10.80399         5.40328
     2018.03969       -14.09932         5.45694
     2018.04243        -8.98366         5.58387
     2018.04517        -9.10500         5.50957
     2018.04791        -8.97633         5.68809
     2018.05065        -2.34467         5.38677
     2018.05338        -1.61700         5.40225
     2018.05612        -3.66134         5.53846
     2018.05886        -9.47668         5.45281
     2018.06160       -11.17901         5.54878
     2018.06433        -5.87835         5.54672
     2018.06707        -1.57568         5.52402
     2018.06981        -8.98902         5.46932
     2018.07255        -3.25436         5.52195
     2018.07529       -16.30169         5.68913
     2018.07802       -11.33503         5.63031
     2018.08076        -9.83836         5.64785
     2018.08350        -9.17670         5.48274
     2018.08624       -10.00004         5.45591
     2018.08898        -4.71037         5.73660
     2018.09171        -8.96971         5.53743
     2018.09445        -4.87204         5.56220
     2018.09719        -5.18338         5.66023
     2018.09993        -9.92272         5.47655
     2018.10266       -10.70305         5.51989
     2018.10540        -8.01939         5.67881
     2018.10814        -8.59872         5.52917
     2018.11088        -5.71806         5.49615
     2018.11362        -5.03740         5.51679
     2018.11635        -6.75073         5.48583
     2018.11909        -5.44007         5.61999
     2018.12183        -4.05640         5.61792
     2018.12457        -2.69374         5.46416
     2018.12731        -5.79108         5.52608
     2018.13004         0.18059         5.57045
     2018.13278        -1.89575         5.50957
     2018.13552         0.16692         5.49409
     2018.13826        -4.31942         5.52814
     2018.14099        -6.78876         5.53537
     2018.14373       -10.36309         5.51989
     2018.14647        -2.32543         5.78303
     2018.14921        -7.17676         5.59728
     2018.15195        -2.84110         5.53021
     2018.15468        -4.60144         5.49615
     2018.15742        -1.60577         5.52505
     2018.16016        -1.43211         5.51163
     2018.16290        -3.68245         5.63959
     2018.16564        -5.71978         5.58800
     2018.16837        -7.59612         5.47139
     2018.17111        -4.65545         5.56529
     2018.17385        -9.36579         5.51266
     2018.17659        -5.09913         5.51266
     2018.17932        -5.87646         5.50854
     2018.18206         2.72420         5.58077
     2018.18480        -2.41013         5.57974
     2018.18754        -5.57847         5.52402
     2018.19028       -10.11681         5.49409
     2018.19301        -9.38414         5.48996
     2018.19575         2.36652         5.50338
     2018.19849        -4.53081         5.48583
     2018.20123         3.28285         5.56426
     2018.20397         2.00451         5.50338
     2018.20670        -0.58482         5.49202
     2018.20944        -0.84716         5.50028
     2018.21218        -5.85549         5.47035
     2018.21492       -23.15983         5.43527
     2018.21765         0.59883         5.41669
     2018.22039        -2.96950         5.42804
     2018.22313        -6.96184         5.46623
     2018.22587        -8.90517         5.39089
     2018.22861       -16.11451         5.38677
     2018.23134       -10.40385         5.40431
     2018.23408        -9.45018         5.42185
     2018.23682        -5.51652         5.44043
     2018.23956        -7.45885         5.41669
     2018.24230        -5.31619         5.39089
     2018.24503        -6.22653         5.41153
     2018.24777        -1.10586         5.38986
     2018.25051         1.05980         5.39915
     2018.25325        -3.82753         5.44249
     2018.25598        -3.30787         5.41360
     2018.25872        -9.95321         5.58696
     2018.26146        -5.27554         5.57561
     2018.26420         0.12112         5.53640
     2018.26694        -7.74622         5.34962
     2018.26967       -10.78855         5.49512
     2018.27241        -5.63389         5.45281
     2018.27515         0.13178         5.42392
     2018.27789        -2.67856         5.50338
     2018.28062        -2.54390         5.53124
     2018.28336        -5.13723         5.47345
     2018.28610        -5.37157         5.41360
     2018.28884        -5.09390         5.48790
     2018.29158        -4.02424         5.53949
     2018.29431        -8.46658         5.43940
     2018.29705        -3.74991         5.34446
     2018.29979        -7.97725         5.40121
     2018.30253       -12.99858         5.43114
     2018.30527        -9.65492         5.36097
     2018.30800        -8.37526         5.33207
     2018.31074        -3.68059         5.35787
     2018.31348        -2.60493         5.34136
     2018.31622        -4.64526         5.36510
     2018.31895        -8.16260         5.54672
     2018.32169        -8.76194         5.33517
     2018.32443        -7.39027         5.39502
     2018.32717        -6.58261         5.35374
     2018.32991        -4.64994         5.54465
     2018.33264        -7.48228         5.42908
     2018.33538        -7.53162         5.81090
     2018.33812        -5.07595         5.60038
     2018.34086       -10.04929         5.32485
     2018.34360        -5.73762         5.36406
     2018.34633        -4.53996         5.38367
     2018.34907        -5.81130         5.39502
     2018.35181        -1.64963         5.41772
     2018.35455        -1.92397         5.32072
     2018.35728        -1.24030         5.31350
     2018.36002        -0.81864         5.41050
     2018.36276         1.74502         5.48687
     2018.36550        -0.24731         5.40844
     2018.36824        -3.66265         5.39605
     2018.37097        -5.01199         5.47551
     2018.37371        -1.72532         5.34755
     2018.37645        -3.40466         5.52711
     2018.37919        -3.59399         5.40431
     2018.38193         0.32167         5.43011
     2018.38466        -1.73767         5.34858
     2018.38740        -1.81500         5.33001
     2018.39014         0.65666         5.40431
     2018.39288         4.47133         5.43424
     2018.39561         1.97399         5.40328
     2018.39835        -0.25735         5.41772
     2018.40109        -0.16068         5.36303
     2018.40383        -3.51702         5.46829
     2018.40657         0.40365         5.45281
     2018.40930        11.40431         5.52814
     2018.41204         6.38997         5.38883
     2018.41478         0.40764         5.35065
     2018.42299        -3.03137         5.38057
     2018.42573         3.75029         5.37851
     2018.42847         1.69296         5.38677
     2018.43121        -1.69138         5.42804
     2018.43394         1.75229         5.37541
     2018.43668        -0.26605         5.37025
     2018.43942         1.44061         5.40121
     2018.44216         0.21228         5.36200
     2018.44490        -2.68906         5.37438
     2018.44763         0.57761         5.38573
     2018.45037        -1.64873         5.36406
     2018.45311        -1.02607         5.38057
     2018.45585         4.04960         5.35890
     2018.45859         4.78926         5.37541
     2018.46132        -2.27607         5.43836
     2018.46406        -3.08241         5.35581
     2018.46680        -1.16075         5.41669
     2018.46954        -4.47608         5.44662
     2018.47227         0.11458         5.48171
     2018.47501         6.89524         5.37748
     2018.47775         1.55691         5.38986
     2018.48049        -3.04043         5.42392
     2018.48323        -1.75276         5.33620
     2018.48596        -3.31310         5.70048
     2018.48870        -0.25444         5.42082
     2018.49144         1.42223         5.34033
     2018.49418         2.86889         5.54362
     2018.49692         3.38256         5.61070
     2018.49965         2.34622         5.40018
     2018.50239        -0.03312         5.39605
     2018.50513        -4.92145         5.36303
     2018.50787         3.52321         5.40018
     2018.51060        -3.93212         5.49512
     2018.51334         1.14754         5.38264
     2018.51608        -4.29480         5.39399
     2018.51882        -0.22013         5.47242
     2018.52156        -0.15247         5.35581
     2018.52429        -4.14380         5.37232
     2018.52703        -3.16014         5.38161
     2018.52977        -2.84248         5.36613
     2018.53251        -2.36681         5.41566
     2018.53525         3.39085         5.35994
     2018.53798         1.68752         5.34033
     2018.54072         0.03218         5.42288
     2018.54346         0.88484         5.43527
     2018.54620         1.21851         5.37541
     2018.54893        -2.57183         5.90790
     2018.55144        -0.84097         5.92751
     2018.55430        -0.92340         5.91306
     2018.55730         1.26003         5.75001
     2018.55989        -4.30317         5.54775
     2018.56262        -1.22351         5.39089
     2018.56536        -1.78184         5.40741
     2018.56810         2.11482         5.46107
     2018.57084        -0.38952         5.39812
     2018.57357        -2.61985         5.58387
     2018.57631         0.90181         5.73556
     2018.57905        -4.09453         5.63443
     2018.58179         2.73714         5.44765
     2018.58453         4.04380         5.52092
     2018.58726         3.08647         5.38986
     2018.59000         2.56013         5.37129
     2018.59274        -2.36921         5.35890
     2018.59548         2.80946         5.41463
     2018.59822         2.79412         5.37541
     2018.60095        -0.54221         5.78613
     2018.60360         4.99553         5.59522
     2018.60645         0.47310         5.44043
     2018.60906         8.50987         5.67881
     2018.61198        -0.42762         5.82328
     2018.61464         2.21711         5.45591
     2018.61738         5.68277         5.34239
     2018.62012         5.20543         5.34755
     2018.62286         5.21310         5.46623
     2018.62557        -1.89221         5.58077
     2018.62833        -1.89657         5.35581
     2018.63107         3.18909         5.35478
     2018.63381         2.63275         5.47861
     2018.63655         5.72742         5.38057
     2018.63928         5.95708         5.63650
     2018.64202         5.35875         5.87281
     2018.64476         7.09741         5.34652
     2018.64750         3.24607         5.35478
     2018.65023         6.41374         5.49409
     2018.65297         6.88940         5.38780
     2018.65571         6.11007         5.38161
     2018.65845         6.53273         5.37954
     2018.66119         7.59839         5.37541
     2018.66392         4.73006         5.35684
     2018.66666         7.56872         5.40328
     2018.66940         0.38939         5.40534
     2018.67214         1.57305         5.46519
     2018.67488        -3.30029         5.42392
     2018.67761         3.88338         5.41256
     2018.68035         4.42404         5.41669
     2018.68309        -4.92530         5.49306
     2018.68583         5.20137         5.48274
     2018.68856         1.18503         5.40637
     2018.69130         6.21270         5.45591
     2018.69404         4.00536         5.55188
     2018.69678         3.63102         5.47035
     2018.69952         2.54869         5.38780
     2018.70225        -1.63165         5.48583
     2018.70499        -2.20998         5.37232
     2018.70773        -2.80432         5.41050
     2018.71047        -2.91366         5.37645
     2018.71321         1.22101         5.43424
     2018.71594         1.42367         5.35787
     2018.71868        -7.94266         5.40637
     2018.72142         0.76100         5.40121
     2018.72416        -6.49734         5.59212
     2018.72689        -2.16067         5.45281
     2018.72963         3.73999         5.40328
     2018.73237        -3.75534         5.32898
     2018.73511        -1.54368         5.34033
     2018.73785         1.13798         5.38161
     2018.74058        -0.78335         5.34962
     2018.74332         5.98731         5.37232
     2018.74606         3.48298         5.35478
     2018.74880        -1.87736         5.48067
     2018.75154        -2.59070         5.60554
     2018.75427         1.90497         5.36406
     2018.75701        -2.06237         5.46519
     2018.75975         0.12230         5.40121
     2018.76249        -0.92304         5.35065
     2018.76522        -0.59438         5.46519
     2018.76796        -1.66571         5.38264
     2018.77070         5.95495         5.50647
     2018.77344         6.53662         5.38367
     2018.77618        -0.45972         5.38367
     2018.77891        -0.90906         5.34446
     2018.78165        -3.22239         5.42598
     2018.78439         4.59027         5.36716
     2018.78713         2.89693         5.37748
     2018.78987        -4.55940         5.43940
     2018.79260        -6.34774         5.35065
     2018.79534         1.41493         5.31866
     2018.79808        -6.99741         5.38883
     2018.80082        -4.99575         5.44559
     2018.80355         1.19492         5.36716
     2018.80629         1.84158         5.59935
     2018.80903         1.07625         5.34239
     2018.81177        -0.20309         5.71596
     2018.81451         2.68657         5.56426
     2018.81724         4.73924         5.53537
     2018.81998        -2.68010         5.50957
     2018.82272         5.63357         5.48996
     2018.82546        -0.76677         5.38264
     2018.82820        -2.71211         5.37025
     2018.83093        -0.37144         5.40018
     2018.83367        -0.40978         5.41566
     2018.83641         8.93189         5.60141
     2018.83915         3.19355         5.39709
     2018.84188         5.10521         5.52505
     2018.84462         3.94088         5.41360
     2018.84736        -5.11546         5.34858
     2018.85010         3.76221         5.36819
     2018.85284        -6.38313         5.34342
     2018.85557        -7.40047         5.47551
     2018.85831        -3.76880         5.41050
     2018.86105        -6.66114         5.38986
     2018.86379       -11.98147         5.45075
     2018.86653        -4.30581         5.43217
     2018.86926        -3.05215         5.44868
     2018.87200        -2.72948         5.48893
     2018.87474        -0.35082         5.38573
     2018.87748        -8.06415         5.45178
     2018.88021       -12.50949         5.60760
     2018.88295        -6.60983         5.44146
     2018.88569        -5.07416         5.51679
     2018.88843         2.08950         5.58593
     2018.89117         2.48616         5.52298
     2018.89390        -0.65017         5.52298
     2018.89664        -1.10751         5.62515
     2018.89938        -7.84484         5.58180
     2018.90212        -7.86418         5.56323
     2018.90485         1.47148         5.55704
     2018.90759         4.63115         5.50131
     2018.91033         0.55281         5.46623
     2018.91307         5.27848         5.56632
     2018.91581         0.02714         5.44249
     2018.91854         6.94980         5.46210
     2018.92128         1.41847         5.46932
     2018.92402         0.52813         5.44249
     2018.92676         2.66080         5.44971
     2018.92950         3.51346         5.45487
     2018.93223         2.34012         5.55394
     2018.93497         1.99879         5.48893
     2018.93771         3.65945         5.48067
     2018.94045        -0.71188         5.45797
     2018.94318         6.96878         5.35168
     2018.94592         9.60944         5.45591
     2018.94866         6.03211         5.45281
     2018.95687        12.76910         5.48893
     2018.95961         7.07476         5.42392
     2018.96235        10.31843         5.58696
     2018.96509        -2.28391         5.50647
     2018.96783         4.17976         5.67055
     2018.97056         4.66442         5.46210
     2018.97330        -1.07992         5.49202
     2018.97604        -4.13525         5.49409
     2018.97878        -2.60859         5.43733
     2018.98151        -7.89692         5.39709
     2018.98425        -2.78926         5.57045
     2018.98699        -4.88160         5.50750
     2018.98973        -4.60593         5.51060
     2018.99247        -0.43927         5.59935
     2018.99520        -1.59661         5.48893
     2018.99794       -12.25194         5.46623
     2019.00068        -7.20428         5.48790
     2019.00342       -10.20661         5.50957
     2019.00616        -1.87095         5.50338
     2019.00889        -0.38129         5.57871
     2019.01163        -6.47962         5.46519
     2019.01437         0.09204         5.43836
     2019.01711         2.06371         5.43733
     2019.01984        -4.76063         5.48687
     2019.02258        -5.36397         5.42185
     2019.02532        -3.36230         5.50957
     2019.02806       -15.31064         5.49306
     2019.03080       -13.84897         5.51060
     2019.03353       -14.31431         5.35890
     2019.03627       -17.83765         5.35684
     2019.03901        -5.26498         5.41566
     2019.04175       -12.50732         5.34342
     2019.04449         1.68535         5.39399
     2019.04722        -9.17599         5.52092
     2019.04996        -9.09033         5.64269
     2019.05270       -13.01966         5.57974
     2019.05544       -10.31700         5.48996
     2019.05817        -4.48033         5.68500
     2019.06091        -5.38367         5.53433
     2019.06365         0.17899         5.48171
     2019.06639        -2.65134         5.47448
     2019.06913       -11.51268         5.52814
     2019.07186        -5.62201         5.52195
     2019.07460       -11.91535         5.36922
     2019.07734        -3.52469         5.38057
     2019.08008        -0.71302         5.38367
     2019.08282        -3.34936         5.57871
     2019.08555         0.90931         5.36510
     2019.08829        -5.52203         5.38367
     2019.09103         3.15663         5.36510
     2019.09377        -0.94870         5.33723
     2019.09650         5.63596         5.35271
     2019.09924        -0.24038         5.37954
     2019.10198        -4.55071         5.36510
     2019.10472        -3.22405         5.36097
     2019.10746       -12.06138         5.34755
     2019.11019       -10.84372         5.39915
     2019.11293         0.91294         5.51266
     2019.11567        -0.71339         5.65817
     2019.11841         0.39627         5.37438
     2019.12115        10.98194         5.48274
     2019.12388         5.65360         5.50854
     2019.12662        -3.38274         5.54981
     2019.12936        -4.23007         5.40844
     2019.13210        -1.11741         5.41050
     2019.13483        -3.77874         5.38780
     2019.13757        -2.79508         5.41463
     2019.14031         0.08558         5.43114
     2019.14305        -2.60775         5.45281
     2019.14579        -3.43609         5.41463
     2019.14852        -1.30642         5.38264
     2019.15126         0.11224         5.36922
     2019.15400        -5.06110         5.39089
     2019.15674        -5.11843         5.36922
     2019.15948        -3.74077         5.44352
     2019.16221        -5.66410         5.46726
     2019.16495        -4.59744         5.32382
     2019.16769       -10.08878         5.33930
     2019.17043        -8.59911         5.45281
     2019.17316        -4.53245         5.39089
     2019.17590        -1.27378         5.39296
     2019.17864         1.53188         5.43424
     2019.18138        -8.53546         5.35374
     2019.18412       -12.58979         5.35271
     2019.18685        -6.21213         5.37645
     2019.18959        -4.86946         5.43630
     2019.19233        -4.17480         5.36613
     2019.19507        -3.67714         5.34962
     2019.19780        -9.08147         5.35065
     2019.20054        -7.01881         5.49306
     2019.20328        -8.86615         5.41566
     2019.20602        -9.28848         5.63959
     2019.20876       -10.39282         5.34446
     2019.21149        -8.81215         5.32175
     2019.21423        -5.45749         5.36716
     2019.21697        -3.22583         5.37025
     2019.21971        -2.32716         5.64475
     2019.22245        -8.23350         5.34342
     2019.22518        -7.76183         5.32898
     2019.22792        -9.01217         5.86043
     2019.23066        -6.60451         5.39915
     2019.23340        -7.52884         5.35374
     2019.23613        -8.93018         5.41566
     2019.23887        -7.46751         5.36303
     2019.24161        -9.98985         5.66436
     2019.24435       -12.06519         5.48893
     2019.24709        -6.53652         5.46107
     2019.24982        -6.27486         5.35581
     2019.25256        -1.35619         5.48996
     2019.25530        -8.17053         5.37232
     2019.25804        -2.76387         5.45694
     2019.26078        -1.29320         5.43217
     2019.26351        -5.68854         5.44043
     2019.26625        -4.56287         5.34652
     2019.26899        -8.38421         5.42495
     2019.27173        -2.80155         5.61483
     2019.27446        -6.30088         5.35787
     2019.27720        -6.89322         5.51679
     2019.27994        -4.01755         5.35890
     2019.28268        -8.25389         5.39812
     2019.28542        -1.32023         5.36613
     2019.28815         1.70744         5.38677
     2019.29089        -2.26890         5.40534
     2019.29363        -2.71623         5.37438
     2019.29637         3.78143         5.48171
     2019.29911        -1.64791         5.39812
     2019.30184        -2.50824         5.47035
     2019.30458        -6.43458         5.38883
     2019.30732       -11.62492         5.40637
     2019.31006        -1.45325         5.47345
     2019.31279        -8.55659         5.47035
     2019.31553         3.35808         5.37438
     2019.31827         3.97674         5.45591
     2019.32101        -4.78760         5.35168
     2019.32375       -14.09493         5.35787
     2019.32648        -5.16627         5.35374
     2019.32922        -6.15560         5.37748
     2019.33196        -5.58594         5.50234
     2019.33470        -7.57228         5.51266
     2019.33744        -4.82161         5.47551
     2019.34017        -7.61195         5.37851
     2019.34291        -5.02528         5.34962
     2019.34565        -6.33762         5.49409
     2019.34839        -9.98196         5.45487
     2019.35112        -4.68929         5.37129
     2019.35386        -3.93763         5.43217
     2019.35660        -3.28796         5.38367
     2019.35934        -7.92230         5.44971
     2019.36208        -4.90764         5.42392
     2019.36481        -5.23897         5.37748
     2019.36755        -5.18731         5.39399
     2019.37029        -2.91564         5.40431
     2019.37303        -2.42798         5.42185
     2019.37577        -3.88232         5.54156
     2019.37850         0.16635         5.48583
     2019.38124        -0.08999         5.44146
     2019.38398        -2.74932         5.40741
     2019.38672        -5.51066         5.39089
     2019.38945        -4.76700         5.40741
     2019.39219        -3.90833         5.44559
     2019.39493        -3.72267         5.41153
     2019.39767        -4.87600         5.38264
     2019.40041        -3.96234         5.36200
     2019.40314        -2.68368         5.38264
     2019.40588         2.89499         5.40534
     2019.40862        -0.37035         5.42288
     2019.41136        -2.36669         5.38677
     2019.41410        -5.76602         5.48687
     2019.41683        -3.63136         5.49306
     2019.41957        -1.16869         5.46107
     2019.42231        -0.44703         5.47551
     2019.42505        -0.35137         5.81709
     2019.42769         9.80838         8.52595
     2019.43084        11.43769         6.51468
     2019.43326         6.68163         5.42082
     2019.43600         3.94429         5.47139
     2019.43874         4.17495         5.51782
     2019.44147         3.68562         5.53433
     2019.44421         5.52328         5.54878
     2019.44695         5.53595         5.57561
     2019.44969        10.45061         5.63650
     2019.45243         7.20427         5.49512
     2019.45516         9.27894         5.49718
     2019.45790         5.44760         5.51370
     2019.46064         7.05927         5.57561
     2019.46338         7.42693         5.89758
     2019.46611         7.93959         5.81296
     2019.46885        12.09126         5.59419
     2019.47159         8.39892         5.53640
     2019.47433        10.60559         5.73350
     2019.47707         8.64725         5.53949
     2019.47980         8.17991         5.55085
     2019.48254         6.10158         5.59522
     2019.48528         6.94024         5.57768
     2019.48802         0.62991         5.54981
     2019.49076         3.74757         5.45487
     2019.49349         6.26823         5.43630
     2019.49623         5.21390         5.44043
     2019.49897        11.59156         5.49822
     2019.50171         8.22723         5.43630
     2019.50444         5.36389         5.75724
     2019.50718         1.92455         5.46829
     2019.50992         4.36422         5.41463
     2019.51266         6.56188         5.37541
     2019.51540         6.75254         5.39502
     2019.51813         5.54221         5.43733
     2019.52087         4.28887         5.64166
     2019.52361         1.13354         5.44662
     2019.52635         3.18520         5.39915
     2019.52908         9.57186         5.64682
     2019.53182         5.28053         5.56529
     2019.53456         3.97119         5.56632
     2019.53730         4.04486         5.58490
     2019.54004         5.65652         5.65301
     2019.54277         5.55918         5.78303
     2019.54552         7.91084         5.77684
     2019.54825        14.71251         5.49512
     2019.55099        12.69918         5.69738
     2019.55373        11.80084         5.61379
     2019.55646         8.06450         5.68397
     2019.55920        -1.20183         5.64372
     2019.56194        12.95783         5.45178
     2019.56468         2.29850         5.62927
     2019.56741         6.74416         5.46107
     2019.57015         8.11582         5.39399
     2019.57289         7.65749         5.52092
     2019.57563        13.23115         5.66952
     2019.57837        10.77482         5.54569
     2019.58110         4.37948         5.47861
     2019.58384         4.99614         5.85527
     2019.58658         7.30881         5.39502
     2019.58932        13.03647         5.44043
     2019.59206        13.45414         5.52814
     2019.59479        10.49780         5.44352
     2019.59753        11.94146         5.66333
     2019.60027        10.26313         5.62618
     2019.60301        11.36179         5.56013
     2019.60574        11.65746         5.76136
     2019.60848        11.67812         5.68397
     2019.61122        -3.92522         5.39089
     2019.61396         7.48945         5.53537
     2019.61670         8.94411         5.45178
     2019.61943         9.40377         5.44765
     2019.62217         8.81144         5.78407
     2019.62491        12.61310         5.55601
     2019.62765        12.56277         5.42288
     2019.63039        14.13143         5.46003
     2019.63312         8.65109         5.43217
     2019.63586        15.66676         5.86353
     2019.63860        10.07142         5.49822
     2019.64134         5.91109         5.67984
     2019.64407         7.85875         5.77891
     2019.64681         3.50641         5.43011
     2019.64955         6.94208         5.44249
     2019.65229        13.43074         5.42495
     2019.65503         7.36441         5.60244
     2019.65776         4.78807         5.60863
     2019.66050         2.27773         5.58180
     2019.66324         7.34340         5.57871
     2019.66598         7.92506         5.46623
     2019.66872         7.58373         5.43114
     2019.67145         2.21439         5.45694
     2019.67419        27.45205        23.20231
     2019.67695        10.74570         5.63237
     2019.67967         8.17038         5.64888
     2019.68240         5.73405         5.55394
     2019.68514        11.84271         5.58077
     2019.68788         5.69437         5.50854
     2019.69062         5.59204         5.61173
     2019.69336         3.35870         5.42804
     2019.69609        10.03737         5.54465
     2019.69883         2.20403         5.57355
     2019.70157         4.98769         5.59006
     2019.70431         6.16636         5.53330
     2019.70705        -1.15998         5.48583
     2019.70978         6.53069         5.58800
     2019.71252        -0.70965         5.37541
     2019.71526         8.29101         5.41979
     2019.71800         9.24268         5.71699
     2019.72073         3.93034         6.03896
     2019.72347         4.55400         5.48893
     2019.72621         4.85967         5.57252
     2019.72895         2.20333         5.57252
     2019.73169         9.81900         5.48067
     2019.73442        10.55266         5.64578
     2019.73716        11.72232         5.46416
     2019.73990        11.25599         5.59006
     2019.74264         8.76065         5.47758
     2019.74538         5.60132         5.45384
     2019.74811         5.79698         5.85837
     2019.75085         9.74264         5.68706
     2019.75359         7.11631         5.75620
     2019.75633         7.73097         5.50544
     2019.75906         6.70364         5.42908
     2019.76180         2.82630         5.42908
     2019.76454         5.62396         5.68500
     2019.76728        16.45463         5.80574
     2019.77002         8.85429         5.57148
     2019.77275         9.51196         5.62411
     2019.77549         8.69162         5.52917
     2019.77823         6.09028         5.54672
     2019.78097        13.20695         5.53021
     2019.78371         6.91261         5.72524
     2019.78644        13.69828         5.73763
     2019.78918        11.02094         5.73040
     2019.79192         6.65960         5.58490
     2019.79466        10.39227         5.74485
     2019.79739         7.60993         5.46519
     2019.80013        15.43260         5.52505
     2019.80287         6.78526         5.53124
     2019.80561         7.06892         5.78303
     2019.80835         6.81159         5.52298
     2019.81108         4.08225         5.50647
     2019.81382        -1.49908         5.99046
     2019.81656         8.11558         5.55807
     2019.81930         8.81424         5.52092
     2019.82203        10.74291         5.65714
     2019.82477         5.54757         5.92544
     2019.82751         6.03023         5.55394
     2019.83025         8.32390         5.65404
     2019.83299         6.47156         5.59832
     2019.83572         9.54923         5.56736
     2019.83846         8.31389         5.53227
     2019.84120         5.59355         5.57148
     2019.84394         7.78622         5.69325
     2019.84668         2.25488         5.50750
     2019.84941         7.63255         5.55910
     2019.85215         6.80221         5.50750
     2019.85489         9.06587         5.55188
     2019.85763         1.93154         5.53124
     2019.86036         3.15420         5.57355
     2019.86310         7.74487         5.51576
     2019.86584         8.25253         5.56736
     2019.86858        10.46319         5.65094
     2019.87132        12.21886         5.82947
     2019.87405         6.11752         5.50647
     2019.87679        11.33419         5.70254
     2019.87953        13.10385         5.58490
     2019.88227        15.42151         5.60348
     2019.88501        18.58718         5.67158
     2019.88774        12.99884         5.65198
     2019.89048        18.11851         5.53021
     2019.89322        18.81517         5.71596
     2019.89596        15.01983         5.62102
     2019.89869        10.90050         5.50131
     2019.90143        12.44516         5.54259
     2019.90417        12.78383         5.74795
     2019.90691        12.76249         5.52092
     2019.90965        10.45115         5.44971
     2019.91238        13.26882         5.47448
     2019.91512        14.14748         5.51060
     2019.91786        18.59915         5.63959
     2019.92060        12.48781         5.49306
     2019.92334        13.77147         5.57045
     2019.92607        12.48214         5.72834
     2019.92881        11.59680         5.58696
     2019.93155         7.50947         5.49202
     2019.93429         7.98313         5.50234
     2019.93702        10.40379         5.57974
     2019.93976         5.66346         5.74279
     2019.94250         4.65112         5.64682
     2019.94524         1.19178         5.77478
     2019.94798        -3.34255         5.56013
     2019.95071         7.12111         5.75517
     2019.95345        11.97078         5.50028
     2019.95619        10.03344         5.54259
     2019.95893        10.24610         5.56323
     2019.96167         6.53077         5.55085
     2019.96440         5.89943         5.81606
     2019.96714         1.39510         5.82844
     2019.96988         1.73576         5.52298
     2019.97262        -0.30358         5.60141
     2019.97535         5.47209         5.63753
     2019.97809         6.66175         5.55085
     2019.98083         4.30442         5.50957
     2019.98357         3.76208         5.49306
     2019.98631         6.67574         5.65507
     2019.98904         5.44041         5.48171
     2019.99178         3.75307         5.52814
     2019.99452         6.68574         5.53330
     2019.99726         9.83340         5.60451
     2020.00000        15.10506         5.56736
     2020.00273         5.98673         5.46726
     2020.00547        14.73739         5.80161
     2020.00821         6.99106         5.66023
     2020.01095        11.37072         5.67262
     2020.01368         4.07738         5.64063
     2020.01642        -7.14695         5.94092
     2020.01916         1.55071         5.72112
     2020.02190         6.09938         5.70873
     2020.02464         6.96304         5.72421
     2020.02737        10.03970         5.50750
     2020.03011        -0.38163         5.52092
     2020.03285        -2.68097         5.49409
     2020.03559         8.03370         5.37025
     2020.03833         9.31436         5.50647
     2020.04106        -1.95398         5.61586
     2020.04380         1.48369         5.55910
     2020.04654         0.15135         5.46829
     2020.04928         2.77301         5.44146
     2020.05201         4.74668         5.41153
     2020.05475        -0.01066         5.44043
     2020.05749        -3.54799         5.49718
     2020.06023        -1.39233         5.48790
     2020.06297        -6.65567         5.51886
     2020.06570         1.27700         5.44765
     2020.06844         6.61666         5.65094
     2020.07118         2.00033         5.41050
     2020.07392         3.60399         5.55291
     2020.07666         4.44765         5.50441
     2020.07939         2.03132         5.43424
     2020.08213         1.27698         5.45178
     2020.08487         5.63765         5.50647
     2020.08761         4.25031         5.40741
     2020.09308         0.86564         5.42288
     2020.09582         0.63430         5.60863
     2020.09856         0.05397         5.40637
     2020.10130        -1.80237         5.46932
     2020.10403         0.87229         5.47139
     2020.10677         0.61996         5.47758
     2020.10951        -4.43938         5.41772
     2020.11225         5.98729         5.69945
     2020.11498        -0.01405         5.34652
     2020.11772         5.07061         5.63650
     2020.12046        -6.27372         5.69635
     2020.12320        -1.13606         5.41360
     2020.12594        -1.00939         5.39605
     2020.12867        -3.10273         5.39709
     2020.13141        -1.46907         5.62721
     2020.13415         2.85760         5.71286
     2020.13689         2.10926         5.49409
     2020.13963         3.03193         5.60760
     2020.14236         3.10059         5.48480
     2020.14510         0.46025         5.53124
     2020.14784         4.65392         5.45797
     2020.15058        -0.21042         5.73350
     2020.15331        -3.46576         5.41876
     2020.15605         0.20791         5.50028
     2020.15879         2.90157         5.47964
     2020.16153         3.39624         5.51060
     2020.16427         5.17090         5.37851
     2020.16700         7.06556         5.42908
     2020.16974        -1.13777         5.63134
     2020.17248         9.38789         5.75311
     2020.17522         3.91156         5.43424
     2020.17796         4.81922         5.68706
     2020.18069         1.22688         5.39709
     2020.18343         3.77055         5.35581
     2020.18617        -0.22279         5.43217
     2020.18891         3.98088         5.56839
     2020.19164         3.08254         5.48171
     2020.19438         0.69320         5.50338
     2020.19712        -3.02213         5.49099
     2020.19986        -4.21947         5.44146
     2020.20260         0.60620         5.62824
     2020.20533        -0.96114         5.51782
     2020.20807        -0.13848         5.52505
     2020.21081        -3.52381         5.58180
     2020.21355        -3.99415         6.02348
     2020.21629        -0.48448         5.71905
     2020.21902        -3.67082         5.59109
     2020.22179        -4.82518         5.59522
     2020.22450         2.05651         5.64991
     2020.22724         0.71117         5.57252
     2020.22997         3.90584         5.49099
     2020.23271         3.47550         5.51163
     2020.23545         2.17616         5.61173
     2020.23819        -0.50317         5.50028
     2020.24093        -2.29451         5.50854
     2020.24366         1.69116         5.63650
     2020.24640        -0.70318         5.58387
     2020.24914        -4.89252         5.51163
     2020.25188        -0.79585         5.51370
     2020.25462         0.10681         5.45075
     2020.25735         0.31047         5.54569
     2020.26009         7.96814         5.49512
     2020.26283         5.01580         5.53124
     2020.26557        -0.04653         5.46623
     2020.26830        -1.44087         5.47551
     2020.27104         2.12579         5.50647
     2020.27378        -2.93654         5.49925
     2020.27652         2.30612         5.58490
     2020.27929         1.86476         5.64888
     2020.28199         6.21545         8.45784
     2020.28473        -8.46189         8.07086
     2020.28747         2.07378         8.26487
     2020.29021        -1.32856         5.48583
     2020.29295        -2.93389         5.46210
     2020.29568         2.68377         5.48687
     2020.29842         3.59543         5.44765
     2020.30116         4.78610         5.46107
     2020.30390        -0.18424         5.57355
     2020.30663         0.96543         5.47551
     2020.30937        -3.23991         5.90480
     2020.31212        -3.94425         6.11842
     2020.31485        -5.29258         5.57871
     2020.31759        -1.45692         5.42082
     2020.32032         0.04775         5.66642
     2020.32306        -1.23759         5.41153
     2020.32580         0.86307         5.49718
     2020.32854         3.23574         5.48480
     2020.33128        -6.64960         5.42288
     2020.33401         2.95107         5.53846
     2020.33675         4.62873         5.56736
     2020.33949         3.53639         5.47139
     2020.34223        -4.87294         5.64888
     2020.34496         2.77872         5.55601
     2020.34770        -3.80661         5.45281
     2020.35044        -1.14395         5.50234
     2020.35318        -7.41929         5.52814
     2020.35592        -4.43862         5.52608
     2020.35865         0.94004         5.40018
     2020.36139        -1.13030         5.39709
     2020.36413        -3.26763         5.54672
     2020.36687        -1.63997         5.46932
     2020.36961        -2.38030         5.50647
     2020.37234        -1.88964         5.41463
     2020.37508        -3.06898         5.45075
     2020.37782         0.43069         5.41050
     2020.38056         0.10835         5.55910
     2020.38329         2.72502         5.40328
     2020.38603         0.87868         5.46623
     2020.38877         1.73934         5.54775
     2020.39151         0.18601         5.42082
     2020.39425         1.09567         5.39502
     2020.39698        -5.80666         5.51576
     2020.39972        -1.95000         5.39502
     2020.40246        -1.24734         5.43940
     2020.40520         2.07233         5.49615
     2020.40794        -0.72601         5.42185
     2020.41067         3.20966         5.47345
     2020.41341        -0.18668         5.44043
     2020.41615         0.06598         5.41979
     2020.41889        -0.49135         5.41360
     2020.42162        -0.92069         5.51060
     2020.42436         0.69498         5.77271
     2020.42710         1.59664         5.67055
     2020.42984        -1.19270         5.50131
     2020.43258         0.87597         5.50544
     2020.43531         1.54663         5.51163
     2020.43805        -1.02970         5.56013
     2020.44079        -2.57504         5.58077
     2020.44353        10.54062         5.54465
     2020.44626        -3.68171         5.47345
     2020.44900         3.84795         5.48067
     2020.45174         2.77162         5.44249
     2020.45448         0.06128         5.44662
     2020.45722        -1.35706         5.39605
     2020.45995         4.43861         5.41979
     2020.46269        -4.27973         5.41463
     2020.46543         1.25193         5.42082
     2020.46817        -4.76340         5.42392
     2020.47091         2.15326         5.50647
     2020.47364         1.46593         5.40637
     2020.47638         2.99759         5.45900
     2020.47912         2.37925         5.55601
     2020.48086        10.28377        10.25549
     2020.48485         1.16037         6.75616
     2020.48733         1.69825         5.72215
     2020.49007         1.82091         5.65301
     2020.49281         4.97757         5.49409
     2020.49555         2.98023         5.63443
     2020.49828         1.54990         5.38470
     2020.50102        -2.62043         5.47035
     2020.50376        -0.03877         5.42908
     2020.50650        -0.53211         5.40947
     2020.50924        -4.67844         5.35994
     2020.51197        -0.47078         5.43320
     2020.51471        -2.29211         5.41979
     2020.51745         2.43455         5.41050
     2020.52019         0.98421         5.58490
     2020.52292         4.29288         5.53640
     2020.52566         1.52654         5.52092
     2020.52840         2.56621         5.51473
     2020.53114         6.37687         5.55601
     2020.53388         3.03653         5.53330
     2020.53661         0.60320         5.59212
     2020.53935         3.18786         5.58387
     2020.54209         3.08553         5.54981
     2020.54483         1.29319         5.48893
     2020.54757         1.88685         5.51989
     2020.55030         1.66852         5.60967
     2020.55304         1.41618         5.76962
     2020.55578         3.92185         5.63340
     2020.55852         9.42751         5.56220
     2020.56125         7.25017         5.59419
     2020.56399         3.90984         5.47861
     2020.56673         2.20650         5.51679
     2020.56947         7.24116         5.53640
     2020.57221         9.22483         5.76446
     2020.57494         1.19349         5.67778
     2020.57768         2.69916         5.63134
     2020.58042         2.42982         5.64269
     2020.58316         3.22248         5.59522
     2020.58590         0.63115         5.60141
     2020.58863         8.30481         5.54775
     2020.59137         1.77448         5.51266
     2020.59411         7.70214         5.53537
     2020.59685         5.42380         5.95743
     2020.59958         5.42647         5.65920
     2020.60232         2.66213         5.51886
     2020.60506         4.03580         5.55910
     2020.60780        -0.09054         5.62102
     2020.61054        -1.66788         5.78716
     2020.61327         6.95879         5.59109
     2020.61601         7.40845         5.55394
     2020.61875         5.48612         5.55394
     2020.62149        -2.71922         5.55704
     2020.62423         7.10044         5.64785
     2020.62696        -2.09989         5.67158
     2020.62970        -1.39523         5.56426
     2020.63244         3.22144         5.65610
     2020.63518         8.50310         5.73453
     2020.63791         0.98376         5.98839
     2020.64065         2.58443         5.52092
     2020.64339         3.24009         5.50338
     2020.64613        10.65076         5.63031
     2020.64887         3.81342         5.53846
     2020.65160         4.17708         5.51266
     2020.65434         2.39075         5.53330
     2020.65708         6.21741         5.87178
     2020.65982        -3.73992         5.67984
     2020.66256         7.18474         5.56632
     2020.66529         7.56440         5.58490
     2020.66803         7.11707         5.56942
     2020.67077        16.06073         5.97085
     2020.67351         6.94139         5.54569
     2020.67624         8.57906         5.59316
     2020.67898         3.44072         5.59728
     2020.68172        -1.85961         5.57458
     2020.68446         4.18605         5.58696
     2020.68720         4.14971         5.56220
     2020.68993         1.55938         5.61483
     2020.69267         4.63104         5.65507
     2020.69541         3.16071         5.78407
     2020.69815         2.43837         5.60760
     2020.70089         3.29203         5.53330
     2020.70362        -0.16130         5.63031
     2020.70636        -1.28264         6.19581
     2020.70910        -0.25097         6.01832
     2020.71184         1.50369         5.79129
     2020.71457         8.68235         5.82122
     2020.71731         3.59002         5.69738
     2020.72008        -1.10335         5.84082
     2020.72279         4.53035         5.59728
     2020.72553         7.41401         5.62515
     2020.72826        12.79567         5.89552
     2020.73100         8.70734         5.82431
     2020.73374         7.36600         5.79232
     2020.73648         5.59067         5.64682
     2020.73921         1.59433         5.64475
     2020.74195         5.40199         5.51473
     2020.74469         6.72366         5.56942
     2020.74743         7.20332         5.57974
     2020.75017         5.41099         5.56632
     2020.75290         4.51465         5.61483
     2020.75564         3.80031         5.57768
     2020.75838         7.34498         5.58077
     2020.76112        10.31064         5.49512
     2020.76386         5.45731         5.50441
     2020.76659        11.45597         5.52195
     2020.76933        14.85963         5.69016
     2020.77207         7.73530         5.50441
     2020.77481        11.26196         5.67984
     2020.77754        13.16962         5.63340
     2020.78028        18.66429         5.75311
     2020.78302         9.51395         5.72937
     2020.78576        12.48762         5.60863
     2020.78850         5.53528         5.56220
     2020.79123        10.46694         5.59728
     2020.79397         5.71861         5.59832
     2020.79671         4.19027         5.70770
     2020.79945         1.21994         5.70667
     2020.80219        13.38760         5.66539
     2020.80492        11.67726         5.78510
     2020.80766         9.45293         5.60141
     2020.81040         9.67959         5.61689
     2020.81314        11.08626         5.73247
     2020.81587         8.08092         5.55394
     2020.81861         8.98958         5.64269
     2020.82135        10.35425         5.59006
     2020.82409         7.50491         5.59212
     2020.82683        10.08158         5.64888
     2020.82956        14.40524         5.74485
     2020.83230         8.57890         5.64269
     2020.83504         8.52457         5.66642
     2020.83778         6.58923         5.51679
     2020.84052         9.29090         5.78510
     2020.84325        11.76556         6.00593
     2020.84599         4.95822         5.89861
     2020.84873        10.29989         5.45178
     2020.85147         7.30855         5.51576
     2020.85420        16.44322         5.47551
     2020.85694        14.98488         5.55085
     2020.85968        14.24854         5.66952
     2020.86242        12.73621         5.58593
     2020.86516        18.98587         5.96569
     2020.86789         8.40854         5.79645
     2020.87063        21.68220         5.59419
     2020.87337        17.57286         5.61379
     2020.87611        14.83153         5.68190
     2020.87885         6.66419         5.87797
     2020.88158         4.10885         5.66436
     2020.88432        14.05652         5.90171
     2020.88706         7.42718         5.87281
     2020.88980        11.21485         5.61070
     2020.89253        10.84651         5.65404
     2020.89527         6.77417         5.77168
     2020.89801        10.49884         5.86146
     2020.90075         9.29050         5.67055
     2020.90349        13.29417         5.56942
     2020.90622         8.18283         5.57871
     2020.90896         4.59749         5.86869
     2020.91170         5.81716         6.00490
     2020.91444         7.98382         5.81709
     2020.91718         9.66049         5.59625
     2020.91991         3.66815         5.60348
     2020.92265         2.69081         5.76652
     2020.92539        -3.74652         5.55497
     2020.92813         0.13314         5.58593
     2020.93086         8.11681         5.60244
     2020.93360         2.78447         5.64372
     2020.93634         5.85313         5.63340
     2020.93908        -0.55420         5.53227
     2020.94182         0.28746         5.66642
     2020.94455         1.35513         5.57974
     2020.94729        -1.18221         5.56839
     2020.95003        -2.77355         5.63547
     2020.95277        -9.40988         5.60141
     2020.95551        -1.56422         5.66539
     2020.95824         2.62645         5.66849
     2020.96098         3.52411         5.78303
     2020.96372        -0.85323         5.68087
     2020.96646         0.89744         5.75724
     2020.96919         2.75810         5.65301
     2020.97193        -0.21723         5.54259
     2020.97467        14.14243         6.15350
     2020.97741        -3.48791         5.60348
     2020.98015         1.49176         5.83257
     2020.98288         2.10142         5.73763
     2020.98562         8.88008         5.56220
     2020.98836         7.19475         5.55910
     2020.99110         5.43041         5.49306
     2020.99384         5.12808         5.50441
     2020.99657         2.02274         5.56013
     2020.99931         1.25140         5.55601
     2021.00205         3.25807         5.50441
     2021.00479        16.37773         5.52402
     2021.00752         6.60540         5.52608
     2021.01026         4.50906         5.58180
     2021.01300         0.59472         5.55394
     2021.01574        -0.13861         5.75414
     2021.01848         3.58605         5.68397
     2021.02121         1.89372         5.56220
     2021.02395         0.34538         5.46107
     2021.02669        -0.90196         5.65198
     2021.02943         2.08671         5.89655
     2021.03216         8.26337         5.59832
     2021.03490        -0.64696         5.71802
     2021.03764         4.11870         5.83876
     2021.04038        -0.96464         5.71183
     2021.04312        -0.58197         5.51886
     2021.04585         1.82169         5.48687
     2021.04859         3.83236         5.51886
     2021.05133        -1.10398         5.55394
     2021.05407         1.78968         5.88416
     2021.05681         2.00535         5.66952
     2021.05954        -1.30099         5.47861
     2021.06228        -0.76932         5.50131
     2021.06502         0.04634         5.56117
     2021.06776         5.51900         5.54672
     2021.07049         3.27567         5.58077
     2021.07323        -0.50967         5.57252
     2021.07597        -4.59100         5.47655
     2021.07871        -0.20834         5.66230
     2021.08145         0.20932         5.50854
     2021.08418        -7.76201         5.48274
     2021.08692        -6.70835         5.66126
     2021.08966        -6.30769         5.53949
     2021.09240        -6.95002         5.61276
     2021.09514        -4.53336         5.86559
     2021.09787        -1.27669         5.62515
     2021.10061        -3.80103         5.47035
     2021.10335         1.36263         5.50441
     2021.10609        -5.72870         5.50131
     2021.10882         3.17796         5.53433
     2021.11156        -2.89637         5.48067
     2021.11430        -2.66771         5.51370
     2021.11704         3.02495         5.50544
     2021.11978        -0.51538         5.53330
     2021.12251        -2.34172         5.54156
     2021.12525        -6.12605         5.54775
     2021.12799        -1.07239         5.45178
     2021.13073        -2.46273         5.49925
     2021.13347        -4.93506         5.61276
     2021.13620         1.84660         5.61586
     2021.13894        -2.47373         5.58077
     2021.14168        -1.65907         5.61173
     2021.14442       -10.19841         5.72009
     2021.14715        -2.82674         5.47758
     2021.14989        -8.40408         5.52917
     2021.15263         1.71959         5.66023
     2021.15537         0.57925         5.70770
     2021.15811         1.57591         5.76343
     2021.16084        -2.06042         5.64578
     2021.16358        -2.76676         5.62721
     2021.16632         6.29791         5.61999
     2021.16906         3.22457         5.51989
     2021.17180        -3.82777         5.57045
     2021.17453        -3.79110         5.75517
     2021.17727        -1.35244         5.65094
     2021.18001        -4.33377         5.69532
     2021.18275        -7.58411         5.74279
     2021.18548         0.33355         5.62618
     2021.18822        -6.82678         5.46210
     2021.19096        -1.95512         5.44662
     2021.19370        -1.97246         5.56632
     2021.19644        -8.22679         5.48171
     2021.19917        -0.17013         5.55807
     2021.20191        -2.14546         5.51679
     2021.20465         0.29120         5.53021
     2021.20739         1.82486         5.48274
     2021.21013        -1.47547         5.77787
     2021.21286        -3.03981         5.74072
     2021.21560        -1.13914         5.53330
     2021.21834        -3.42148         5.51679
     2021.22108        -5.34282         5.64888
     2021.22381        -4.48615         5.49615
     2021.22655        -4.94049         5.58800
     2021.22929        -0.64982         5.45384
     2021.23203         3.48384         5.45591
     2021.23477        -0.43550         5.59625
     2021.23750        -0.82183         5.51060
     2021.24024        -1.85917         5.55497
     2021.24298         0.82150         5.46416
     2021.24572        -5.62884         5.48067
     2021.24846        -0.88918         5.80161
     2021.25119        -0.95351         5.55291
     2021.25393        -1.96785         6.22884
     2021.25667        -6.90618         5.48687
     2021.25941        -3.64752         5.47448
     2021.26214         1.88114         5.60244
     2021.26488        -1.43219         5.45178
     2021.26762         0.54947         5.59316
     2021.27036        -0.98086         5.74898
     2021.27310        -4.19320         5.46107
     2021.27583        -2.13054         5.46932
     2021.27857        -1.43987         5.61483
     2021.28131        -1.15921         5.67158
     2021.28405        -4.25054         5.57252
     2021.28679        -5.23188         5.53227
     2021.28952        -0.59422         5.64475
     2021.29226        -4.05555         5.55188
     2021.29500        -1.20689         5.55291
     2021.29774        -3.88423         5.79026
     2021.30047        -4.00356         5.67158
     2021.30321        -0.31390         5.56839
     2021.30595         2.53077         5.76859
     2021.30869        10.08543         5.81502
     2021.31143        -0.77191         5.48687
     2021.31416         0.89976         5.58696
     2021.31690         3.05642         5.51886
     2021.32021        -4.27640         7.69626
     2021.32295         2.27626         7.88821
     2021.32569        -2.92007         7.19061
     2021.32842         1.23959         7.29690
     2021.33116         9.26626         7.54044
     2021.33390        -0.12208         7.21125
     2021.33664         1.71958         7.26181
     2021.33937        -0.37375         7.18132
     2021.34211        -1.52909         7.46614
     2021.34485         8.42258         7.77160
     2021.34759       -11.02776         7.30516
     2021.35033         0.39690         7.53425
     2021.35306        -6.56643         7.22879
     2021.35580         0.32923         7.55386
     2021.35854        -6.05710         7.27936
     2021.36128        -3.83644         7.31341
     2021.36402        -5.75678         7.25562
     2021.36653       -12.25392         6.47134
     2021.36892        -2.95996         5.47345
     2021.37166        -1.95430         5.57664
     2021.37440        -4.62463         5.65714
     2021.37770        -0.80646         7.27936
     2021.38044        -2.42079         8.11008
     2021.38318         0.94487         7.87376
     2021.38592        -1.24147         7.59307
     2021.38866        -3.67080         7.34747
     2021.39214       -21.74277        95.09396
     2021.39413        -3.71947         7.40113
     2021.39687         0.58619         7.27317
     2021.39938        -0.81395         6.98628
     2021.40177        -0.70200         5.63753
     2021.40451         1.00367         5.60348
     2021.40782         3.87385         7.33199
     2021.41056         4.79851         7.30928
     2021.41330        -0.92983         7.52290
     2021.41603        -2.09416         7.28452
     2021.41877        -4.76750         7.39390
     2021.42151         2.51817         7.47336
     2021.42425         5.69883         7.74167
     2021.42699         0.56449         7.50742
     2021.42972         1.56616         7.29484
     2021.43246         7.85482         7.57553
     2021.43520         3.85849         7.20196
     2021.43794         6.50515         7.33405
     2021.44068        -0.50419         7.32889
     2021.44341        -4.91452         7.35263
     2021.44615        -2.34986         7.36811
     2021.44889         4.35481         7.45685
     2021.45163         3.04047         7.47749
     2021.45436        -5.29687         7.75302
     2021.45710         3.57080         7.73961
     2021.45984         1.84546         7.11321
     2021.46258         2.80213         7.25769
     2021.46527         3.03183         7.60339
     2021.46805         1.01845         7.09051
     2021.47079         1.80112         7.17513
     2021.47353         3.99778         7.40319
     2021.47627        -3.18056         7.79946
     2021.47901         0.56211         7.17410
     2021.48174        -7.22323         7.22363
     2021.48448       -10.57656         7.24221
     2021.48722        -7.25690         7.30928
     2021.48996        -7.02924         7.32786
     2021.49269        -4.03957         7.26078
     2021.49520        -8.62471         6.86761
     2021.49817        -5.25224         7.55179
     2021.50091       -10.77258         7.39597
     2021.50365        -8.42192         7.24737
     2021.50638       -17.16225         7.28452
     2021.50912        -5.04959         7.32889
     2021.51186        -2.64792         7.73238
     2021.51459        -4.04526         7.48162
     2021.51733        -4.36260         7.36501
     2021.52007        -4.83993         7.45685
     2021.52281        -6.24427         7.31651
     2021.52555        -3.07660         7.26904
     2021.52829        -5.42294         7.21950
     2021.53102        -4.45528         7.37946
     2021.53376        -0.15861         7.36811
     2021.53650       -13.95095         7.46511
     2021.53924        -1.57628         7.67047
     2021.54198         1.25138         7.29381
     2021.54471        -3.51796         7.28658
     2021.54745        -0.99129         7.34850
     2021.55019        -5.11963         7.26491
     2021.55293        -0.33296         7.31754
     2021.55566         1.14470         7.46924
     2021.55840         3.15036         7.46304
     2021.56114         2.33703         7.28039
     2021.56388        -2.78931         7.23395
     2021.56605         1.11084         5.54981
     2021.56878        -2.10449         5.58593
     2021.57152        -4.36083         5.71596
     2021.57426       -10.40017         5.56632
     2021.57700         1.36750         5.94092
     2021.57974        -2.00884         5.58800
     2021.58247        -4.01217         5.55188
     2021.58521        -6.86151         5.78200
     2021.58795        -5.05785         5.68397
     2021.59069        -1.13718         5.67571
     2021.59342        -6.02452         5.63959
     2021.59616        -6.89885         5.73247
     2021.59890        -0.10219         5.63443
     2021.60164        -4.17853         5.64063
     2021.60438        -4.95586         5.60141
     2021.60711         3.03080         5.61483
     2021.60985        -2.59554         5.59109
     2021.61259        -0.37887         5.58387
     2021.61533        -6.48421         5.64269
     2021.61807        -3.41554         5.58800
     2021.62080        -6.71688         5.63547
     2021.62354        -5.68022         5.69841
     2021.62628         6.04545         5.90480
     2021.62902        -3.60189         5.52711
     2021.63175        -4.75222         5.58284
     2021.63449        -6.06056         5.79851
     2021.63723         7.37810         5.90377
     2021.63997         1.04977         5.78510
     2021.64271         0.95043         5.66952
     2021.64544        -2.27790         5.49822
     2021.64818         1.35676         5.54362
     2021.65092         2.67742         5.64063
     2021.65366        -3.78491         5.56839
     2021.65639        -0.94825         5.54569
     2021.65913        -6.26058         5.52917
     2021.66187         2.53308         5.65198
     2021.66461         4.08374         5.56117
     2021.66735         3.81041         5.56117
     2021.67008        -2.14693         5.67468
     2021.67282         2.98474         5.89655
     2021.67556         7.36440         5.87694
     2021.67830        -0.51694         5.72318
     2021.68104         3.81473         5.57148
     2021.68377         1.30839         5.56013
     2021.68651        -1.98694         5.66230
     2021.68925         0.62572         5.62411
     2021.69199         1.33538         5.61070
     2021.69472        -1.68095         5.58903
     2021.69746         7.35371         5.71596
     2021.70020         3.59038         5.60863
     2021.70294        -0.99496         5.69532
     2021.70568         2.94570         5.93679
     2021.70841         5.94137         5.74072
     2021.71115         4.82403         5.75208
     2021.71389         3.60869         5.86249
     2021.71663         2.59736         5.71802
     2021.71937         2.39802         5.69429
     2021.72210        -2.48931         5.71905
     2021.72484        -2.73665         5.71493
     2021.72758        -2.00599         5.69325
     2021.73032         1.13968         5.98426
     2021.73305        -0.76566         5.76962
     2021.73579         0.60401         5.93576
     2021.73855         5.95065         6.00181
     2021.74127         6.11333         5.79026
     2021.74401        -0.65800         5.79129
     2021.74674        -0.48734         5.90996
     2021.74948         0.95133         5.82225
     2021.75222         5.43699         5.75001
     2021.75496        10.17265         5.85321
     2021.75706         6.95086         7.87892
     2021.76043        -7.38502         6.19684
     2021.76317         0.95965         5.73763
     2021.76591         0.70331         5.83670
     2021.76865         4.56597         5.69945
     2021.77138         7.99664         5.74485
     2021.77412         8.36230         5.77168
     2021.77686         4.98597         5.67055
     2021.77960         6.86263         5.92957
     2021.78234         3.16829         5.85217
     2021.78507        11.77796         5.61070
     2021.78781        10.50162         5.62308
     2021.79055         5.21729         5.80780
     2021.79329         2.27295         5.76239
     2021.79603         0.97061         5.70977
     2021.79876         1.85828         5.66642
     2021.80150         9.78094         5.90790
     2021.80424        13.66261         6.14731
     2021.80698        -0.30273         5.77581
     2021.80971         2.64293         5.85527
     2021.81245        11.41060         5.96775
     2021.81519         6.81826         5.71905
     2021.81793         2.30493         5.67055
     2021.82067         5.23759         5.85424
     2021.82340         5.48525         5.93370
     2021.82614        -3.48808         5.79232
     2021.82888         7.62558         5.79335
     2021.83162         9.40924         5.75930
     2021.83436        10.94991         6.02038
     2021.83709         1.07657         5.99149
     2021.83983        -7.75976         6.26702
     2021.84257        -4.76910         5.91306
     2021.84531         0.88956         5.94711
     2021.84804         2.42523         5.79851
     2021.85078         4.95189         5.79645
     2021.85352        -0.10644         5.80367
     2021.85626         7.45522         5.92131
     2021.85900        -1.76312         5.66126
     2021.86447        -2.06179         5.98736
     2021.86721         0.14688         6.20613
     2021.86995         3.51454         6.03586
     2021.87269        -4.55180         6.03277
     2021.87542         5.62587         5.84598
     2021.87816         2.91753         5.85940
     2021.88090         0.50720         5.75208
     2021.88364       -10.69514         5.66023
     2021.88637        -1.89448         5.72731
     2021.88911        -3.67981         5.68190
     2021.89185         4.34485         5.83154
     2021.89459         1.66352         5.88726
     2021.89733        -3.84182         5.68294
     2021.90007        -9.56516         5.77478
     2021.90280        -8.09849         5.75104
     2021.90554        -2.09383         5.73350
     2021.90828        -3.44016         5.85837
     2021.91102         0.79650         5.75517
     2021.91375       -10.18084         5.83257
     2021.91649        -4.36017         5.96672
     2021.91923         1.33349         5.81193
     2021.92198        -6.17485         6.06682
     2021.92470        -8.86018         5.80780
     2021.92744        -2.45152         5.83360
     2021.93018        -4.56985         5.76652
     2021.93292         4.88581         5.92647
     2021.93566        16.42647         6.16692
     2021.93839         5.05014         5.98839
     2021.94113         7.98280         6.31861
     2021.94387        15.09247         5.97188
     2021.94661         3.83713         5.86249
     2021.94935         4.28279         5.88107
     2021.95208         2.72346         5.80883
     2021.95482         0.83412         5.82844
     2021.95756         2.65279         5.85217
     2021.96030        -2.18055         5.82534
     2021.96303        -0.37089         5.89552
     2021.96577         3.36378         5.84392
     2021.96851         4.82944         5.85011
     2021.97125         0.04011         5.95124
     2021.97399         5.59077         5.88004
     2021.97672         7.49543         5.87075
     2021.97946         6.39410         5.82947
     2021.98220         7.69776         5.92028
     2021.98494        18.96243         5.82844
     2021.98767        20.68209         5.80986
     2021.99041        19.48975         5.79232
     2021.99315         9.84042         5.79748
     2021.99589         6.58808         6.06269
     2021.99863       -10.74425         5.79645
     2022.00136        -0.84259         5.91100
     2022.00410         7.39107         5.90687
     2022.00684       -11.70826         6.04618
     2022.00958        -6.67360         5.85630
     2022.01232       -13.59593         6.14938
     2022.01505        -0.22927         5.89242
     2022.01779         3.33739         6.05753
     2022.01937        -8.78995        18.67928
     2022.02345        -7.50944         6.68908
     2022.02600        -9.15461         6.05340
     2022.02874        -8.90695         6.12874
     2022.03148       -15.17729         5.87281
     2022.03422        -8.02962         6.04618
     2022.03696        -9.72496         5.81915
     2022.03969       -16.95730         6.21026
     2022.04243        -7.10463         5.84185
     2022.04517        -2.51997         5.92028
     2022.04791        -3.84630         5.82534
     2022.05065        -8.33564         5.85630
     2022.05338        -8.28598         5.88313
     2022.05612       -14.24231         5.82122
     2022.05886       -11.31965         5.85527
     2022.06160       -10.10698         5.80161
     2022.06433        -1.93532         5.84908
     2022.06707        -8.96866         5.79232
     2022.06981        -3.97699         5.82431
     2022.07255       -10.91533         5.69429
     2022.07529        -3.29566         5.72524
     2022.07802        -0.38700         5.79232
     2022.08076        -4.92234         5.75311
     2022.08350         2.15533         5.74176
     2022.08624        -1.65501         5.72834
     2022.08898         0.34866         5.71183
     2022.09171        -6.26768         5.74072
     2022.09445        -1.48902         5.82844
     2022.09719        -6.65635         5.71493
     2022.09993        -7.95769         5.86869
     2022.10266        -8.49602         5.93267
     2022.10540        -1.90636         5.69945
     2022.10814         4.01130         5.72524
     2022.11088         0.42297         5.84185
     2022.11362         3.23963         5.69429
     2022.11635         1.32530         5.62927
     2022.11909         0.54096         5.67571
     2022.12183         5.22062         5.73144
     2022.12457        -1.12871         5.96878
     2022.12731        -3.48305         5.68190
     2022.13004        -6.90638         5.72524
     2022.13278        -6.95772         5.82947
     2022.13552        -1.27206         5.73453
     2022.13826         8.17961         5.77478
     2022.14373        -7.95507         5.68809
     2022.14647         3.36760         5.96878
     2022.14921        -2.76374         5.90687
     2022.15195        -0.52307         5.98323
     2022.15468         3.49759         5.74485
     2022.15742        -0.09675         5.74898
     2022.16016        -2.63608         5.79748
     2022.16290        -9.69942         5.95021
     2022.16564        -1.75475         5.72318
     2022.16837        -2.68909         5.73247
     2022.17111        -1.55043         5.70564
     2022.17385         1.44424         5.69119
     2022.17659         1.14690         5.66436
     2022.17932        -5.44143         5.69841
     2022.18206        -3.00077         5.76136
     2022.18480        -2.51711         5.77994
     2022.18754         1.09056         5.73556
     2022.19028        -4.76678         5.75414
     2022.19301        -1.33811         5.74176
     2022.19575         5.05555         5.72112
     2022.19849        -2.46779         5.76446
     2022.20123        -7.11512         5.75827
     2022.20397         2.06954         5.69325
     2022.20670        -4.98479         5.86353
     2022.20944         3.39187         5.85424
     2022.21218         7.32053         5.78200
     2022.21492        -7.79580         5.68500
     2022.21765        -2.30014         5.70461
     2022.22039        -5.50847         5.66746
     2022.22313        -5.24281         5.99665
     2022.22587        -9.39415         6.03689
     2022.22861        -0.03548         5.82225
     2022.23134        -1.18682         5.65404
     2022.23408         1.14385         5.68913
     2022.23682        -4.04449         5.85424
     2022.23956        -4.26383         5.81399
     2022.24230        -9.52416         6.15350
     2022.24452         1.08493         8.66836
     2022.24778         4.98316         6.17414
     2022.25051        -9.27318         6.18033
     2022.25325        -1.68651         5.84598
     2022.25598        -2.77684         5.79955
     2022.25872         1.47682         5.80677
     2022.26146        -4.31952         5.72009
     2022.26420         0.09515         5.71905
     2022.26694        -6.92119         5.97704
     2022.26967        -4.93552         5.75930
     2022.27241         3.80814         5.73763
     2022.27515        -1.04620         6.05340
     2022.27789         0.04547         5.69635
     2022.28062        -4.88787         5.72318
     2022.28336         0.24780         5.72834
     2022.28610        -1.79754         5.82431
     2022.28884         1.13812         5.89139
     2022.29158        -5.64521         5.71905
     2022.29431        -7.37555         5.69222
     2022.29705        -7.50488         5.72524
     2022.29979         0.22378         5.73660
     2022.30253        -3.66956         5.89036
     2022.30527        -3.09889         5.80058
     2022.30800        -5.36023         5.72524
     2022.31074        -6.85656         5.68500
     2022.31348        -0.87990         5.74692
     2022.31622        -7.81124         5.73040
     2022.31895       -23.32457         5.85527
     2022.32169        -2.39691         5.92647
     2022.32443        -4.04924         5.66849
     2022.32717       -10.20158         5.75104
     2022.32991        -8.02292         5.73763
     2022.33263       -14.86224         5.85733
     2022.33538        -5.56859         5.86146
     2022.33812        -9.38592         5.88107
     2022.34086        -5.22126         5.69016
     2022.34360        -6.44660         5.72524
     2022.34633        -4.59193         5.71596
     2022.34907        -4.50227         5.72834
     2022.35181        -4.06561         5.66333
     2022.35455        -7.27894         5.72112
     2022.35729        -4.43829         5.70254
     2022.36002        -2.97561         5.72421
     2022.36276        -4.36595         5.72421
     2022.36550        -8.34829         5.77994
     2022.36824        -8.13862         5.74485
     2022.37097       -10.20396         5.70461
     2022.37371       -10.46929         5.69532
     2022.37645       -10.26563         5.88313
     2022.37919        -8.36997         5.89552
     2022.38193       -13.08730         5.81502
     2022.38466       -13.94864         5.65817
     2022.38740       -22.69497         5.69635
     2022.39014        -5.38531         5.83050
     2022.39288        -5.19965         5.70048
     2022.39561        -7.45398         5.82018
     2022.39835        -6.74932         5.72009
     2022.40109       -12.64465         5.81399
     2022.40383        -2.16699         5.61689
     2022.40657        -2.54933         5.61070
     2022.40930       -10.42866         5.75724
     2022.41204        -7.60500         5.92131
     2022.41478        -7.22833         5.74279
     2022.41752        -9.96767         5.85527
     2022.42026       -14.06601         5.84289
     2022.42299       -10.52634         5.65198
     2022.42573       -11.83368         5.83257
     2022.42847        -9.37001         5.67055
     2022.43121        -7.52135         5.84289
     2022.43394         1.06031         5.84908
     2022.43668       -14.59402         5.64578
     2022.43942       -13.76536         5.83670
     2022.44216        -4.51569         5.76343
     2022.44490         0.90797         5.79232
     2022.44763        -0.22837         5.71286
     2022.45037        -5.82570         5.72731
     2022.45311       -12.81404         5.66333
     2022.45585        -4.81738         5.88623
     2022.45859       -18.25571         5.73660
     2022.46132       -14.20405         5.58800
     2022.46406        -7.72038         5.62308
     2022.46680        -8.69172         5.74898
     2022.46954        -7.70606         5.83876
     2022.47227       -19.91939         5.74795
     2022.47501         1.04827         5.77478
     2022.47775        -8.87206         5.77994
     2022.48049        -6.99940         5.63650
     2022.48323        -2.57974         5.64166
     2022.48596         0.19593         5.70977
     2022.48870        -8.24641         5.76962
     2022.49144       -12.29974         5.67674
     2022.49418       -10.26508         5.80677
     2022.49692        -5.23142         5.62927
     2022.49965       -11.35075         5.64888
     2022.50513        -7.70042         5.98633
     2022.50787        10.34124         6.07508
     2022.51060        -9.11110         6.03896
     2022.51334        -7.17943         5.76239
     2022.51608       -12.98977         5.61483
     2022.51882       -15.65710         5.66436
     2022.52156       -13.49244         5.65094
     2022.52429        -9.46978         5.66436
     2022.52703        -3.01311         5.73350
     2022.52977         4.32255         5.78923
     2022.53251        -9.41078         5.76343
     2022.53525       -17.68212         5.92235
     2022.53798        -7.87246         5.74279
     2022.54056       -10.82265         6.05753
     2022.54359        -7.98924         5.91925
     2022.54620        -9.60646         5.68087
     2022.54893        -2.35880         5.68087
     2022.55167        -1.76214         5.76859
     2022.55441        -8.18247         5.64888
     2022.55715         4.40919         5.66539
     2022.55989       -10.94215         5.63547
     2022.56262       -10.95648         5.74176
     2022.56536       -20.73782         5.66539
     2022.56810        -6.59015         5.63443
     2022.57084        -6.16149         5.66333
     2022.57357        -1.89083         5.81606
     2022.57631        -7.48516         5.62927
     2022.57905        -8.16550         5.70151
     2022.58179        -1.84983         5.75104
     2022.58453         0.34983         5.86869
     2022.58726       -13.45251         5.65817
     2022.59000        -9.07584         5.72009
     2022.59274        -9.05118         5.56736
     2022.59548        -4.07851         5.60554
     2022.59822       -13.65585         5.66849
     2022.60095       -14.85719         5.69222
     2022.60369       -11.55352         5.64269
     2022.60643         1.90314         5.76859
     2022.60917        -3.72819         5.76239
     2022.61190        -0.24553         5.96466
     2022.61464        -1.28487         5.67571
     2022.61738         6.00480         5.58800
     2022.62012        -6.45754         5.69325
     2022.62286         2.94513         5.70564
     2022.62559         0.01479         5.72215
     2022.62833        -6.03755         5.66952
     2022.63107         1.13512         5.67674
     2022.63381         8.64178         5.57974
     2022.63655         2.77045         5.58387
     2022.63928         3.78611         5.74176
     2022.64202         2.49977         6.10603
     2022.64476         4.03444         6.02761
     2022.64750         0.36010         5.75104
     2022.65023        -8.35223         6.10397
     2022.65297         9.95443         5.78613
     2022.65571         6.89909         5.75620
     2022.65845         6.22576         5.81296
     2022.66119         6.11542         5.57355
     2022.66392         6.83908         5.60348
     2022.66666         3.43475         5.70770
     2022.66940         8.17541         5.58696
     2022.67214         4.79208         5.63753
     2022.67488        -3.78326         5.65714
     2022.67761         4.17240         5.64372
     2022.68035        11.07207         5.59212
     2022.68309         9.05973         5.83257
     2022.68583         4.95740         5.74795
     2022.68856         6.32706         5.95537
     2022.69130         6.08972         5.68809
     2022.69404        13.11239         5.84805
     2022.69678        -2.47295         5.82741
     2022.69952        -1.14228         5.66849
     2022.70225         9.00738         5.92131
     2022.70499         8.60804         5.97291
     2022.70773         4.43471         5.73350
     2022.71047         9.77937         5.69325
     2022.71321        11.06504         5.58696
     2022.71868         5.59336         5.56839
     2022.72142        12.19503         5.61792
     2022.72416         5.09369         5.90274
     2022.72689         7.11436         5.66746
     2022.72963         7.39602         5.60863
     2022.73238         7.30868         5.62618
     2022.73511         6.06535         5.53433
     2022.73785         5.98801         5.60863
     2022.74058        16.58368         5.89552
     2022.74332        15.71134         5.91100
     2022.74606         3.82600         5.67055
     2022.74880         6.19267         5.68913
