# ================= DQRFIT RESULTS ================
# INPUT FILE: series/SHLT.rad
# OUTPUT: LDETRENDED
# FILTER FUNCTION: f(t)
# f(t)=+line(t)
# line(t)=+P 1+P 2*t
# heav(t)=(t<0?0:1)
# TOTAL OBSERVATIONS MTOT=  477
# INITIAL TIME INTERVAL= 2022.7488 - 2021.4384 =  1.3104
# TOTAL OBSERVATIONS AFTER PREFILTER M=  471
# TIME-SPAN= 2022.7488 - 2021.4384 =  1.3104
# OBSERVATIONS: USED M=   471 REJECTED MTOT-M=     6 %USED=   98.7421
# N=  2 PARAMETERS
# MAXSIG= 175.00000
# MAXRES=  24.01007
# SCALE FACTOR FOR LENGTHS: SCL=  10.00000
# SCALE FACTOR FOR SIGMAS: SCLSIG=   1.00000
# CHI^2=    654.085 DOF=   469 CHI^2/DOF=   1.39464
# RMS=      8.287 SDEV=      8.296 MEAN=   -0.07906
#  P #       PARAMETER +-    SIGMA %error PARAMETER NAME
# P 1 =      2472.51883 +- 2099.795  84.93 YZERO                              
# P 2 =        -1.39805 +-    1.038  74.28 SLOPE                              
#       T            LDETRENDED       SIG_OBS
     2021.43839       -10.99839        19.08884
     2021.44068        -6.30020        10.34629
     2021.44341        -8.36037        10.84937
     2021.44615        -0.87054        10.71474
     2021.44889        -9.41071        11.12571
     2021.45163        -5.66289        10.96628
     2021.45436         1.76894        11.29104
     2021.45710        -3.88823        10.92141
     2021.45984        -8.60940        10.67695
     2021.46258         0.69243        10.98754
     2021.46528        -8.38780        11.26152
     2021.46805         0.25508        10.67341
     2021.47079         7.18391        10.57421
     2021.47353         1.41074        10.66278
     2021.47627         2.05456        11.22727
     2021.47901        -0.13061        11.20129
     2021.48174       -13.33178        10.75962
     2021.48448         1.71905        10.97101
     2021.48722       -13.25313        10.46438
     2021.48996        -4.63930        10.50453
     2021.49269       -12.14847        10.74899
     2021.49520        -9.85296         9.57631
     2021.49817        -2.33081        11.12689
     2021.50091        -6.75799        10.52815
     2021.50365        -7.13316        10.41714
     2021.50638        -3.39333        10.40533
     2021.50912       -10.82050        10.44667
     2021.51186        -8.92468        12.11535
     2021.51459         1.55614        11.11508
     2021.51733         1.35998        10.35455
     2021.52007         5.14081        10.83047
     2021.52281         1.39963        10.62263
     2021.52555        -4.89954        10.44312
     2021.52829         4.24629        10.48091
     2021.53102         0.63412        10.44548
     2021.53376        11.39394        10.30968
     2021.53650         4.18977        10.72891
     2021.53924        15.64260        11.24144
     2021.54198         6.29043        10.29078
     2021.54471         2.07126        10.23528
     2021.54745         9.58108        10.52815
     2021.55019         9.49591        10.37581
     2021.55293        -0.35326        10.36872
     2021.55566         6.98857        10.34983
     2021.55840        -7.05861        10.44430
     2021.56114         1.73822        10.13253
     2021.56388         3.02405        10.04278
     2021.56605         4.56008         7.90999
     2021.56878         6.36591         7.94896
     2021.57152         4.54673         8.06706
     2021.57426         2.02656         7.94542
     2021.57700         5.69039         8.59140
     2021.57974        -4.13378         7.93243
     2021.58247        -2.05895         7.96904
     2021.58521        -4.43713         7.91944
     2021.58795        -0.80930         8.09894
     2021.59069        -3.43547         8.05288
     2021.59342         6.11936         7.97967
     2021.59616        -1.29282         8.47684
     2021.59890        11.13401         8.14264
     2021.60164        -4.00016         8.03517
     2021.60438         7.02967         7.86748
     2021.60711        10.65749         8.12965
     2021.60985        -1.65268         7.91471
     2021.61259         2.10715         8.04344
     2021.61533         0.94998         8.26309
     2021.61807        16.08080         8.02808
     2021.62080        15.21563         7.98793
     2021.62354        12.08146         7.96431
     2021.62628        -4.72271         8.37410
     2021.62902        15.42612         8.02336
     2021.63175        16.80094         8.13437
     2021.63449         6.43277         8.36465
     2021.63723         5.85760         8.09067
     2021.63997         8.04343         8.12256
     2021.64271         0.36825         7.92416
     2021.64544         1.67608         7.87102
     2021.64818         3.54191         7.90527
     2021.65092         7.71874         8.26309
     2021.65366         1.83956         7.89464
     2021.65639         3.95839         7.93479
     2021.65913         1.03622         7.87810
     2021.66187         5.59405         7.88401
     2021.66461         2.14787         7.82378
     2021.66735         5.21270         7.79898
     2021.67008         4.58653         7.95368
     2021.67282         7.57436         8.55243
     2021.67556        14.50519         8.28907
     2021.67830         7.93401         8.51109
     2021.68104        10.86084         7.96313
     2021.68377         7.28467         8.05407
     2021.68651         5.38850         8.31269
     2021.68925         9.64232         7.90054
     2021.69199         4.94615         8.08595
     2021.69472        -0.04802         8.05052
     2021.69746         6.13281         8.32214
     2021.70020         9.47663         8.14500
     2021.70294         4.87246         8.18515
     2021.70568        14.47829         8.61147
     2021.70841         7.70812         7.97376
     2021.71115         5.17194         8.23239
     2021.71389        -0.70223         8.68942
     2021.71663         4.58460         8.65399
     2021.71937         4.10143         8.08359
     2021.72210        -0.47674         8.20405
     2021.72484        -2.05392         8.08477
     2021.72758        -6.89209         7.95132
     2021.73032        -4.30326         8.49692
     2021.73305         3.67257         8.09658
     2021.73579        21.07439         8.58549
     2021.73853        14.09722         8.86065
     2021.74127         8.53405         8.31978
     2021.74401        -4.11612         8.18161
     2021.74674         2.13070         8.43905
     2021.74948       -10.08647         8.12374
     2021.75222         8.28636         8.16035
     2021.75496         6.05719         8.38237
     2021.75706        13.01212        11.21074
     2021.76043        16.45184         8.75555
     2021.76317        -2.26833         8.20877
     2021.76591        -3.48750         7.97140
     2021.76865        -2.05467         7.98557
     2021.77138        -3.14785         8.16507
     2021.77412         1.42298         8.25955
     2021.77686        10.14981         8.07414
     2021.77960        -0.70336         7.95250
     2021.78234         1.10946         7.97258
     2021.78507         9.78429         7.98793
     2021.78781         4.49912         8.00447
     2021.79055         1.57695         7.88047
     2021.79329         3.65877         8.10603
     2021.79603         4.34360         8.04698
     2021.79876        -4.93957         8.05170
     2021.80150         3.25126         8.25128
     2021.80424        10.02409         8.79452
     2021.80698        -2.05209         8.56660
     2021.80971        12.59474         8.55006
     2021.81245        11.28457         8.92679
     2021.81519         3.12040         8.13437
     2021.81793         2.68022         8.52054
     2021.82067        -3.58495         8.34812
     2021.82340        -1.69212         8.69296
     2021.82614         6.16471         8.34222
     2021.82888         2.55653         8.12020
     2021.83162         6.64936         8.09067
     2021.83436         2.17619         8.17098
     2021.83709        -4.95398         8.29734
     2021.83983         2.54084         8.84058
     2021.84257        -0.20733         8.58431
     2021.84531         2.79650         8.40599
     2021.84804         4.21633         8.44968
     2021.85078        -1.54884         8.57841
     2021.85352         7.42898         8.61502
     2021.85626         5.34581         8.65281
     2021.85900         0.34064         8.44732
     2021.86447        -2.39071         8.66107
     2021.86721        -7.61188         8.82877
     2021.86995         1.03095         9.04842
     2021.87269        -1.18622         8.70713
     2021.87542        -2.04340         8.41425
     2021.87816        -0.59557         8.12020
     2021.88090        -2.66974         8.31505
     2021.88364        -6.65691         8.39772
     2021.88637        -6.03808         8.18751
     2021.88911        -7.08626         7.95723
     2021.89185        -8.57743         8.68233
     2021.89459         1.66340         8.40717
     2021.89733        -0.72577         8.06587
     2021.90006        -4.86795         8.53353
     2021.90280        -9.02612         8.43197
     2021.90554        -4.53329         8.16389
     2021.90828        -1.86546         8.62210
     2021.91102        -1.51564         8.07768
     2021.91375        -2.52581         8.29970
     2021.91649        -1.48498         8.34930
     2021.91923        -4.70715         8.48865
     2021.92197       -12.18833         8.54298
     2021.92470        -7.98150         8.17452
     2021.92744        -2.88867         8.30206
     2021.93018        -4.50884         8.37292
     2021.93292         4.07999         8.56896
     2021.93566         2.15281         8.59966
     2021.93839         3.80964         8.66343
     2021.94113        10.44047         8.50519
     2021.94387         3.85530         8.38119
     2021.94661        -4.44188         8.27018
     2021.94935         2.78795         8.26900
     2021.95208        -3.65322         8.22294
     2021.95482         0.10361         8.34340
     2021.95756         7.41243         8.28671
     2021.96030        -5.12574         8.18161
     2021.96303        -0.41591         8.46622
     2021.96577        -0.10208         8.18397
     2021.97125        23.30657         8.40599
     2021.97399        -0.70760         8.35993
     2021.97672         4.01323         8.44496
     2021.97946         7.56906         8.51582
     2021.98220         0.02388         8.26191
     2021.98494        14.40771         8.14736
     2021.98767        23.09654         7.96904
     2021.99041        23.30337         7.99147
     2021.99315        23.38519         8.10957
     2022.00684       -11.07367         8.36347
     2022.00958        -2.95384         8.41544
     2022.01232       -18.92201         8.28317
     2022.01779         3.29264         8.49692
     2022.01937        -0.98515        22.61870
     2022.02345        -8.35545         9.31768
     2022.02600       -12.92287         8.47448
     2022.02874       -15.12505         8.60793
     2022.03148       -20.40422         8.42724
     2022.03422       -12.00339         8.52290
     2022.03696        -9.89856         8.30088
     2022.03969       -14.57174         9.00945
     2022.04243       -10.86791         8.06706
     2022.04517        -2.47008         8.12965
     2022.04791         1.51175         8.39182
     2022.05065       -10.16343         8.29262
     2022.05338        -9.12060         8.35757
     2022.05612       -22.54877         8.45913
     2022.05886       -12.83294         8.06115
     2022.06160       -10.96911         8.04934
     2022.06433        -6.83229         8.32450
     2022.06707        -9.41846         8.07768
     2022.06981        -1.56363         8.33631
     2022.07255       -12.05980         7.98203
     2022.07529         2.50002         7.91944
     2022.07802        -2.09715         7.94542
     2022.08076         0.85168         8.26309
     2022.08350        -5.83249         8.12138
     2022.08624        -5.81167         8.03399
     2022.08898         8.11016         7.96549
     2022.09171        -1.05001         7.81315
     2022.09445        -7.04118         8.15445
     2022.09719        -7.12736         8.01391
     2022.09993       -10.08353         8.21349
     2022.10266       -10.40170         8.12256
     2022.10540        -0.50387         7.90763
     2022.10814        -2.45404         7.76119
     2022.11088        -1.75022         7.96077
     2022.11362         5.72561         8.21940
     2022.11635        -5.23856         7.83913
     2022.11909        -1.77073         7.81669
     2022.12183         2.82109         7.89936
     2022.12457        -7.13408         8.19814
     2022.12731         3.70075         7.83441
     2022.13004        -9.99542         7.92770
     2022.13278       -12.62460         7.84504
     2022.13552         2.91623         7.91235
     2022.13826        -0.08794         7.94188
     2022.14099        -2.00911         7.89936
     2022.14373        -8.48929         7.83087
     2022.14647         0.98654         7.79308
     2022.14921        -2.31063         8.18043
     2022.15195        -5.60080         8.07060
     2022.15468        -8.73597         7.88165
     2022.15742         0.42785         8.02808
     2022.16016        -5.24332         7.98085
     2022.16290        -7.16849         8.12965
     2022.16564         3.36834         7.92888
     2022.16837        -7.19184         7.91944
     2022.17111        -5.59801         8.00328
     2022.17385        -4.53518         7.83205
     2022.17659        -3.28635         7.79898
     2022.17932        -8.50953         7.79189
     2022.18206        -2.36470         7.79426
     2022.18480        -9.04587         7.77300
     2022.18754        -1.50604         8.01982
     2022.19028        -7.49822         7.99620
     2022.19301         4.18161         7.98085
     2022.19575        -0.15356         8.11075
     2022.19849        -2.50873         7.95250
     2022.20123       -11.55790         8.07178
     2022.20397         0.64892         8.14382
     2022.20670       -11.65325         8.66816
     2022.20944         0.88958         8.44024
     2022.21218         0.76541         8.32686
     2022.21492        -5.53077         7.93361
     2022.21765        -6.03694         8.10839
     2022.22039        -8.02711         8.18515
     2022.22313        -9.43828         8.15917
     2022.22587        -6.31546         8.70831
     2022.22861        -2.86463         8.32214
     2022.23134        -4.59680         8.10839
     2022.23408        -0.01897         8.18279
     2022.23682         7.70886         8.44614
     2022.23956        -2.71432         8.16862
     2022.24230        -6.29348         8.64218
     2022.24504        -5.11966         9.29642
     2022.24777         2.63917         9.23619
     2022.25051        -7.05800         9.10511
     2022.25325         1.77182         8.65989
     2022.25598         6.44865         8.40599
     2022.25872       -11.23552         8.17452
     2022.26146        -6.92470         8.06115
     2022.26420         2.25813         8.09540
     2022.26694       -13.45004         8.90553
     2022.26967         2.59579         8.38591
     2022.27241         5.51661         8.25719
     2022.27515         7.46344         8.32214
     2022.27789         0.59227         8.18869
     2022.28062        -2.70490         8.06115
     2022.28336         2.32193         8.16271
     2022.28610         1.04875         8.30443
     2022.28884        -2.09242         8.31978
     2022.29158        -9.04059         8.07178
     2022.29431        -8.26576         8.11429
     2022.29705        -7.38294         8.47448
     2022.29979       -10.82311         8.02927
     2022.30253        -2.63628         8.35521
     2022.30527        -7.18845         8.01391
     2022.30800        -3.44563         8.12374
     2022.31074         2.65820         8.19696
     2022.31348        -6.49697         8.05288
     2022.31622        -9.12714         8.00447
     2022.31895       -20.09532         8.36229
     2022.32169        -5.16149         8.25601
     2022.32443        -4.36366         7.89109
     2022.32717       -18.26783         8.25601
     2022.32991        -7.94500         7.84031
     2022.33264        -8.51318         8.18279
     2022.33538        -3.04935         8.40599
     2022.33812        -7.25952         8.51818
     2022.34086        -7.51969         8.06469
     2022.34360        -7.90587         8.20168
     2022.34633        -4.65304         8.12374
     2022.34907        -9.55221         8.24538
     2022.35181        -7.18638         7.96077
     2022.35455        -1.38556         7.97376
     2022.35728       -10.98173         7.87574
     2022.36002        -3.26990         7.83913
     2022.36276        -6.39507         7.96904
     2022.36550        -6.89725         8.01273
     2022.36824       -11.47342         8.05879
     2022.37097       -16.03059         8.05052
     2022.37371       -17.34276         7.87102
     2022.37645         1.16607         8.18279
     2022.37919         1.23089         8.31151
     2022.38193       -15.30628         8.15445
     2022.38466       -10.51345         8.05288
     2022.38740       -22.30562         8.09186
     2022.39014        -3.68480         8.06587
     2022.39288         0.80703         8.07532
     2022.39561        -3.42214         8.17688
     2022.40109        -2.67649         8.12610
     2022.40383        -2.29266         7.90172
     2022.40657       -13.52183         8.07178
     2022.40930        -9.02100         7.98439
     2022.41204        -3.03917         7.93243
     2022.41478         0.67665         7.87220
     2022.41752        -2.37452         8.20168
     2022.42026        -2.19369         8.63155
     2022.42299        -5.70086         7.93951
     2022.42573        -4.20804         8.51227
     2022.42847        -3.64021         8.04580
     2022.43121       -12.90438         8.32568
     2022.43394         3.31045         8.30443
     2022.43668       -18.37073         7.99856
     2022.43942        -0.66790         8.42134
     2022.44216        -0.24007         8.36584
     2022.44490         4.42976         8.06942
     2022.44763         1.98758         8.01155
     2022.45037        -2.75759         8.11193
     2022.45311        -4.31676         8.03753
     2022.45585        -1.08493         8.27136
     2022.45859       -22.03910         7.85448
     2022.46132        -5.54228         8.02336
     2022.46406       -10.73645         7.83559
     2022.46680        -6.60162         8.06351
     2022.46954        -5.21679         8.16271
     2022.47227       -23.29897         8.09540
     2022.47501         2.17086         8.00328
     2022.47775        -8.61731         8.15208
     2022.48049         0.38052         8.03399
     2022.48323         3.63934         7.94188
     2022.48596        11.56717         8.36938
     2022.48870        -7.26000         8.21467
     2022.49144         0.97783         8.24302
     2022.49418         0.90565         8.12965
     2022.49692         0.54148         8.31033
     2022.49965         2.37831         8.08359
     2022.50239       -26.37986         8.10130
     2022.50513        -4.80803         8.32332
     2022.50787         8.97279         8.38591
     2022.51060        -5.11638         8.51936
     2022.51334        -8.40255         8.28553
     2022.51608        -9.95872         8.08359
     2022.51882       -10.67690         8.14027
     2022.52156        -3.88307         8.26782
     2022.52429        -2.03124         8.08359
     2022.52703        -1.22641         8.17334
     2022.52977        14.21641         8.24774
     2022.53251         0.69924         8.00683
     2022.53525        -4.19793         8.65871
     2022.53798         0.88390         8.20523
     2022.54072        -4.44627         8.04698
     2022.54346         1.15055         8.20641
     2022.54620        -2.40262         7.94069
     2022.54893         0.01621         7.99502
     2022.55167         7.74704         8.06587
     2022.55441         8.21086         8.03753
     2022.55715        11.49669         8.21940
     2022.55989        -1.49848         8.04580
     2022.56262         0.29235         7.93361
     2022.56536       -15.61283         8.01155
     2022.56810         1.83300         8.13909
     2022.57084        -0.44217         8.12374
     2022.57357         8.19066         8.24184
     2022.57631        -3.95352         8.05525
     2022.57905        -4.67469         8.22766
     2022.58179        11.40414         8.30088
     2022.58453         8.48697         8.44378
     2022.58726         0.00980         8.23121
     2022.59000        23.00762         8.34930
     2022.59274        -2.15955         8.10721
     2022.59548         1.57728         8.05170
     2022.59822        -8.60789         7.76473
     2022.60095        -2.62507         8.12728
     2022.60369         2.57276         8.01509
     2022.60643        16.43159         8.15090
     2022.60917         7.89442         8.15090
     2022.61190         6.36324         8.79806
     2022.61464         9.51207         8.14146
     2022.61738        11.54390         7.96786
     2022.62012         3.26773         8.03399
     2022.62286        -6.33545         7.88755
     2022.62559         8.86438         8.03399
     2022.62833         3.08121         7.91471
     2022.63107        12.89004         7.90645
     2022.63381         4.13787         7.87456
     2022.63655        13.08369         7.93951
     2022.63928         1.47352         8.09658
     2022.64202         3.44735         8.62210
     2022.64476         9.19218         8.58195
     2022.64750         6.17300         8.08359
     2022.65023        -2.55617         8.52999
     2022.65297        17.44466         8.43787
     2022.65571        17.84749         8.13083
     2022.65845         9.50131         8.09304
     2022.66119        12.90314         7.72930
     2022.66392         8.61297         7.70805
     2022.66666         5.25780         7.77772
     2022.66940         6.81762         7.67970
     2022.67214        -5.31755         8.07296
     2022.67488         8.91428         7.83677
     2022.67761        18.44811         7.95841
     2022.68035        14.43494         7.90645
     2022.68309        17.88176         7.98439
     2022.68583        10.27059         8.19342
     2022.68856         6.32342         7.81079
     2022.69130         9.61625         7.81906
     2022.69404        24.01007         8.02808
     2022.69678        -1.87310         8.09186
     2022.69952        -0.80127         7.97967
     2022.70225        13.48756         8.16271
     2022.70499        12.67938         8.31860
     2022.70773         7.31221         8.01391
     2022.71047        10.84904         7.84268
     2022.71321        15.85987         7.72458
     2022.71868         8.07352         7.69270
     2022.72142         9.76035         7.69388
     2022.72416         8.15818         7.85685
     2022.72689        10.05001         8.02808
     2022.72963         7.29783         7.77654
     2022.73238         2.37767         7.99738
     2022.73511         7.91149         7.72694
     2022.73785        12.15932         7.70923
     2022.74058         3.35314         8.60439
     2022.74332        19.00097         8.36111
     2022.74606        18.27680         7.85212
     2022.74880         6.23063         7.69033
