# ================= DQRFIT RESULTS ================
# INPUT FILE: series/SHRK.rad
# OUTPUT: LDETRENDED
# FILTER FUNCTION: f(t)
# f(t)=+line(t)+annual(t)
# line(t)=+P 1+P 2*t
# annual(t)=+P 3*sin(2*pi*t+P 4)
# heav(t)=(t<0?0:1)
# TOTAL OBSERVATIONS MTOT= 1692
# INITIAL TIME INTERVAL= 2022.7488 - 2015.5455 =  7.2033
# TOTAL OBSERVATIONS AFTER PREFILTER M= 1689
# TIME-SPAN= 2022.7488 - 2015.5455 =  7.2033
# OBSERVATIONS: USED M=  1689 REJECTED MTOT-M=     3 %USED=   99.8227
# N=  4 PARAMETERS
# MAXSIG= 175.00000
# MAXRES=  24.11610
# SCALE FACTOR FOR LENGTHS: SCL=  10.00000
# SCALE FACTOR FOR SIGMAS: SCLSIG=   1.00000
# CHI^2=   2359.393 DOF=  1685 CHI^2/DOF=   1.40023
# RMS=      7.058 SDEV=      7.059 MEAN=    0.11564
#  P #       PARAMETER +-    SIGMA %error PARAMETER NAME
# P 1 =      5164.78933 +-  149.167   2.89 YZERO                              
# P 2 =        -2.56353 +-    0.074   2.88 SLOPE                              
# P 3 =         5.71858 +-    0.239   4.19 ANNUAL AMPLITUDE                   
# P 4 =         3.08531 +-    0.059   1.92 ANNUAL PHASE                       
#       T            LDETRENDED       SIG_OBS
     2015.54551         8.97631         6.90819
     2015.54825        14.92633         7.08687
     2015.55099         6.64334         6.93067
     2015.55373         9.31736         6.99339
     2015.55646        13.94438         7.05610
     2015.55920        20.58440         7.07504
     2015.56194        15.24842         6.98984
     2015.56468        21.28344         6.86086
     2015.56741         4.31946         6.84547
     2015.57015        13.37747         7.09989
     2015.57289         6.87349         7.07030
     2015.57563        10.41851         6.86677
     2015.57837         3.76053         6.92594
     2015.58110         9.86255         6.85612
     2015.58384         9.23557         6.93422
     2015.58658        10.27959         7.00759
     2015.58932         7.43560         7.22177
     2015.59479        17.90864         7.09634
     2015.59753        14.22166         6.94014
     2015.60027        12.27968         7.30460
     2015.60301        11.30770         7.60280
     2015.60574         4.67772         7.11882
     2015.60848        14.51573         7.21585
     2015.61122        13.72675         6.87979
     2015.61396        17.22477         7.06202
     2015.61670         9.89879         7.03835
     2015.61943         7.42381         7.07504
     2015.62217        15.17283         6.91647
     2015.62491        14.07185         6.93541
     2015.62765         9.95886         6.88452
     2015.63039        13.11388         6.96854
     2015.63312         6.65890         7.40045
     2015.63586        12.90892         7.29632
     2015.63860         3.86194         6.91056
     2015.64134        12.21896         7.00995
     2015.64407         8.65198         7.07267
     2015.67255        17.08696        15.11803
     2015.67419         5.56218         6.84192
     2015.67693        13.96720         6.87269
     2015.67967         0.95922         6.97327
     2015.68240         1.06124         6.93896
     2015.68514         5.43525         6.86559
     2015.68788        13.99627         6.90701
     2015.69062        15.41229         6.91529
     2015.69336        10.57331         7.24070
     2015.69609        15.26233         6.86441
     2015.69883        12.93935         7.10107
     2015.70157        24.68637         6.86204
     2015.70431        15.80438         6.95197
     2015.70705         9.04040         6.95316
     2015.70978         7.54242         6.90701
     2015.71252         5.02644         6.77093
     2015.71526         8.91446         6.93186
     2015.71800        15.42548         6.80879
     2015.72073        14.37850         6.79932
     2015.72347         8.93551         6.93659
     2015.72621         8.10653         6.93304
     2015.72895         7.59955         6.87269
     2015.73169        10.38757         6.97682
     2015.73442         4.97059         6.85731
     2015.73716        13.75861         6.76738
     2015.73990        13.18162         6.91529
     2015.74264        14.91864         6.94606
     2015.74538        15.43166         7.26792
     2015.74811        11.95668         7.31288
     2015.75085         6.58170         6.86441
     2015.75359        15.15172         6.89754
     2015.75633        12.37774         6.67389
     2015.75906        12.47275         6.75791
     2015.76180         5.26277         6.71176
     2015.76454        12.45579         6.77684
     2015.76728        14.34981         6.84547
     2015.77002         4.38183         6.89517
     2015.77275        16.71485         6.86559
     2015.77549         2.68787         6.96499
     2015.77823        12.36588         6.85612
     2015.78097         6.96790         6.71531
     2015.78371         6.74192         6.74608
     2015.78644        14.87494         6.75318
     2015.78918        10.46196         6.85139
     2015.79192         9.55998         6.74608
     2015.79466         9.49700         6.72359
     2015.79739         1.75501         6.93541
     2015.80013        12.58903         6.92949
     2015.80287         6.43905         6.71294
     2015.80561         6.26907         6.93304
     2015.80835         6.87709         6.69046
     2015.81108        12.62411         6.83364
     2015.81382        11.21913         6.90227
     2015.81656         2.51314         6.96972
     2015.81930         6.41616         6.81826
     2015.82203         2.86518         6.96854
     2015.82477        17.68620         7.10580
     2015.82751        13.91422         7.01587
     2015.83025         6.43524         7.32590
     2015.83299        -7.98574         7.22177
     2015.83572         8.40827         6.94842
     2015.83846         7.73029         6.82417
     2015.84120         3.36131         6.83956
     2015.84394         2.17133         6.88216
     2015.84668         1.51035         6.98392
     2015.84941         7.33637         6.90227
     2015.85215         9.23139         7.05610
     2015.85489         8.59940         6.95671
     2015.85763         3.49642         6.84902
     2015.86036         7.87744         7.09042
     2015.86310         4.01346         6.97446
     2015.86584         5.40248         7.08214
     2015.86858         9.60850         6.96144
     2015.87132         5.48252         7.21230
     2015.87405         3.65553         6.88097
     2015.87679         3.25255         7.25372
     2015.87953        24.18557         7.22295
     2015.88227        12.06259         6.97446
     2015.88501        -3.41739         7.03717
     2015.88774        -0.19637         7.04545
     2015.89048         9.28065         6.97209
     2015.89322         8.84666         6.92002
     2015.89596        13.20168         6.95552
     2015.89869         4.40370         6.87742
     2015.90143        -0.79028         6.85849
     2015.90417        -0.50326         6.69401
     2015.90691         3.56176         6.69756
     2015.90965         2.27278         6.75199
     2015.91238         6.94479         6.80051
     2015.91512         1.91681         6.82417
     2015.91786         1.97183         6.94369
     2015.92060         4.39785         7.18509
     2015.92334         6.24387         6.97564
     2015.92607         2.73889         6.90227
     2015.92881         4.19191         6.94842
     2015.93155         7.17392         7.23360
     2015.93429        21.52994         7.20875
     2015.93702        15.20096         7.48446
     2015.93976        17.81598         7.57321
     2015.94250         3.49500         7.20165
     2015.94524        -9.91698         7.06557
     2015.94798        13.80003         7.07859
     2015.95071         9.25705         6.80997
     2015.95345        -1.17593         6.74371
     2015.95619         4.41409         6.85139
     2015.95893        -5.62989         7.04782
     2015.96167        -0.99887         7.20520
     2015.96440        -2.47985         6.77329
     2015.96714         3.18616         6.95907
     2015.96988         6.18218         6.90701
     2015.97535        17.60122         7.12829
     2015.97809         9.35524         7.00641
     2015.98083        -0.54474         6.99221
     2015.98357       -10.32272         6.88452
     2015.98631        -5.98671         6.89281
     2015.98904        -3.34969         6.90346
     2015.99178        -8.66267         6.93896
     2015.99452        -5.10765         6.93422
     2015.99726        -4.16663         6.96617
     2016.00000         3.27039         7.09279
     2016.00273         2.69441         7.06439
     2016.00547        15.18142         7.10580
     2016.00821        18.55444         7.15314
     2016.01095         5.79646         6.94014
     2016.01368        -7.24752         6.95552
     2016.01642        -4.21350         7.03599
     2016.01916        -5.15848         7.24662
     2016.02190        -4.78846         6.96262
     2016.02464        -5.14145         6.97091
     2016.02737        -0.05843         7.12829
     2016.03011        -1.16941         6.87742
     2016.03285        -2.67339         7.03125
     2016.03559        -9.28137         6.88689
     2016.03833       -10.72835         7.04072
     2016.04106         6.43567         6.94842
     2016.04380         4.14068         6.94606
     2016.04654        -3.39230         6.82772
     2016.04928         0.76372         6.85021
     2016.05201        -8.05426         6.79932
     2016.05475         4.52676         6.80051
     2016.05749        -1.09322         6.92002
     2016.06023        -6.70220         6.83601
     2016.06297        -8.45719         6.86914
     2016.06570        -7.11517         6.88571
     2016.06844        -3.59315         6.95197
     2016.07118        -9.03113         7.01114
     2016.07392        -7.73411         7.13065
     2016.07666        -2.90609         7.18390
     2016.07939         7.90393         6.98984
     2016.08213        -3.51706         7.03125
     2016.08487        -2.50304         6.77329
     2016.08761       -11.28002         6.92831
     2016.09034        -6.13100         6.95316
     2016.09308         5.61002         7.14012
     2016.09582       -14.28896         7.02415
     2016.09856       -16.21394         7.14130
     2016.10130       -17.50393         6.97209
     2016.10403       -13.99091         6.97446
     2016.10677       -14.63289         6.93067
     2016.10951         0.75113         7.05019
     2016.11225        -7.06685         6.99812
     2016.11498        -9.26983         7.08095
     2016.11772       -18.09381         7.10462
     2016.12046        -7.12880         7.06320
     2016.12320         0.23322         7.13657
     2016.12594        -5.13676         6.97209
     2016.12867        -3.04174         6.91766
     2016.13141         4.48328         7.03835
     2016.13415        13.36430         7.00167
     2016.13689        -6.26768         6.89991
     2016.13963        -8.21367         6.93659
     2016.14236       -14.88765         6.87979
     2016.14510       -12.46263         6.85494
     2016.14784       -11.70661         6.89872
     2016.15058        -7.11659         6.84784
     2016.15331        -7.97457         7.00641
     2016.15605        -9.07055         7.04190
     2016.15879        -7.94454         7.05374
     2016.16153        -8.07752         6.94842
     2016.16427        -8.92550         7.05729
     2016.16700         0.19152         6.99339
     2016.16974        -3.46146         6.86441
     2016.17248        -3.71344         7.11527
     2016.17522        -3.75543         6.98037
     2016.17796         6.71559         6.94487
     2016.18069         1.12561         7.08332
     2016.18343       -10.25437         7.10225
     2016.18617        -2.57635         6.84192
     2016.18891        -3.64233         7.03480
     2016.19164        -5.75331         6.89044
     2016.19438         3.81270         6.82062
     2016.19712         4.15672         6.80879
     2016.19986        -5.52226         7.05847
     2016.20260        -9.65724         7.04900
     2016.20533       -14.64522         7.28212
     2016.20807        -7.58420         7.06794
     2016.21081       -11.50018         7.03599
     2016.21355        -6.47717         6.91884
     2016.21629        -8.24015         6.87032
     2016.21902         1.09787         6.88334
     2016.22176       -13.70711         6.83246
     2016.22450       -16.08709         6.85021
     2016.22724        -9.27207         6.94014
     2016.22997        -7.53205         6.77803
     2016.23271        -9.63004         6.72359
     2016.23545        -9.15202         6.87151
     2016.23819       -10.62000         6.81944
     2016.24093        -5.95998         6.83956
     2016.24366        -5.71696         6.76974
     2016.24640        -7.11694         6.74844
     2016.24914        -6.91392         6.80169
     2016.25188        -8.37091         6.87979
     2016.25462        -6.73189         6.83837
     2016.25735         0.79513         6.97919
     2016.26009        -9.83885         6.83246
     2016.26283       -13.25583         6.85257
     2016.26557        -9.59681         6.84074
     2016.26830        -8.67879         6.81352
     2016.27104        -2.10078         6.78868
     2016.27378        -8.03776         6.76738
     2016.27652        -9.93974         6.81471
     2016.27926       -11.08972         6.84074
     2016.28199       -10.62570         6.85257
     2016.28473        -7.26168         6.81352
     2016.28747       -10.96966         6.75554
     2016.29021       -11.50265         6.87979
     2016.29295       -11.37863         6.90937
     2016.29568       -13.15061         6.86204
     2016.29842        -6.29959         7.00877
     2016.30116       -10.73057         7.03007
     2016.30390       -11.15855         6.94606
     2016.30663        -6.76753         6.87387
     2016.30937        -1.58452         6.87151
     2016.31211        -9.22950         6.89044
     2016.31485        -2.01648         6.83719
     2016.31759        -7.27546         6.81589
     2016.32032       -10.08344         6.78513
     2016.32306       -14.39242         6.79578
     2016.32580       -10.43240         6.94251
     2016.32854        -8.38939         6.84192
     2016.33128       -11.50637         6.78631
     2016.33401        -4.80735         6.83127
     2016.33675        -7.65733         6.91174
     2016.33949        -7.61331         6.96262
     2016.34223       -10.42929         6.87979
     2016.34496        -9.32127         7.01587
     2016.34770         0.64674         7.10935
     2016.35044         5.35876         7.40400
     2016.35318        -3.73022         6.91647
     2016.35592       -10.16420         6.92476
     2016.35865       -11.19518         6.85257
     2016.36139        -6.61416         6.76146
     2016.36413         1.88886         6.92594
     2016.36687        -1.41813         6.88452
     2016.36961         5.17089         6.97801
     2016.37234         4.42891         6.98511
     2016.37508        -6.58007         6.75791
     2016.37782        -3.04605         7.04664
     2016.38056         3.35597         7.09515
     2016.38329        -3.47602         6.77921
     2016.38603        -5.67200         6.75791
     2016.38877         8.01102         6.84192
     2016.39151        -6.90796         6.72951
     2016.39425       -10.93294         6.73306
     2016.39698         1.56208         6.80997
     2016.39972         0.23010         6.89754
     2016.40246         0.45111         6.90346
     2016.40520        -7.89687         6.80642
     2016.40794       -13.40685         6.91292
     2016.41067       -13.01083         6.82062
     2016.41341        -6.16981         6.77921
     2016.41615        -2.87079         6.83956
     2016.41889         7.72123         6.88807
     2016.42162         2.95224         7.01232
     2016.42436        -7.66774         6.86914
     2016.42710        -3.42172         6.81116
     2016.42984        -8.56270         6.84429
     2016.43258         3.12132         6.89991
     2016.43531         5.69534         7.10817
     2016.43805        -2.48264         6.86677
     2016.44079         1.64337         6.93186
     2016.44353        -2.96461         6.86914
     2016.44626       -10.11959         6.83719
     2016.44900        -2.05157         7.02889
     2016.45174         8.08345         7.02652
     2016.45448         2.84547         7.01114
     2016.45722        -7.38251         6.74371
     2016.45995         4.32650         6.83364
     2016.46269        -4.28648         7.05729
     2016.46543        -8.12146         6.85967
     2016.46817        -4.47444         6.96854
     2016.47091         7.23658         6.93541
     2016.47364         2.73360         6.98392
     2016.47638         2.08862         7.04900
     2016.47912         0.76763         7.16734
     2016.48186        -5.31835         6.94014
     2016.48459        -2.69133         6.90227
     2016.48733        -1.77331         6.96262
     2016.49007         5.64671         7.03480
     2016.49281         3.19073         7.24898
     2016.49555         4.12275         6.89281
     2016.49828        -4.85024         6.94014
     2016.50102        -6.95922         6.99694
     2016.50376         2.52080         7.23952
     2016.50650        -9.97518         7.04782
     2016.50924        -0.93516         6.89872
     2016.51197        -5.63314         6.92357
     2016.51471         6.66288         6.85849
     2016.51745        -3.29911         7.33182
     2016.52019         1.87791         7.04545
     2016.52292        -0.93707         6.96499
     2016.52566        -1.01505         6.81471
     2016.52840        -1.77403         6.78868
     2016.53114       -10.47001         6.87032
     2016.53388         0.93601         6.84192
     2016.53661         1.00902         6.83956
     2016.53935        -8.78096         6.77566
     2016.54209        -4.73194         6.79814
     2016.54483        -2.88192         6.84429
     2016.54757        -7.81790         6.87387
     2016.55030        -2.99888         6.97446
     2016.55304         1.23514         6.80524
     2016.55578         9.60715         7.19455
     2016.55852         1.45817         6.80761
     2016.56125        -0.13781         6.77803
     2016.56399         4.97921         6.83127
     2016.56673         4.53023         7.03599
     2016.56947         3.86925         6.93777
     2016.57221         6.29327         6.87151
     2016.57494         2.65628         7.00877
     2016.57768         5.07530         6.91884
     2016.58042         2.73732         6.83482
     2016.58316         1.51934         6.86204
     2016.58590        -1.75164         6.94132
     2016.58863        -2.40662         6.78986
     2016.59137        -0.83360         6.77211
     2016.59411         0.10941         6.87506
     2016.59685        11.64943         6.86322
     2016.59958         9.92445         7.02060
     2016.60232         2.56647         7.09160
     2016.60506        -1.61751         6.92121
     2016.60780        -0.09349         6.88334
     2016.61054         3.41552         6.88097
     2016.61327        -4.75546         6.85612
     2016.61601         1.89556         6.86559
     2016.61875         8.95958         6.91056
     2016.62149         7.38660         6.85612
     2016.62423         6.83962         6.96381
     2016.62696         4.24064         6.89281
     2016.62970        -0.25535         6.84784
     2016.63244         2.92467         7.05610
     2016.63518         8.24969         6.89162
     2016.63791        11.35671         6.91529
     2016.64065        18.12473         7.11527
     2016.64339         2.09775         6.76619
     2016.64613         3.91777         6.84666
     2016.64887         4.63378         6.96499
     2016.65160         6.41880         6.93422
     2016.65434         7.89982         7.06202
     2016.65708         8.45584         6.95671
     2016.65982         2.99286         7.09634
     2016.66256         0.84188         6.95197
     2016.66529        -3.94010         6.89044
     2016.66803         8.41391         6.92949
     2016.67077         6.57793         7.01114
     2016.67351         6.15595         6.89162
     2016.67624         4.94897         6.80524
     2016.67898         6.06499         6.73424
     2016.68172         3.67101         6.87151
     2016.68446         3.84403         7.15787
     2016.68720       -11.63896         7.24307
     2016.68993         8.17206         6.94251
     2016.69267         9.71608         6.78276
     2016.69541        10.55910         6.92002
     2016.69815         6.34612         6.72241
     2016.70089         3.37814         6.77684
     2016.70362         8.24516         7.10817
     2016.70636         7.17717         7.27620
     2016.70910        12.71019         7.30342
     2016.71184        26.03021         7.10462
     2016.71457         7.52623         7.15195
     2016.71731        10.63425         6.90464
     2016.72005        10.39727         6.86796
     2016.72279         5.36129         6.68809
     2016.72553         5.29130         6.83601
     2016.72826         4.21132         7.03835
     2016.73100         5.35734         6.97327
     2016.73374         2.57836         6.77211
     2016.73648         8.32838         6.73661
     2016.73921        -3.72760         7.12119
     2016.74195        11.06042         6.94606
     2016.74469         6.68343         6.88097
     2016.74743        12.74945         6.82181
     2016.75017        11.37547         6.83482
     2016.75290         5.65349         6.68454
     2016.75564         9.40251         6.79223
     2016.75838         6.46553         6.69874
     2016.76112        10.12055         6.78394
     2016.90075        -9.45551         6.87624
     2016.90349         7.94151         6.96026
     2016.90622         7.93153         6.81234
     2016.90896         5.94655         6.76974
     2016.91170        -3.04343         6.77803
     2016.91444        -1.78642         6.78868
     2016.91718        -8.87640         7.04190
     2016.91991       -11.16338         7.09042
     2016.92265        11.03564         6.79341
     2016.92539        -2.21634         6.63603
     2016.93086        -9.64430         6.71649
     2016.93360       -18.88829         6.68099
     2016.93634       -17.92427         6.69638
     2016.93908        -7.21825         6.94369
     2016.94182        -0.66123         6.81707
     2016.94455        -7.85721         6.77566
     2016.94729        -2.17619         6.87624
     2016.95003       -12.82117         6.78039
     2016.95277       -11.01116         6.87269
     2016.95551        -8.33214         6.90346
     2016.95824        -4.00612         7.06912
     2016.96098        -3.72410         6.95671
     2016.96372        -7.75508         6.98511
     2017.47146       -13.64348        25.60219
     2017.47296        -1.24163         6.91056
     2017.47570        -7.97361         6.95079
     2017.47843        -8.27259         6.81944
     2017.48117       -10.34258         6.79932
     2017.48391        -4.09756         6.93304
     2017.48665         4.67646         6.92357
     2017.48939         3.09248         6.85849
     2017.49212        -2.25050         6.85257
     2017.49486        -3.12848         6.89636
     2017.49760       -13.54646         6.99339
     2017.50034        -5.34945         6.91292
     2017.50308         1.19157         6.85257
     2017.50581        -4.92841         6.90819
     2017.50855       -20.30039         7.10462
     2017.51129        -0.30637         7.25017
     2017.51403        -1.09235         7.05965
     2017.51676         5.68467         6.93422
     2017.51950         5.66668         7.17799
     2017.52224        -6.98530         7.06794
     2017.52498        -1.45928         6.95552
     2017.52772        -0.49226         7.18982
     2017.53045        -0.09224         6.96144
     2017.53319        -0.32922         6.96262
     2017.53593         1.49380         7.25490
     2017.53867        -7.40519         7.12592
     2017.54141         5.96683         7.02889
     2017.54414         2.80885         7.01232
     2017.54688        -4.23413         7.08332
     2017.54962        -3.25711         7.07030
     2017.55236       -10.75209         6.91411
     2017.55509        -4.41607         7.07622
     2017.55783        -0.05206         6.98629
     2017.56057         0.47896         6.88097
     2017.56331         0.64098         6.94724
     2017.56605        -0.46800         7.01350
     2017.56878         5.68802         7.01350
     2017.57152         4.61704         6.93186
     2017.57426        -7.57194         6.90582
     2017.57700        -2.98393         6.90819
     2017.57974        -6.01391         6.86677
     2017.58247        -2.47089         6.91292
     2017.58521        -7.07987         6.88807
     2017.58795       -10.84885         6.95789
     2017.59069        -3.69983         7.09042
     2017.59342        -0.42681         6.83246
     2017.59616         1.71820         6.87742
     2017.59890        -1.68078         7.03954
     2017.60164         0.84924         6.82772
     2017.60711        -2.80272         7.04545
     2017.60985         1.62830         7.09752
     2017.61259        -0.49468         7.14249
     2017.61533         5.22633         7.38152
     2017.61807         2.79335         6.94014
     2017.62080         3.55737         6.89162
     2017.62354        -6.34361         7.03244
     2017.62628         5.66741         7.14130
     2017.62902         8.19243         7.18864
     2017.63175         0.42945         6.94961
     2017.63449         3.18846         7.10462
     2017.63723         1.12548         6.90582
     2017.63997        -1.96850         6.95552
     2017.64271         9.46352         6.97564
     2017.64544         3.41754         7.02770
     2017.64818        -0.64544         6.99339
     2017.65092         5.67058         6.87624
     2017.65366         5.63559         6.85731
     2017.65639         9.25461         6.96381
     2017.65913         7.33563         6.86914
     2017.66187        10.67565         7.10107
     2017.66461         9.63967         7.23833
     2017.66735         8.91369         7.05492
     2017.67008         5.41171         6.84311
     2017.67282        -1.39128         7.10699
     2017.67556         0.74974         6.79578
     2017.67830         5.13576         6.90701
     2017.68104         7.04278         6.94487
     2017.68377         8.62180         7.10107
     2017.68651        -0.35018         6.99694
     2017.68925         4.20883         6.95197
     2017.69199         0.36685         6.85376
     2017.69472         4.61387         6.73779
     2017.69746         9.21889         6.96144
     2017.70020        11.32791         6.91292
     2017.70294         8.22193         6.87151
     2017.70568         3.25995         6.76383
     2017.70841         9.70096         6.78276
     2017.71115         3.07798         6.89162
     2017.71389        10.87500         7.09279
     2017.71663        16.55102         7.03007
     2017.71937        23.08704         7.20875
     2017.72210         4.72406         6.84074
     2017.72484         6.95608         6.80997
     2017.72758         8.39109         6.97209
     2017.73032         6.59311         6.75318
     2017.73305         8.38813         6.80997
     2017.73579        -1.65485         6.80169
     2017.73853         2.56917         6.79341
     2017.74127        -0.50481         6.69638
     2017.74401         4.53021         6.94606
     2017.74674         8.25922         7.06439
     2017.74948         4.63924         6.94724
     2017.75222         1.25926         6.87742
     2017.75496         6.59428         6.77566
     2017.75770         1.76330         6.83127
     2017.76043         3.58132         6.80406
     2017.76317         7.85434         6.77921
     2017.76591        19.09735         6.94961
     2017.76865        15.81237         6.98392
     2017.77138         0.91639         6.72951
     2017.77412         4.18041         6.86441
     2017.77686         8.83243         6.78158
     2017.77960        10.62445         6.89517
     2017.78234        21.30347         7.02179
     2017.78507         6.42348         6.78986
     2017.78781         4.48650         6.75199
     2017.79055         1.01652         6.77329
     2017.79329         7.25254         6.96499
     2017.79603        16.45056         6.84311
     2017.79876        15.10658         7.20047
     2017.80150        17.85760         7.10699
     2017.80424        10.44961         6.84192
     2017.80698         7.10363         7.42057
     2017.80971        -7.61635         7.03717
     2017.81245        -2.60833         7.07504
     2017.81519        15.29069         7.00995
     2017.81793        -6.24529         6.84547
     2017.82067         1.46673         7.24070
     2017.82340         2.04674         6.76856
     2018.60643         5.20405         6.63011
     2018.60917         5.12007         6.75554
     2018.61190         2.70609         6.61354
     2018.61464         2.22611         6.52125
     2018.61738         4.38112         6.48338
     2018.62012        10.15314         6.62538
     2018.62286        12.27116         6.76501
     2018.62559         2.92718         6.77329
     2018.62833         5.89020         6.57805
     2018.63107         6.33422         6.52480
     2018.63381         2.80024         6.66324
     2018.63655        -0.29275         6.55438
     2018.63928         4.88827         6.86796
     2018.64202        12.28229         6.89991
     2018.64476         4.90531         6.71886
     2018.64750        -0.10667         6.60289
     2018.65023        -4.15265         6.68691
     2018.65297        -0.42963         6.58751
     2018.65571         4.92538         6.60881
     2018.65845         8.15140         6.54255
     2018.66119        16.97642         6.69046
     2018.66392         4.30444         6.52835
     2018.66666         0.31146         6.72241
     2018.66940         6.50848         6.58870
     2018.67214         6.02850         6.58515
     2018.67488         4.72951         6.46326
     2018.67761         5.60253         6.58160
     2018.68035         3.12155         6.60053
     2018.68309         1.04457         6.67744
     2018.68583        15.24059         6.64431
     2018.68856         4.68361         6.52598
     2018.69130         7.76263         6.73069
     2018.69404        -0.33436         6.70703
     2018.69678         3.91666         6.57095
     2018.69952        -1.33732         6.56385
     2018.70225        -7.25930         6.66561
     2018.70499        -0.19428         6.58396
     2018.70773         1.82174         6.63248
     2018.71047        -5.98424         6.54491
     2018.71321        -2.56123         6.64786
     2018.71594        -1.52321         6.57213
     2018.71868         5.03481         6.58515
     2018.72142         5.73883         6.58870
     2018.72416         2.17685         6.78394
     2018.72689        -0.34813         6.67626
     2018.72963        -0.65211         6.56858
     2018.73237        -1.94210         6.60881
     2018.73382        -7.22937        30.27510
     2018.73785        -0.37906         6.55201
     2018.74058        -1.25404         6.51178
     2018.74332         4.76998         6.57568
     2018.74606         1.34900         6.50350
     2018.74880         6.80502         6.60526
     2018.75152         5.52900         6.62538
     2018.76522        -1.19487         6.69874
     2018.76796        -0.55685         6.61354
     2018.77070         8.98316         6.67863
     2018.77344         3.05118         6.54846
     2018.77618         3.73120         6.48575
     2018.77891         7.74222         6.60408
     2018.78165         0.88524         6.59579
     2018.78439        -1.75874         6.48930
     2018.78713         1.06327         6.52125
     2018.78987        -4.64771         6.64194
     2018.79260        -0.66269         6.44315
     2018.79534         7.86633         6.42421
     2018.79808        -2.24365         6.47510
     2018.80082         2.89237         6.51296
     2018.80355         4.19839         6.49876
     2018.80629         2.91940         6.66443
     2018.80903         3.50842         6.49285
     2018.81177        -2.21356         6.80997
     2018.81451         2.11346         6.75791
     2018.81724        -1.38452         6.66088
     2018.81998         7.38050         6.63839
     2018.82272         6.18852         6.78868
     2018.82546         7.91953         6.44078
     2018.82820        -3.65745         6.53071
     2018.83093         9.24557         6.64549
     2018.83367         8.27059         6.69874
     2018.83641         5.37561         6.76856
     2018.83915         3.66663         6.63248
     2018.84188        12.70165         6.66206
     2018.84462        16.99266         6.59224
     2018.84736         4.02668         6.59224
     2018.85010        -4.77630         6.58751
     2018.85284        -2.53428         6.46090
     2018.85502       -12.44567         8.56956
     2018.85831        -2.94524         6.50823
     2018.86105        -5.59122         6.60999
     2018.86379        -3.89221         6.58396
     2018.86653        -0.02219         6.54255
     2018.86926        -7.74617         6.57331
     2018.87200        -3.45515         6.57686
     2018.87474         2.33987         6.57805
     2018.87748        -3.83411         6.59698
     2018.88021        -1.13909         6.66679
     2018.88295        -0.49908         6.66561
     2018.88569        -2.41906         6.60999
     2018.88843         5.88096         6.69164
     2018.89117         5.32998         6.85849
     2018.89390        16.22000         6.72951
     2018.89664         2.44202         7.00995
     2018.89938        -0.37996         6.63839
     2018.90212        -0.00095         6.68809
     2018.90485         9.14807         6.89399
     2018.90759         1.73409         6.63958
     2018.91033         2.25011         6.64431
     2018.91307        13.84113         6.70939
     2018.91581         3.78315         6.61946
     2018.91854         4.70217         6.56148
     2018.92128         2.34518         6.60408
     2018.92402         1.04320         6.58278
     2018.92676         9.53422         6.65969
     2018.92950        13.24924         6.64431
     2018.93223         5.18726         6.83719
     2018.93497        14.59728         6.93067
     2018.93771        11.05230         6.76738
     2018.94024        10.94279         7.42057
     2018.94318         6.07633         6.61473
     2018.94592        21.42935         6.63248
     2018.94866         4.71937         6.63721
     2018.95140         9.14139         6.67981
     2018.95414        16.43641         6.58041
     2018.95687         4.90443         6.57805
     2018.95961         8.20044         6.56740
     2018.96235        10.95546         6.67389
     2018.96509         3.60948         6.64194
     2018.96783         3.80150         6.60526
     2018.97056         6.17052         6.58515
     2018.97330        -4.18946         6.44196
     2018.97604        -1.24044         6.60289
     2018.97878         7.07357         6.63484
     2018.98151         2.13259         6.68573
     2018.98425       -12.69939         7.02770
     2018.98699       -24.19537         6.71886
     2018.98973        -8.12735         6.67508
     2018.99120       -23.73657        29.76983
     2018.99520         2.45368         6.79223
     2018.99794       -11.73130         6.72123
     2019.00068       -11.16128         6.53900
     2019.00342        -3.19526         6.56030
     2019.00616         2.13776         6.50941
     2019.00889        -6.59722         6.61946
     2019.01163        -1.07520         6.60408
     2019.01437         6.55581         6.62064
     2019.01711         8.67183         6.47391
     2019.01984        -8.43215         6.44078
     2019.02258        -6.99413         6.48101
     2019.02532        -4.12011         6.70229
     2019.02806        -8.52309         6.74726
     2019.03080        -5.19207         6.67626
     2019.03353        -6.84806         6.59816
     2019.03627       -10.26004         6.63839
     2019.03901         1.50498         6.73424
     2019.04175         8.94500         6.89636
     2019.04449         5.31202         6.85731
     2019.04722         1.09004         6.69993
     2019.04996        -7.63194         6.91411
     2019.05270       -15.16693         6.71886
     2019.05544       -23.76791         6.70939
     2019.05817       -23.30289         6.75318
     2019.06091        -2.92487         6.80524
     2019.06365        -7.69285         6.56503
     2019.06639        -0.04083         6.59461
     2019.06913        -2.84481         6.67508
     2019.07186        -7.48780         6.71768
     2019.07460       -10.11878         6.54610
     2019.07734        -1.01776         6.45025
     2019.08008         0.40126         6.56976
     2019.08282        -0.70672         6.63603
     2019.08555         2.53230         6.45498
     2019.08829         4.77432         6.56858
     2019.09103         3.85833         6.53900
     2019.09377         0.25935         6.49640
     2019.09650        -6.79663         6.44551
     2019.09924       -13.54161         6.39581
     2019.10198       -15.89459         6.50113
     2019.10472         1.64843         6.49285
     2019.10746         2.28645         6.37688
     2019.11019        -1.30654         6.45498
     2019.11293        11.03248         6.61473
     2019.11841         6.62952         6.61591
     2019.12115        13.26654         6.78749
     2019.12327        15.34900         9.58603
     2019.12662         0.40758         6.56740
     2019.12936        -2.76041         6.50705
     2019.13210        -5.88139         6.51533
     2019.13483       -12.43737         6.60289
     2019.13757        -3.53735         6.58515
     2019.14031        -1.47633         6.53900
     2019.14305        -2.96231         6.49521
     2019.14579        -7.43629         6.56385
     2019.14852       -11.68228         6.49048
     2019.15126        -5.06526         6.60763
     2019.15400       -11.90924         6.62183
     2019.15674        -3.40522         6.48575
     2019.15878        -0.03998         9.69726
     2019.16221       -12.35718         6.79104
     2019.16495        -8.20216         6.51651
     2019.16769       -14.45415         6.48101
     2019.17043       -10.71713         6.51296
     2019.17316        -9.37011         6.48220
     2019.17590        -5.83109         6.42421
     2019.17864         2.20193         6.51651
     2019.18138        -7.44305         6.55320
     2019.18412       -26.28303         6.49166
     2019.18685       -19.23802         6.49166
     2019.18959       -11.04900         6.54728
     2019.19233        -5.37598         6.51651
     2019.19507       -11.10396         6.62774
     2019.19780       -13.38694         6.61236
     2019.20054       -11.57292         6.71413
     2019.20328       -16.10490         6.52953
     2019.20602       -16.95789         6.50113
     2019.20876       -17.53087         6.54373
     2019.21149       -16.35785         6.49048
     2019.21423        -4.67183         6.56266
     2019.21697        -7.75481         6.55201
     2019.21971        -9.98679         6.75909
     2019.22245       -13.72978         6.60408
     2019.22518        -6.68476         6.56385
     2019.22792        -8.17974         6.52480
     2019.23066        -9.17972         6.48811
     2019.23340        -7.14170         6.55911
     2019.23613       -15.89768         6.59343
     2019.23887       -10.31966         6.67863
     2019.24161       -14.50065         6.70229
     2019.24435        -8.19963         6.68099
     2019.24709        -8.73961         6.57213
     2019.24982        -7.67859         6.49640
     2019.25256        -4.91657         6.83482
     2019.25530        -9.22855         6.67389
     2019.25804        -5.29053         6.62893
     2019.26078        -1.81852         6.55911
     2019.26351         2.26650         6.62419
     2019.26625        -1.72148         6.54610
     2019.26899        -4.40346         6.73188
     2019.27173        -0.57044         6.88807
     2019.27446        -5.56342         6.55438
     2019.27638        -4.17152        11.03441
     2019.27962        -7.70720         7.41110
     2019.28258        -1.42462         6.78158
     2019.28505        -2.64630         7.52351
     2019.28704         0.08181        17.29887
     2019.29045         3.06454         8.01341
     2019.29287        -2.63624         9.87358
     2019.29525         6.10986        17.00068
     2019.29911        -1.63426         6.52716
     2019.30055       -34.11855        73.85539
     2019.30458       -14.49022         6.61236
     2019.30622        13.73697        16.47765
     2019.30907         8.12230        13.00344
     2019.31238        -6.84624         7.69864
     2019.31473         5.58481        10.16467
     2019.31827        -1.86513         6.55556
     2019.32010        13.59957        11.77753
     2019.32323       -13.51740         8.16960
     2019.32607        -5.51513         7.65723
     2019.32922       -10.57405         6.50705
     2019.33196        -5.47303         6.66443
     2019.33364       -11.64273        15.06596
     2019.33732        -1.77029         6.72951
     2019.33957        -1.70251         8.70328
     2019.34195         1.48358        12.45793
     2019.34565        -5.64594         6.69519
     2019.34740        -5.35444        13.04249
     2019.35112        -7.52390         6.59461
     2019.35305        -1.38897        10.31969
     2019.35660        -4.09787         6.64904
     2019.35934        -2.83485         6.55438
     2019.36208        -2.93283         6.61591
     2019.36361        11.30111        24.15027
     2019.36755        -6.28179         6.54965
     2019.36981         3.13101         8.00631
     2019.37286        -4.04318         6.89044
     2019.37794         7.93183         8.48910
     2019.38124         2.79730         6.60053
     2019.38324         1.29942         9.70791
     2019.38577         9.01690        12.31712
     2019.38945        -6.73464         6.58515
     2019.39219         1.00838         6.87032
     2019.39493        -5.53561         6.58396
     2019.39767        -1.97359         6.57805
     2019.40041        -0.20457         6.64668
     2019.40219         2.96401        12.07336
     2019.40501         3.23323        10.82496
     2019.40862        -1.46851         6.51178
     2019.41136         3.64651         6.51770
     2019.41295         2.48959        16.95335
     2019.41605         8.83853        10.15757
     2019.41957        -3.84644         6.72004
     2019.42228        -4.11551         6.65141
     2019.42505        -2.89440         6.61354
     2019.42778         0.75862         6.81352
     2019.43052        -0.91437         6.65378
     2019.43326        -3.75535         6.64313
     2019.43516        -3.59048        10.59185
     2019.43752         0.77757        21.24759
     2019.44049        -1.26881        12.29464
     2019.48254        -7.99001         6.77329
     2019.48528        -7.25899         6.72004
     2019.48802       -15.97598         6.68099
     2019.49076       -15.70196         6.66561
     2019.49349        -2.48494         6.70229
     2019.49623        -1.54692         6.77803
     2019.49897        -8.92090         6.63366
     2019.50171        -2.92788         6.54373
     2019.50444        -9.45286         6.50468
     2019.50718        -0.35985         6.71294
     2019.50992        -7.77283         6.72359
     2019.51266       -13.07281         6.64668
     2019.51540        -1.22279         6.59106
     2019.51813        -1.94377         6.59224
     2019.52087        -2.84075         6.57450
     2019.52361         4.25227         6.78276
     2019.52635        -0.96372         6.71531
     2019.52908        -0.91470         7.06675
     2019.53182        -2.02068         6.74134
     2019.53456        -5.64266         6.76974
     2019.53730        -7.98064         6.77803
     2019.54004        -1.31262         6.92712
     2019.54277         1.31740         6.96617
     2019.54551         6.40941         7.05610
     2019.54825         1.41843         6.52006
     2019.55099        -3.52055         6.60999
     2019.55373         1.72847         6.81826
     2019.55646         6.58649         6.89636
     2019.55920        -0.56849         7.05729
     2019.56194         4.05353         6.60408
     2019.56468         0.04254         6.72241
     2019.56741         5.95956         6.98037
     2019.57015        -2.79542         6.68099
     2019.57289         1.35960         6.73188
     2019.57563         2.86662         6.53545
     2019.57837         1.44264         6.73188
     2019.58110         4.19366         6.63366
     2019.58384         2.61667         7.09397
     2019.58658        -2.79331         6.74844
     2019.58932         3.15371         6.63129
     2019.59206         5.36573         6.70229
     2019.59479         4.25075         6.55793
     2019.59753         3.25277         6.92239
     2019.60027         2.12879         6.96617
     2019.60301         0.78180         6.71531
     2019.60574         6.50982         6.97446
     2019.60848         1.68984         6.90346
     2019.61122        -1.37114         6.61828
     2019.61396         0.79988         6.74963
     2019.61670         3.08190         6.84902
     2019.61943        10.26592         6.73069
     2019.62217         8.15093         6.79932
     2019.62491         4.96995         6.67508
     2019.62765         8.57597         6.69756
     2019.63039        14.89199         6.86204
     2019.63312        -1.60399         6.65378
     2019.63860         7.38505         6.94842
     2019.64134         2.47806         6.65733
     2019.64407         1.19408         6.65969
     2019.64681       -12.31490         6.74016
     2019.64955        -2.26788         6.57805
     2019.65229         5.40514         6.66561
     2019.65503         1.37616         6.64904
     2019.65776        -0.65983         6.81116
     2019.66050       -15.31181         6.86796
     2019.66324         6.43421         6.70348
     2019.66598         6.53223         6.83601
     2019.66872         3.77625         6.72478
     2019.67145         0.84527         6.71176
     2019.67419         0.96229         6.77329
     2019.67693         2.89730         6.86559
     2019.67967         2.69932         6.98629
     2019.68240        -0.64666         6.68336
     2019.68514         6.05036         7.01232
     2019.68788        -3.24462         6.86796
     2019.69062         5.07240         6.81116
     2019.69336        -3.43058         6.65023
     2019.69609        -0.67057         6.64786
     2019.69883       -15.53455         6.76146
     2019.70157        -6.04453         6.67271
     2019.70431        10.20449         6.72951
     2019.70705         0.83251         6.61828
     2019.70978         2.20353         6.74134
     2019.71252        -3.01545         6.72123
     2019.71526        -7.59544         6.53545
     2019.71800         1.13158         6.85731
     2019.72073         1.77260         6.87506
     2019.72347         5.82462         6.71176
     2019.72621        -2.51336         6.77211
     2019.72895        -2.71034         6.72714
     2019.73169        -0.44232         6.66206
     2019.73442         4.25669         6.85257
     2019.73716         5.17571         6.58633
     2019.73990         6.35673         6.92949
     2019.74264        -1.31025         6.73188
     2019.74538        -3.95023         6.67981
     2019.74811         4.22779         6.82062
     2019.75085        -0.95619         6.68218
     2019.75359         3.63282         7.00641
     2019.75633         0.96884         6.69638
     2019.75906        -2.05814         6.58278
     2019.76180        -0.65712         6.54728
     2019.76454         3.11790         6.68218
     2019.76728         5.01692         6.94961
     2019.77002         2.30294         6.68573
     2019.77275         2.46695         6.72123
     2019.77549         2.77897         6.67981
     2019.77823         3.01399         6.64313
     2019.78097         3.55601         6.64786
     2019.78371         3.46503         6.56385
     2019.78644        13.42305         6.75199
     2019.78918        12.52707         6.91884
     2019.79192        15.69608         6.79814
     2019.79466        21.29310         6.83956
     2019.79739        14.62312         6.76974
     2019.80013        14.92514         6.78276
     2019.80287        18.57116         6.78158
     2019.80561        10.82218         7.01232
     2019.80835        -1.58280         6.65378
     2019.81108        -3.18179         6.64904
     2019.81382         3.42123         6.85021
     2019.81656         6.67825         6.74253
     2019.81930        -0.59173         6.68454
     2019.82203        -2.71171         6.72359
     2019.82477        -5.30169         6.49285
     2019.82751        -1.00967         6.57923
     2019.83025         0.14834         6.89044
     2019.83299        -5.66264         6.90937
     2019.83572         1.47138         6.75791
     2019.83846         1.43140         6.70111
     2019.84120         2.67742         6.70939
     2019.84394         0.23844         6.95552
     2019.84668         0.17046         6.86204
     2019.84941         2.90647         6.78039
     2019.85215         2.16649         6.68573
     2019.85489         1.67851         6.80879
     2019.85763        -5.96947         6.73188
     2019.86036        -5.28545         6.69756
     2019.86310         0.47557         6.82536
     2019.86584         3.96558         6.90701
     2019.86858         2.93360         6.66206
     2019.87132         4.35462         6.93659
     2019.87405         2.51564         6.70821
     2019.87679         9.53566         7.11527
     2019.87953         4.46768         6.73898
     2019.88227        23.90970         6.78513
     2019.88501         1.23571         6.57923
     2019.88774         2.36673         6.76028
     2019.89048         7.19175         6.60881
     2019.89322         6.60177         6.69993
     2019.89596        13.83879         6.73188
     2019.89869         2.85181         6.61591
     2019.90143         0.40083         6.49285
     2019.90417         2.80284         6.58515
     2019.90691       -16.17214         6.72359
     2019.91238        -6.37810         6.70111
     2019.91512        10.97592         6.54136
     2019.91786        12.36094         6.65259
     2019.92060         5.83396         6.62656
     2019.92334         6.74697         6.71058
     2019.92607         8.72499         6.66798
     2019.92881         3.48501         6.68218
     2019.93155         6.26503         6.59816
     2019.93429         7.73505         6.69638
     2019.93702        -1.55893         6.62893
     2019.93976        -1.09391         6.70584
     2019.94250         0.55810         6.69874
     2019.94524        -2.28088         6.74371
     2019.94798        -5.44886         6.66206
     2019.95071        -4.52084         6.89991
     2019.95345         2.85018         6.64668
     2019.95619         3.38620         6.62893
     2019.95893         0.71322         6.65614
     2019.96167        -0.24877         6.64313
     2019.96440         9.16425         6.91884
     2019.96714        19.87927         7.33892
     2019.96988        -0.04171         6.70584
     2019.97262         2.45731         6.60999
     2019.97535         1.15833         6.64076
     2019.97809        -4.99165         6.48338
     2019.98083        -3.73364         6.58041
     2019.98357        -8.55062         6.55911
     2019.98631        -0.92760         6.62538
     2019.98904        -3.64658         6.62419
     2019.99178        -1.11956         6.62893
     2019.99452        -4.37754         6.60408
     2019.99726         9.78648         6.76619
     2021.00205        -3.78072         6.92239
     2021.00479        22.96730         6.81826
     2021.00752        18.44632         6.76974
     2021.01026         7.80534         6.74608
     2021.01300         3.88236         6.86204
     2021.01574         1.61438         6.72478
     2021.01848        -3.63360         6.74371
     2021.02121        -4.29959         6.95552
     2021.02395        -3.52357         6.86677
     2021.02669        -4.26855         6.60763
     2021.02943        -6.09253         6.78749
     2021.03216        10.13249         6.88334
     2021.03490         4.30251         6.98866
     2021.03764        -7.51047         6.82181
     2021.04038        -5.95946         6.86441
     2021.04312        -5.90044         6.78749
     2021.04585        -4.54842         6.75673
     2021.04859        -6.74240         6.75318
     2021.05133        -6.99438         6.72359
     2021.05407        -0.34836         7.12000
     2021.05681         0.87966         6.94014
     2021.05954        -2.60533         6.70703
     2021.06228        -4.84931         6.74844
     2021.06502        -3.44329         6.72123
     2021.06776        -0.47127         6.56976
     2021.07049        -4.62525         6.54255
     2021.07323        -0.85223         6.56976
     2021.07597        -9.43721         6.75081
     2021.07871        -4.62320         6.72951
     2021.08145        -5.00118         6.71886
     2021.08418        -7.11716         6.75554
     2021.08692        -7.83814         6.82181
     2021.08966        -5.38312         6.83719
     2021.09240        -5.52410         6.73543
     2021.09514        -9.12608         6.82772
     2021.09787        15.48893         7.01469
     2021.10061         5.58395         6.91529
     2021.10335         8.82897         6.86086
     2021.10609        -3.06101         6.72833
     2021.10882        -6.16199         6.61946
     2021.11156        -7.87997         6.60408
     2021.11430        -9.13595         6.55201
     2021.11704        -6.13794         6.60763
     2021.11978        -3.51392         6.68809
     2021.12251        -5.84890         6.69283
     2021.12525        -1.22788         6.73424
     2021.12799        12.98714         7.00877
     2021.13073         5.20316         6.92357
     2021.13347        -7.01882         7.03835
     2021.13620        -7.26981         7.03599
     2021.13894       -10.13279         6.85967
     2021.14168         2.32723         6.89399
     2021.14442         3.98925         6.89044
     2021.14715         7.86927         6.89044
     2021.14989        -4.59071         6.85967
     2021.15263        -2.09869         7.01942
     2021.15537         0.76532         7.18272
     2021.15811         5.80034         7.33063
     2021.16084        -0.75264         7.07977
     2021.16358        -5.19862         6.96026
     2021.16632        -4.60660         6.92239
     2021.16906        -2.89458         6.79814
     2021.17180        -0.95057         6.80406
     2021.17453        -6.60755         7.09752
     2021.17727        -1.35453         6.98747
     2021.18001        -4.46151         6.96736
     2021.18275       -10.80549         6.93659
     2021.18548        -8.38247         6.69164
     2021.19096        -3.13144         6.78158
     2021.19370        -9.03142         6.79223
     2021.19644        -9.20340         6.76738
     2021.19917        -9.68438         6.73424
     2021.20191        -4.77136         6.66206
     2021.20465         0.45966         6.64313
     2021.20739        -6.71632         6.79459
     2021.21013        -3.83631         6.90227
     2021.21286        -2.13329         6.84666
     2021.21560         1.25873         6.77329
     2021.21834        -9.31725         6.64904
     2021.22108         3.10877         6.70703
     2021.22381        -7.10521         6.68218
     2021.22655        -3.14519         6.75673
     2021.22929         0.99482         6.81116
     2021.23203         5.19384         6.74371
     2021.23477       -10.53114         6.71176
     2021.23750        -1.00612         6.81826
     2021.24024         2.94990         6.69638
     2021.24298        -7.52108         6.65614
     2021.24572        -8.48006         6.71058
     2021.24846         0.63395         6.87979
     2021.25119         3.94297         6.77803
     2021.25393         1.08699         6.71058
     2021.25667        -1.57899         6.72004
     2021.25941        -2.74197         6.67508
     2021.26214         0.61405         6.71649
     2021.26488        -2.21793         6.73306
     2021.26762         9.39008         6.88926
     2021.27036        -0.16290         6.89162
     2021.27310         9.07912         6.85257
     2021.27583        -2.43086         6.75436
     2021.27857        -6.27784         6.77566
     2021.28131        -3.81182         6.88216
     2021.28405         0.92920         6.83246
     2021.28679         2.71221         6.84666
     2021.28952        -1.50677         6.85257
     2021.29226        -3.43075         6.84547
     2021.29500         1.42527         6.83719
     2021.29774        -3.76571         7.06557
     2021.30047         1.74831         6.85612
     2021.30321         3.01333         6.84074
     2021.30595         3.01534         7.07267
     2021.30869        12.42036         7.10225
     2021.31143         6.18038         6.82536
     2021.31416         6.75540         6.86441
     2021.31690         6.85842         6.78039
     2021.31964         1.32744         6.95789
     2021.32238         4.86346         6.95789
     2021.32512        -0.48453         6.83127
     2021.32785         1.77649         7.02534
     2021.33059         1.22051         7.00522
     2021.33333        -0.66547         6.81352
     2021.33607        -3.34245         6.67981
     2021.33880        -4.44843         6.73424
     2021.34154         0.01459         6.71649
     2021.34428        -6.53040         7.00522
     2021.34702         1.29362         6.91411
     2021.34976        -7.28736         6.70229
     2021.35249        -3.79434         6.69046
     2021.35523        -0.00132         6.73543
     2021.35797        -7.35430         6.71886
     2021.36071        -4.50528         6.77329
     2021.36344        -8.05727         6.73898
     2021.36618        -8.84125         6.74726
     2021.36892        -4.01923         6.65969
     2021.37166        -2.80421         6.70348
     2021.37440       -11.05219         6.70821
     2021.37713        -3.21217         6.80997
     2021.37987        -0.72515         6.97564
     2021.38261        -4.89714         7.10817
     2021.38535        -4.59912         6.87861
     2021.38809        -3.50210         6.80524
     2021.39082        -4.04308         6.78513
     2021.39356        -1.46506         6.83482
     2021.39630        -3.33704         6.77329
     2021.39904        -2.93303         6.80169
     2021.40177        10.23499         7.20520
     2021.40451         2.10601         6.93659
     2021.40725        -2.04897         6.82417
     2021.40999         4.15205         6.86441
     2021.41273         1.53707         6.79104
     2021.41546        -2.97891         6.74134
     2021.41820        -8.63690         6.90937
     2021.42094         4.79812         6.88452
     2021.42368        -6.52086         6.95671
     2021.42642         5.43216         6.94961
     2021.42915        13.96118         6.83127
     2021.43189        10.55020         6.89281
     2021.43463        -7.75778         6.84074
     2021.43737        -8.39977         6.79459
     2021.44010        -4.52575         6.98629
     2021.44284        -8.31473         7.10225
     2021.44558        -2.32771         7.01232
     2021.44832        -5.20669         6.97327
     2021.45106         7.26633         7.25608
     2021.45379         6.13735         6.95907
     2021.45653        -9.09964         7.03244
     2021.45927         3.87938         6.79578
     2021.46201        -0.18860         6.73661
     2021.46475        -4.91358         6.82891
     2021.46748         0.63444         6.78394
     2021.47022         6.33846         6.93304
     2021.47296        15.57048         6.97209
     2021.47570        -1.52251         7.00759
     2021.48117        -3.35947         6.82654
     2021.48391        -0.04045         6.88216
     2021.48665         0.46557         6.97209
     2021.48939        11.24659         6.93896
     2021.49212         8.84861         6.97091
     2021.49486         8.12062         6.85849
     2021.49760         5.10864         7.16379
     2021.50034         3.86766         7.02534
     2021.50308         9.11168         7.00995
     2021.50581         9.74770         6.91529
     2021.50855        11.97772         6.93067
     2021.51129        10.25774         6.90109
     2021.51403         3.36675         8.09269
     2021.51676        -0.77923         6.91292
     2021.51950         6.98479         7.11527
     2021.52224         4.11381         6.94014
     2021.52498         7.15483         6.85849
     2021.52772         9.95485         6.90819
     2021.53045         3.28187         7.02889
     2021.53319         7.21888         7.02415
     2021.53593         5.82690         7.14367
     2021.53867         9.38192         7.55546
     2021.54141         5.82294         7.14249
     2021.54414        -5.01104         7.07740
     2021.54688        -0.03902         7.05729
     2021.54962         1.67400         7.20520
     2021.55236        -1.56199         6.92476
     2021.55509         0.01503         7.13302
     2021.55783         3.99605         7.13065
     2021.56057        -0.08593         6.92476
     2021.56331         8.87609         6.95789
     2021.56605         7.95811         6.87151
     2021.56878         7.36113         6.96617
     2021.57152        -0.62886         7.01469
     2021.57426        -2.13084         6.98392
     2021.57700        -1.54882         7.13775
     2021.57974        -0.54680         6.93777
     2021.58247       -10.72478         7.17325
     2021.58521        -0.73976         6.99694
     2021.58795        -2.54974         6.97919
     2021.59069         4.26427         6.95552
     2021.59342         2.73729         7.09160
     2021.59616        -1.15469         7.36377
     2021.59890        -7.24067         7.05255
     2021.60164         3.22235         7.60398
     2021.60438         1.95137         6.92712
     2021.60711         7.12738         6.89991
     2021.60985         1.82240         6.94014
     2021.61259         2.71942         7.00759
     2021.61533        -0.93656         6.88334
     2021.61807        -2.59254         7.03599
     2021.62080         5.31748         6.92831
     2021.62354         1.16550         7.07267
     2021.62628         6.43351         7.21349
     2021.62902         5.67053         6.90701
     2021.63175         2.54855         6.98984
     2021.63449         3.20457         7.03599
     2021.63723         1.56559         7.22887
     2021.63997         2.40261         7.11054
     2021.64271         0.62563         7.09752
     2021.64544         3.23764         6.94369
     2021.64818        -0.77834         6.95671
     2021.65092         5.17268         7.21467
     2021.65366         1.15470         7.05255
     2021.65639        -0.15528         6.94961
     2021.65913         3.04174         7.00759
     2021.66187         9.53376         7.05729
     2021.66461         5.68377         6.96617
     2021.66735         8.24679         6.87979
     2021.67008         2.35281         7.03362
     2021.67282         6.66283         7.25372
     2021.67556        11.93385         7.28330
     2021.67830         3.82587         7.12000
     2021.68104         2.42389         6.93422
     2021.68377         7.71490         6.93541
     2021.68651         8.82492         7.16260
     2021.68925         4.73094         7.04900
     2021.69199         5.73696         6.97091
     2021.69472        -2.21302         7.25135
     2021.69746         8.12500         6.95789
     2021.70020         8.25502         6.88807
     2021.70294         0.86103         6.87742
     2021.70568        11.65205         7.02770
     2021.70841         7.79207         6.90464
     2021.71115        15.90609         6.94961
     2021.71389        19.13011         7.41820
     2021.71663        10.95013         6.95079
     2021.71937         0.67615         6.97327
     2021.72210        -0.30184         6.88334
     2021.72484        10.48818         6.89872
     2021.72758        -5.88680         6.98392
     2021.73032         5.98322         7.37205
     2021.73305         7.68624         6.84429
     2021.73579        11.82626         7.11527
     2021.73853        21.80028         7.22413
     2021.74127        14.76029         6.92949
     2021.74401         3.49931         6.93422
     2021.74674        12.91433         6.88452
     2021.74948         3.80435         7.03480
     2021.75222         6.82337         6.96499
     2021.75496        12.01939         7.10107
     2021.75770         6.19041         7.10462
     2021.76043        25.26542         7.02415
     2021.76317         3.12644         6.96026
     2021.76591         0.56146         6.96736
     2021.76865         6.60148         6.98156
     2021.77138         9.24150         7.00877
     2021.77412        19.53252         7.11645
     2021.77686         8.91854         6.92002
     2021.77960         6.19755         6.87269
     2021.78234         3.73757         7.00877
     2021.78507         6.51459         6.92121
     2021.78781         4.40161         7.00404
     2021.79055         9.00763         6.86559
     2021.79329        13.99665         6.98392
     2021.79603         0.09767         6.78868
     2021.79876         7.48468         6.85967
     2021.80150        13.99070         7.09752
     2021.80424        14.08072         7.15077
     2021.80698        11.76374         6.88807
     2021.80971         6.81276         6.85849
     2021.81245        11.05578         7.03007
     2021.81519         4.11580         6.98511
     2021.81793        23.52081         6.97327
     2021.82067        14.19183         7.35785
     2021.82340        13.94685         7.19929
     2021.82614        11.66787         7.09279
     2021.82888         1.77389         6.91766
     2021.83162         7.71991         6.91056
     2021.83436        10.13792         7.00759
     2021.83709        10.97994         7.17444
     2021.83983         1.58896         7.15905
     2021.84257        24.00698         7.25017
     2021.84531         4.13000         7.09160
     2021.84804         9.50702         7.02652
     2021.85078        12.14504         6.97209
     2021.85352         5.87305         6.97682
     2021.85626        20.90107         7.07149
     2021.85900         3.63609         6.95552
     2021.86173         3.79911         7.09279
     2021.86447         9.49313         7.21822
     2021.86721         5.18415         7.20520
     2021.86995         8.15917         7.31643
     2021.87269         6.72318         7.33182
     2021.87542         2.01420         7.00995
     2021.87816        -9.13578         6.79341
     2021.88090         2.42724         6.92594
     2021.88364         8.88226         6.96499
     2021.88637        -6.81172         6.86086
     2021.88911        -5.21570         6.86796
     2021.89185        -5.91469         6.93896
     2021.89459         3.46933         6.91056
     2021.89733        -6.43165         6.90464
     2021.90006        -6.50263         6.92357
     2021.90280        10.80239         6.95434
     2021.90554        -5.95859         6.81116
     2021.90828        18.08343         7.02179
     2021.91102         5.20944         7.09989
     2021.91375         4.30846         6.92949
     2021.91649         9.70648         6.88452
     2021.91923        12.89150         7.18745
     2021.92197        -5.31848         7.14722
     2021.92470        -3.75646         7.04782
     2021.92744        -0.11144         6.96854
     2021.93018       -11.40043         7.07267
     2021.93292        10.43659         7.36495
     2021.93566        21.72961         7.29987
     2021.93839         5.25563         6.94842
     2021.94113         5.96865         7.32472
     2021.94387        14.17267         7.17089
     2021.94661        -2.98431         7.00641
     2021.94935        -2.91830         7.08450
     2021.95208         4.41572         6.97801
     2021.95482         8.35374         7.02297
     2021.95756         4.82776         7.06794
     2021.96030        -3.90022         7.08332
     2021.96303        -3.13320         7.18864
     2021.96577         3.88782         7.13302
     2021.96851         4.49883         7.19810
     2021.97125         1.13585         7.09870
     2021.97399         9.37387         7.21230
     2021.97672        15.34489         7.20639
     2021.97946        23.68191         7.22887
     2021.98220        19.74593         7.25017
     2021.98494        21.28595         7.12355
     2021.98767         9.77396         7.10225
     2021.99041         1.14898         7.02534
     2021.99315         7.77100         7.16024
     2021.99589        14.34502         7.26673
     2022.00684       -12.64991         7.13065
     2022.05612        -9.43157         7.19929
     2022.05886       -14.56155         6.99457
     2022.06160       -12.83854         7.00286
     2022.06433        -4.45252         7.00404
     2022.06707       -12.11050         6.88452
     2022.06981        -0.45748         7.12592
     2022.07255       -14.28146         6.88216
     2022.07529        -8.79144         6.76501
     2022.07802       -10.48942         6.88452
     2022.08076         3.37759         6.87032
     2022.08350         8.12261         6.88452
     2022.08624        -2.03637         6.95079
     2022.08898        -6.99835         6.94132
     2022.09171       -16.29633         6.96972
     2022.09445       -13.84231         6.87742
     2022.09719        -6.53429         7.01232
     2022.09993       -10.29228         7.05610
     2022.10266        -6.10626         7.05965
     2022.10540        -6.50124         6.99812
     2022.10814        -5.46822         6.97327
     2022.11088        -1.95320         6.79696
     2022.11362        -6.24518         6.92357
     2022.11635         4.46484         6.98511
     2022.11909        -2.29815         6.86086
     2022.12183         0.72987         6.89044
     2022.12457        -5.75511         7.02060
     2022.12731        -6.83109         6.96854
     2022.13004       -15.84007         6.97091
     2022.13278        -6.64705         6.94487
     2022.13552        -6.86403         6.88689
     2022.13826         9.94698         6.88571
     2022.14099        -4.76300         6.96499
     2022.14373       -10.38298         6.96617
     2022.14647        -4.62496         6.90346
     2022.14921        -1.76594         7.12119
     2022.15195        -7.20192         7.11409
     2022.15468        -4.40090         6.68809
     2022.15742        19.52111         6.93067
     2022.16016         9.28213         7.14485
     2022.16290        -0.95985         7.09042
     2022.16564         8.67317         7.03244
     2022.16837         3.27819         7.00404
     2022.17111        -2.92079         6.79814
     2022.17385        -6.38877         6.76383
     2022.17659        -3.87776         6.92121
     2022.17932        -4.05874         6.88807
     2022.18206        -6.93972         6.93541
     2022.18480        -4.02570         6.81352
     2022.18754        -0.80168         6.73424
     2022.19028        -6.17366         6.98156
     2022.19301         8.11936         6.86204
     2022.19575         4.72737         7.05255
     2022.19849        -5.34761         6.78749
     2022.20123        10.94341         6.93422
     2022.20397         2.28043         6.94842
     2022.20670        -7.64655         7.02770
     2022.20944         2.49747         7.06439
     2022.21218         4.20049         7.03954
     2022.21492        -5.05050         6.76383
     2022.21765        -7.97248         6.82299
     2022.22039        -7.79146         6.91647
     2022.22313        -6.26844         7.04427
     2022.22587        -5.20642         7.09870
     2022.22861         0.72260         7.07149
     2022.23134         1.56462         6.88452
     2022.23408         0.14263         6.93777
     2022.23956       -13.83333         6.95552
     2022.24230        -7.18631         6.95197
     2022.24503        -2.72529         6.97801
     2022.24777         5.21873         6.90109
     2022.25051        -5.99325         7.13302
     2022.25325        -6.08824         6.92239
     2022.25598        10.03678         6.96262
     2022.25872        10.94180         7.00286
     2022.26146        -5.82518         6.95671
     2022.26420        -0.66516         6.80287
     2022.26694        -3.94614         7.09634
     2022.26967         5.84287         6.91529
     2022.27241        11.32689         6.86204
     2022.27515        -0.94409         6.94487
     2022.27789         1.53593         6.90937
     2022.28062        -4.12905         6.93777
     2022.28336        -2.14603         6.84784
     2022.28610        -1.78001         6.90582
     2022.28884        -6.18600         6.97801
     2022.29158        -3.35798         6.87387
     2022.29431        -3.82396         6.80997
     2022.29705        -7.11194         6.88452
     2022.29979         0.83208         6.95671
     2022.30253         1.21210         7.02415
     2022.30527        -5.52688         7.00404
     2022.30800       -11.28687         6.90701
     2022.31074        -4.10785         6.85967
     2022.31348        -4.95183         6.92121
     2022.31622        -6.56481         6.94251
     2022.31895       -22.56879         7.00049
     2022.32169        -1.84577         6.94961
     2022.32443        -7.83775         6.78394
     2022.32717        -4.43074         7.04309
     2022.32991       -10.13672         6.89399
     2022.33264        -9.78570         7.13302
     2022.33538        -5.56968         7.21467
     2022.33812        -2.10166         7.21585
     2022.34086         1.93436         7.13302
     2022.34360        -0.08562         7.16497
     2022.34633        10.49439         7.01942
     2022.34907        -6.01359         6.89517
     2022.35181        -0.05257         6.85021
     2022.35455        -9.79155         6.85849
     2022.35728        -6.08253         6.94606
     2022.36002        -1.52351         6.92831
     2022.36276        -2.33649         6.91529
     2022.36550         5.55652         6.99931
     2022.36824        -5.55146         6.95316
     2022.37097        -8.80844         6.96736
     2022.37371       -19.46142         6.88334
     2022.37645        -8.29640         7.03125
     2022.37919        -1.45438         7.02415
     2022.38193       -11.98736         6.96262
     2022.38466       -15.32335         6.92239
     2022.38740       -22.86333         6.91292
     2022.39014       -10.96031         6.94014
     2022.39288       -13.70729         6.86322
     2022.39561       -10.62127         6.89872
     2022.39835        -7.33925         7.03007
     2022.40109         2.52477         7.09634
     2022.40383        -4.33822         6.88571
     2022.40657         7.79480         7.17917
     2022.40930        -9.98718         6.99102
     2022.41204        -8.39816         6.98037
     2022.41478        -4.11214         6.92239
     2022.41752        -1.37612         7.13775
     2022.42026        -2.25510         7.09752
     2022.42299        -6.41309         6.84547
     2022.42573         2.66493         6.93067
     2022.42847        -0.72605         6.87387
     2022.43121        -6.92803         7.17680
     2022.43394        12.35899         7.15432
     2022.43668        -9.95699         6.93777
     2022.43942        -0.79997         7.00049
     2022.44216        -0.69596         6.95434
     2022.44490        10.65706         7.09042
     2022.44763         7.15308         6.91056
     2022.45037         3.64410         6.94132
     2022.45311       -14.41888         6.84666
     2022.45585        -6.75486         6.96736
     2022.45859        -8.59084         6.85376
     2022.46132        -7.32483         6.84429
     2022.46406       -10.56781         6.85731
     2022.46680        -7.65979         6.79341
     2022.46954        -9.25377         6.89162
     2022.47227       -20.07875         6.86559
     2022.47501         2.63427         6.91411
     2022.47775        -5.86672         7.01350
     2022.48049       -13.21370         6.82299
     2022.48323         1.68732         6.86796
     2022.48596         9.20734         6.80997
     2022.48870         4.53836         7.00167
     2022.49144       -10.47662         6.85257
     2022.49418        -3.57260         7.10462
     2022.49692        -1.43359         6.96144
     2022.49965        -7.76057         6.89636
     2022.50239       -23.67355         6.94842
     2022.50513        -5.00053         7.15905
     2022.50787         3.31149         7.34365
     2022.51060        -9.25549         7.19100
     2022.51334        -6.06147         7.05374
     2022.51608        -9.13946         7.05492
     2022.51882       -13.60644         7.01587
     2022.52156        -9.64242         6.95316
     2022.52429        -2.22040         6.81352
     2022.52703        10.03262         7.05255
     2022.52977         5.67664         7.08214
     2022.53251        -7.85234         7.00759
     2022.53525       -17.38633         7.12829
     2022.53798       -11.58931         7.11172
     2022.54072        -6.35429         6.92239
     2022.54346        -7.10327         6.85494
     2022.54620       -12.49025         7.02060
     2022.54893        -3.79523         7.01824
     2022.55167         4.31179         7.05137
     2022.55441        -2.68120         6.92831
     2022.55715         8.87782         7.06202
     2022.55989       -10.10016         6.90937
     2022.56262        -8.49914         6.99812
     2022.56536       -21.58312         6.96736
     2022.56810        -2.75510         6.97919
     2022.57084        -3.30008         7.06439
     2022.57357         0.85693         7.23242
     2022.57631       -19.72605         6.96972
     2022.57905        -7.97203         6.92121
     2022.58179        -8.11401         7.09634
     2022.58453         1.57601         7.34128
     2022.58726       -23.92197         7.27028
     2022.59000         6.10205         7.18154
     2022.59274        -8.48594         6.87506
     2022.59548        -6.41992         6.89281
     2022.59822       -16.96990         7.09515
     2022.60095        -8.21588         6.96972
     2022.60369        -6.97886         7.11172
     2022.60643        -2.97984         7.36613
     2022.60917         6.36018         7.14249
     2022.61190         1.40619         7.18272
     2022.61464        -7.80479         7.23597
     2022.61738         3.60823         6.93777
     2022.62012        -1.84475         6.94369
     2022.62286        -3.72073         7.01350
     2022.62559        -2.91871         6.89281
     2022.62833         1.87431         6.99931
     2022.63107         7.77432         7.06320
     2022.63381        12.38934         6.94606
     2022.63655         3.79636         6.86914
     2022.63928         8.14038         6.96617
     2022.64202        -9.98460         7.37087
     2022.64476         9.22642         7.43950
     2022.64750         7.63744         7.12237
     2022.65023         4.69245         7.36613
     2022.65297        17.75247         7.35312
     2022.65571         3.29849         7.08332
     2022.65845         9.10051         6.88807
     2022.66119         5.92153         6.87861
     2022.66392        10.89755         6.95907
     2022.66666         1.32157         6.89872
     2022.66940         8.18558         7.01232
     2022.67214         8.89160         6.98274
     2022.67488         3.87062         6.96144
     2022.67761         5.61164         7.05019
     2022.68035        11.67666         6.96144
     2022.68309         6.80468         7.18154
     2022.68583         9.62170         7.34483
     2022.68856         3.74171         7.13065
     2022.69130         5.76373         6.96144
     2022.69404         3.48175         7.04900
     2022.69678         2.14877         7.16497
     2022.69952        -5.72021         7.10225
     2022.70225        13.26981         7.20520
     2022.70499        10.49482         7.07149
     2022.70773         8.17184         6.96499
     2022.71047        -5.51214         6.87506
     2022.71321        14.60788         6.88926
     2022.71594        15.69090         6.94014
     2022.71868        11.89692         6.97446
     2022.72142        16.05694         7.00877
     2022.72416         8.63095         7.08214
     2022.72689         8.42197         7.05255
     2022.72963        10.46799         6.86914
     2022.73237         6.84501         6.97446
     2022.73511        12.81403         6.91529
     2022.73785         8.07805         6.84192
     2022.74058        16.70407         7.33892
     2022.74332        16.64608         7.28448
     2022.74606         3.72010         6.99102
     2022.74880         8.25412         6.81471
