# ================= DQRFIT RESULTS ================
# INPUT FILE: series/SKED.rad
# OUTPUT: LDETRENDED
# FILTER FUNCTION: f(t)
# f(t)=+line(t)+annual(t)
# line(t)=+P 1+P 2*t
# annual(t)=+P 3*sin(2*pi*t+P 4)
# heav(t)=(t<0?0:1)
# TOTAL OBSERVATIONS MTOT=  865
# INITIAL TIME INTERVAL= 2019.5045 - 2005.2704 = 14.2341
# TOTAL OBSERVATIONS AFTER PREFILTER M=  865
# TIME-SPAN= 2019.5045 - 2005.2704 = 14.2341
# OBSERVATIONS: USED M=   865 REJECTED MTOT-M=     0 %USED=  100.0000
# N=  4 PARAMETERS
# MAXSIG= 175.00000
# MAXRES=  20.10228
# SCALE FACTOR FOR LENGTHS: SCL=  10.00000
# SCALE FACTOR FOR SIGMAS: SCLSIG=   1.00000
# CHI^2=   1050.490 DOF=   861 CHI^2/DOF=   1.22008
# RMS=      6.421 SDEV=      6.424 MEAN=   -0.02999
#  P #       PARAMETER +-    SIGMA %error PARAMETER NAME
# P 1 =        58.53271 +-  106.275 181.57 YZERO                              
# P 2 =        -0.02769 +-    0.053 190.93 SLOPE                              
# P 3 =         4.41045 +-    0.309   7.00 ANNUAL AMPLITUDE                   
# P 4 =         3.01255 +-    0.098   3.25 ANNUAL PHASE                       
#       T            LDETRENDED       SIG_OBS
     2005.27037        11.97698         6.54459
     2005.27311         2.60305         6.50704
     2005.27584         1.28213         6.56779
     2005.27858        -3.04279         6.55122
     2005.28132        -2.48972         6.58546
     2005.28406        -1.56864         6.70144
     2005.28679        -1.16657         6.55785
     2005.28953         2.56351         6.47721
     2005.29227        -1.95142         6.57663
     2005.29501         5.99666         6.47611
     2005.29775        -1.32726         6.48826
     2005.30048         1.42581         6.38333
     2005.30322         1.08589         6.42199
     2005.30596         1.45296         6.42199
     2005.30870        -1.88896         6.46396
     2005.31144        -1.96588         6.49820
     2005.31417        -0.64781         6.47832
     2005.31691        -1.61973         6.44297
     2005.31965        -5.21766         6.54128
     2005.32239         2.02642         6.57663
     2005.32512        -5.60851         6.55453
     2005.32786        -3.33643         6.49157
     2005.33060        -1.60335         6.41204
     2005.33334         8.21472         6.28723
     2005.33608         2.85680         6.53134
     2005.33881         4.66887         6.42640
     2005.34155        -0.99705         6.36897
     2005.34429         2.99502         6.38333
     2005.34703         1.37910         6.29938
     2005.34977        -2.74482         6.33362
     2005.35250        -3.13475         6.65836
     2005.35524         5.27533         6.63296
     2005.35798         2.56040         6.58104
     2005.36072        -5.66052         6.63075
     2005.36345        -4.47144         6.62191
     2005.36619         3.43163         6.62633
     2005.36893        -5.45229         6.84172
     2005.37167         0.51678         6.65836
     2005.37441         3.23286         6.70586
     2005.37714         7.11193         6.65726
     2005.37988        -4.57699         6.93230
     2005.38262        -2.50991         6.91683
     2005.38536        -0.85384         6.63959
     2005.38810        -1.73876         6.60093
     2005.39083        -5.51769         6.48384
     2005.39357        -5.03361         6.46727
     2005.39631        -4.11653         6.46727
     2005.39905        -4.91446         6.48384
     2005.40178        -7.48838         6.67051
     2005.40452         4.42469         6.56227
     2005.40726        -1.14623         6.58767
     2005.41000        -5.47316         6.57331
     2005.41274        -3.03508         6.55343
     2005.41547        -4.95500         6.43635
     2005.41821        -5.93593         6.39879
     2005.42095        -6.00685         6.33804
     2005.42369        -1.34878         6.38443
     2005.42643        -0.91370         6.58988
     2005.42916        -2.61363         6.42972
     2005.43190         1.17445         6.49047
     2005.64819         2.18044         6.40542
     2005.65093         7.95052         6.41536
     2005.65367         6.89559         6.43414
     2005.65640         3.69467         6.38443
     2005.65914        10.75174         6.36013
     2005.66188         7.40382         6.30932
     2005.66462         5.75489         6.34688
     2005.66736         9.87297         6.38222
     2005.67009        12.73105         6.49931
     2005.67283         6.85312         6.40652
     2005.67557         6.29820         6.46506
     2005.67831         3.82327         6.33031
     2005.68105         3.82935         6.34135
     2005.68378         5.33743         6.40542
     2005.68652         8.69450         6.41094
     2005.68926         2.78158         6.50593
     2005.69200         2.12665         6.58657
     2005.69473         3.02973         6.48826
     2005.69747         1.87280         6.43966
     2005.70021         9.57788         6.62191
     2005.70295        11.19996         6.55122
     2005.70569         2.96503         6.61418
     2005.70842         3.56711         6.65947
     2005.71116         1.96918         6.45733
     2005.71390         6.58326         6.37338
     2005.71664         2.24633         6.58546
     2005.71938         4.17141         6.32037
     2005.72211        10.56849         6.48163
     2005.72485         1.38056         6.33141
     2005.72759         3.25064         6.42309
     2005.73033         6.19371         6.48495
     2005.73306         8.09279         6.45954
     2005.73580         9.06587         6.47501
     2005.73854         5.34594         6.52471
     2005.74128         8.13502         6.47832
     2005.74402         8.55209         6.42751
     2005.74675         8.27917         6.33804
     2005.74949        20.11024         6.37670
     2005.75223         6.25932         6.51919
     2005.75497        10.86040         6.48384
     2005.75770         7.19747         6.45844
     2005.76044        11.90555         6.36344
     2005.76318        13.17062         6.39216
     2005.76592        12.89570         6.33141
     2005.76866        11.19578         6.40652
     2005.77139         9.30685         6.32810
     2005.77413        10.85193         6.32037
     2005.77687         5.63600         6.61860
     2005.77961         7.22308         6.57221
     2005.78235         9.61615         6.44739
     2005.78508        11.77423         6.31042
     2005.78782        16.04131         6.46617
     2005.79056        10.56438         6.40873
     2005.79330        15.99046         6.39879
     2005.79603        12.86453         6.45181
     2005.79877         4.66661         6.53023
     2005.80151         4.86468         6.50041
     2005.80425        11.34876         6.43414
     2005.80699         9.42384         6.39769
     2005.80972        11.74691         6.34577
     2005.81246         9.17399         6.38885
     2005.81520         5.98006         6.41646
     2005.81794        13.77914         6.63406
     2005.82068         8.84422         6.44187
     2005.82341        11.19329         6.42640
     2005.82615        13.32137         6.36897
     2005.82889        12.70444         6.30711
     2005.83163         2.27852         6.54570
     2005.83436         4.52259         6.63075
     2005.83710         0.37567         6.71249
     2005.83984         6.14975         6.62412
     2005.84258         3.87282         6.58878
     2005.84532         3.94690         6.70476
     2005.84805        10.04397         6.90579
     2005.85079         7.46505         6.73568
     2005.85353        -0.69087         6.55122
     2005.85627         7.96420         6.59209
     2005.85901         6.25628         6.49599
     2005.86174         2.58135         6.69592
     2005.86448        10.02543         6.53023
     2005.86722         0.94050         6.44739
     2005.86996         5.18758         6.48053
     2005.87269        -0.07334         6.60645
     2005.87543         1.14573         6.48053
     2005.87817         2.52781         6.38222
     2005.88091         3.90088         6.42530
     2005.88365         3.44296         6.37228
     2005.88638         2.37503         6.45070
     2005.88912         4.00511         6.64180
     2005.89186         5.09019         6.42640
     2005.89460         5.99426         6.44408
     2005.89734        -0.74566         6.45954
     2005.90007         0.27041         6.51919
     2005.90281        -0.08251         6.56669
     2005.90555         5.57957         6.60093
     2005.90829         4.30764         6.39769
     2005.91102         0.86172         6.41536
     2005.91376        -4.01521         6.42972
     2005.91650        -3.91213         6.68267
     2005.91924        -3.98806         6.57663
     2005.92198         3.43002         6.40652
     2005.92471        -2.89790         6.33914
     2005.92745        -2.84883         6.31705
     2005.93019        -1.88175         6.32037
     2005.93293         4.18532         6.37780
     2005.93567         6.70440         6.38222
     2005.93840        -0.41552         6.35019
     2005.94114         2.18155         6.36676
     2005.95757         5.86601         7.05491
     2005.96031         1.41008         6.88370
     2005.97400        -4.05454         6.52582
     2005.97673        -5.19546         6.57000
     2005.97947        -3.38039         6.48716
     2005.98221        -0.15431         6.64621
     2005.98495         9.03076         6.42861
     2005.98768        -2.74516         6.42420
     2005.99042       -10.10708         6.63075
     2005.99316        -0.84001         6.51919
     2005.99590         0.37307         6.60314
     2005.99864         4.15714         6.49047
     2006.00411        -2.37871         6.46727
     2006.00685        -9.31863         6.54791
     2006.00959        -9.04555         6.51367
     2006.01233        -4.96648         6.48495
     2006.01506       -13.63040         6.53576
     2006.01780        -1.85533         6.62081
     2006.02054        -1.03625         6.66499
     2006.02328        -3.79017         6.63185
     2006.02601        -2.68510         6.66610
     2006.02875        -3.46902         6.57331
     2006.03149         0.39605         6.48936
     2006.03423         5.11713         6.48384
     2006.03697         4.55520         6.56779
     2006.03970        -3.45572         6.52582
     2006.04244        -0.94364         6.46396
     2006.04518        -6.28757         6.60976
     2006.04792        -3.53749         6.52029
     2006.05065         2.07558         6.43635
     2006.05339        -3.35534         6.45402
     2006.05613         1.66273         6.32478
     2006.05887        -5.33219         6.26955
     2006.06161        -5.31611         6.26403
     2006.06434         4.35296         6.37891
     2006.06708        -4.70096         6.17346
     2006.06982        -5.87689         6.14584
     2006.07256        -9.86281         6.18450
     2006.07530        -6.29873         6.19997
     2006.07803        -6.83266         6.25961
     2006.08077        -3.56258         6.38001
     2006.08351        -5.01951         6.29054
     2006.08625        -3.85543         6.38885
     2006.08898        -5.26936         6.33914
     2006.09172        -3.37428         6.32037
     2006.09446        -6.18120         6.50483
     2006.09720        -9.73113         6.38001
     2006.09994        -8.06305         6.22206
     2006.10267        -8.04498         6.22979
     2006.20397       -16.89417         6.58215
     2006.20671       -17.88010         6.58767
     2006.20945       -10.69902         6.42751
     2006.21219       -14.05594         6.50925
     2006.21493       -10.88887         6.43082
     2006.21766       -12.34079         6.46065
     2006.22040       -16.42472         6.55012
     2006.22314       -17.55264         6.54459
     2006.22588       -14.00656         6.61529
     2006.22862        -6.82649         6.78429
     2006.23135       -10.76541         6.47942
     2006.23409        -4.55134         6.51256
     2006.23683       -15.74926         6.38885
     2006.23957        -9.32819         6.31153
     2006.24230        -6.95711         6.29386
     2006.24504        -6.68103         6.32037
     2006.24778        -1.49396         6.33252
     2006.25052       -12.64488         6.28723
     2006.25326        -7.46781         6.33472
     2006.25599        -7.88573         6.38112
     2006.25873        -4.94366         6.36013
     2006.26147        -5.11158         6.47942
     2006.26421        -4.88750         6.55233
     2006.26695       -11.63543         6.54128
     2006.26968        -9.44435         6.32478
     2006.27242        -4.85828         6.38222
     2006.27516        -2.28220         6.57221
     2006.27790       -14.76512         6.57552
     2006.28063       -11.06205         6.32037
     2006.28337        -4.16097         6.34688
     2006.28611        -6.00790         6.50814
     2006.28885       -14.79382         6.44187
     2006.29159        -7.58475         6.28281
     2006.29432        -6.29967         6.29827
     2006.29706        -6.73559         6.28281
     2006.29980        -0.09652         6.44408
     2006.30254        -5.25644         6.36676
     2006.30528       -14.21737         6.38774
     2006.30801        -5.28929         6.30380
     2006.31075        -8.99221         6.31042
     2006.31349       -13.52414         6.56669
     2006.31623       -14.38506         6.39216
     2006.32170       -13.95791         6.37228
     2006.32444       -11.10984         6.39437
     2006.32718       -12.76076         6.41315
     2006.32992        -9.39568         6.43524
     2006.33265       -10.04661         6.35019
     2006.33539       -11.45853         6.30932
     2006.33813       -10.40846         6.28281
     2006.34087       -14.08138         6.38443
     2006.34361       -12.15131         6.39658
     2006.34634        -9.36423         6.46506
     2006.34908       -13.18015         6.43966
     2006.35182       -13.48108         6.40873
     2006.35456       -15.05300         6.28612
     2006.35729       -10.59593         6.36676
     2006.36003       -10.73385         6.33914
     2006.36277       -11.99177         6.37559
     2006.36551       -17.94270         6.33252
     2006.36825       -16.01762         6.40984
     2006.37098       -14.67355         6.49268
     2006.37372       -15.27147         6.53576
     2006.37646        -3.81240         6.50925
     2006.37920        -4.16632         6.66720
     2006.38193        -5.98324         6.61970
     2006.38467        -7.53917         6.63185
     2006.38741        -8.04709         6.56006
     2006.39015       -12.22002         6.61529
     2006.39289       -11.85194         6.56006
     2006.39562       -14.08586         6.71801
     2006.39836       -12.36779         6.71359
     2006.40110       -15.04271         6.50704
     2006.40384        -9.11764         6.52803
     2006.40658       -10.67356         6.49599
     2006.40931       -11.92049         6.48936
     2006.41205       -12.13141         6.46175
     2006.41479       -10.83533         6.48274
     2006.41753       -14.96326         6.75999
     2006.42026       -10.35818         6.70476
     2006.42300       -17.03611         6.76219
     2006.42574       -13.65303         6.75004
     2006.42848       -11.32896         6.81411
     2006.43122       -11.17188         6.75446
     2006.43395       -11.25980         6.67051
     2006.43669       -10.71773         6.53134
     2006.43943       -11.75665         6.57773
     2006.44217       -10.83558         6.56889
     2006.44491       -10.36850         6.57994
     2006.44764       -13.66742         6.60535
     2006.87749         4.37748         6.44518
     2006.88022         0.84855         6.42640
     2006.88296        -1.47337         6.38995
     2006.88570        -3.04930         6.44850
     2006.88844        -4.48322         6.57442
     2006.89118        -5.31814         6.53686
     2006.89391       -16.98807         6.80969
     2006.89665         0.88901         6.52582
     2006.89939        -1.85792         6.41536
     2006.90213         1.89716         6.43303
     2006.90486        -9.07276         6.58325
     2006.90760        10.36231         6.39437
     2006.91034         1.31439         6.40321
     2006.91308         0.49646         6.43082
     2006.91582        -5.47046         6.53134
     2006.91855        -8.75239         6.46065
     2006.92129        -4.34231         6.41978
     2006.92403        -5.35423         6.38995
     2006.92677        -4.59016         6.47721
     2006.92951        -1.85808         6.62523
     2006.93224        -4.24601         6.49047
     2006.93498        -2.17893         6.55122
     2006.93772        -0.24885         6.55453
     2006.94046         4.67322         6.64511
     2006.94319        -1.88370         6.49820
     2006.94593        -5.11863         6.62633
     2006.94867        -1.14155         6.54680
     2006.95141        -4.11148         6.63627
     2006.95415       -10.58140         6.87265
     2006.95688         5.56368         6.56558
     2006.95962         1.61375         6.53465
     2006.96236        -1.69117         6.56227
     2006.96510        -0.96310         6.64953
     2006.96784        -0.86302         6.49931
     2006.97057        -5.75495         6.58657
     2006.97331        -8.22887         6.61418
     2006.97605        -6.33879         6.72685
     2006.97879        -2.37372         6.62302
     2006.98152        -9.06364         6.62412
     2006.98426        -8.34057         6.78539
     2006.98700        -2.32449         6.92567
     2006.98974        -2.36041         6.84504
     2006.99248        -9.53834         6.79644
     2006.99521        -4.95026         6.71801
     2006.99795        -4.31319         6.68156
     2007.00343        -0.93304         6.68929
     2007.00616        -1.26096         6.74121
     2007.01164        -0.97181         8.11861
     2007.01438        -3.01673         6.52692
     2007.01985        -9.47858         6.54570
     2007.02259        -6.05150         6.38664
     2007.02533         1.20457         6.55674
     2007.02807        -1.68135         6.54128
     2007.03081        -8.24828         6.32257
     2007.03354        -5.78520         6.25961
     2007.03628        -6.00613         6.24967
     2007.03902        -9.01705         6.21322
     2007.04176        -8.85197         6.26955
     2007.04449        -7.31390         6.25078
     2007.04723       -10.08682         6.39106
     2007.04997        -6.60475         6.55453
     2007.05271        -4.65667         6.48826
     2007.05545        -8.61860         6.22095
     2007.05818        -6.84452         6.22095
     2007.06092       -11.28544         6.21764
     2007.52909         4.29452         6.35240
     2007.53183         6.43460         6.40873
     2007.53457        -0.73433         6.46727
     2007.53731         4.02975         6.36565
     2007.54005         2.63382         6.53907
     2007.54278         4.04090         6.49047
     2007.54552         9.37197         6.59651
     2007.54826         7.14205         6.39658
     2007.55100         1.62313         6.35571
     2007.55374         4.04920         6.31816
     2007.55647         3.30428         6.36013
     2007.55921        11.29935         6.61860
     2007.56195         5.49143         6.60976
     2007.56469         9.95951         6.35461
     2007.56742         3.46158         6.33031
     2007.57016         6.24666         6.46286
     2007.57290        -1.34027         6.39769
     2007.57564        -1.47219         6.40431
     2007.57838         8.61288         6.48605
     2007.58111         0.73396         6.36344
     2007.58385         2.41404         6.38001
     2007.58659        -1.06189         6.30380
     2007.58933         7.23419         6.39327
     2007.59206         8.90126         6.49599
     2007.59480        16.71734         6.48605
     2007.59754         4.03041         6.47832
     2007.60028         6.89149         6.31153
     2007.60302         9.40757         6.34246
     2007.60575        10.61664         6.32699
     2007.60849         5.94072         6.35571
     2007.61123         5.50579         6.33031
     2007.61397         0.75587         6.26293
     2007.61671        -4.45505         6.77545
     2007.61944        -0.42698         6.81080
     2007.62218        -2.13090         6.86602
     2007.62492        -1.27983         6.59982
     2007.62766         2.78525         6.76219
     2007.63039         3.02932         6.89364
     2007.63313         1.22540         6.61639
     2008.17797         0.41149         6.32257
     2008.18070        -1.63044         6.25409
     2008.18344        -3.59136         6.28833
     2008.18618         1.62171         6.31816
     2008.18892         0.05679         6.32589
     2008.19165         4.64487         6.31484
     2008.19439         0.33194         6.26845
     2008.19713         3.20702         7.02398
     2008.19987         4.54709         6.82957
     2008.20261         3.30217         6.34577
     2008.20534         5.55924         6.40763
     2008.20808         4.98532         6.55012
     2008.21082         6.03940         6.61087
     2008.21356         8.56047         7.11566
     2008.21629         0.26655         6.77987
     2008.21903         0.65962         6.54901
     2008.22177         0.01170         6.42088
     2008.22451         1.85877         6.61750
     2008.22725         0.39285         6.90248
     2008.22977         4.87092         8.21029
     2008.23276         0.30400         8.20366
     2008.23546         2.36608         6.71912
     2008.23796         4.04815         6.99195
     2008.24096         5.02523         6.87376
     2008.24367         2.20531         6.91352
     2008.24641         3.78838         6.34135
     2008.24915         6.71846         6.28723
     2008.25189         4.53553         6.42309
     2008.25462         5.29561         6.33914
     2008.25700         3.67067         7.54202
     2008.25993        -1.23224         7.66684
     2008.26280        -3.80116         7.53429
     2008.26558        -1.75509         6.77987
     2008.26831         5.60599         6.45623
     2008.27105        13.99106         6.42751
     2008.27379         8.45914         6.33583
     2008.27627        -2.08879         6.93451
     2008.28748         9.77152         6.69261
     2008.29022         5.57959         6.55233
     2008.29295         4.18667         6.40984
     2008.29569         6.03275         6.74010
     2008.29843        -2.61518         7.33326
     2008.30117        -2.11310         6.37559
     2008.30391         4.47597         6.29717
     2008.30664         6.54905         6.60314
     2008.30938         2.26612         7.73422
     2008.31212         2.46320         6.67383
     2008.31486         5.21428         6.38333
     2011.85764        -0.63663         6.32368
     2011.86037         3.69745         6.29386
     2011.86311         0.73952         6.27618
     2011.86585         4.74560         6.30932
     2011.86859         7.27468         6.24194
     2011.87133         1.97975         6.28171
     2011.87406        -3.32017         6.27176
     2011.87680        -5.99610         6.29827
     2011.87954        -6.53502         6.41204
     2011.88228         1.51405         6.21543
     2011.88502        -0.38087         6.25409
     2011.88775        -4.15379         6.25851
     2011.89049        -2.02372         6.36676
     2011.89323         0.99836         6.33693
     2011.89597        -4.61557         6.29938
     2011.89870        -0.32749         6.30711
     2011.90144        -3.14341         6.25188
     2011.90418        -2.71634         6.33031
     2011.90692        -0.74126         6.25851
     2011.90966         0.54181         6.31595
     2011.91239         0.31689         6.42861
     2011.91513         3.37396         6.29386
     2011.91787         3.28004         6.41978
     2011.92061        -1.74988         6.32368
     2011.92334        -2.50881         6.38222
     2011.92608        -2.33573         6.39106
     2011.92882        -3.22366         6.31153
     2011.93156         3.56342         6.31374
     2011.93430         1.53849         6.40100
     2011.93703         2.27757         6.34025
     2011.93977         1.30965         6.37228
     2011.94251         2.33172         6.34356
     2011.94525         7.24180         6.31816
     2011.94799         9.59287         6.33693
     2011.95072         7.02695         6.23863
     2011.95346         5.44203         6.45181
     2011.95620         0.80610         6.39327
     2011.95894         3.33418         6.16573
     2011.96167         4.62425         6.17567
     2011.96441         5.61433         6.35461
     2011.96715         6.13240         6.23089
     2011.96989         7.33748         6.18340
     2011.97263        -0.56044         6.14584
     2011.97536         0.69563         6.13038
     2011.97810         0.77471         6.23200
     2011.98084         4.11478         6.17788
     2011.98358         5.66086         6.16904
     2011.98632         4.92294         6.19444
     2011.98905        -5.92199         6.20880
     2011.99179         6.57309         6.15468
     2011.99453         5.94116         6.38774
     2011.99727         1.68824         6.21212
     2012.00274         4.89539         6.19444
     2012.00548         2.29947         6.18671
     2012.00822         5.57654         6.19555
     2012.01096         3.49162         6.18561
     2012.01369         7.28469         6.20328
     2012.01643         8.90277         6.13148
     2012.01917         9.08984         6.15578
     2012.02191         6.00292         6.16793
     2012.02465        10.16800         6.12817
     2012.02738         9.60907         6.86492
     2012.03012         8.17915         6.14142
     2012.03286         3.30022         6.15910
     2012.03560         4.38730         6.17014
     2012.03833         8.68038         6.27839
     2012.04107        11.46345         6.18008
     2012.04381         5.06653         6.15026
     2012.04655         6.44160         6.23200
     2012.05750         4.71591         6.19113
     2012.06571        -1.35187         6.89253
     2012.06845        -5.68379         6.20439
     2012.07393         1.68436         6.12486
     2012.07666         2.88244         6.20549
     2012.07940         5.88051         6.17677
     2012.08214         5.34659         6.21101
     2012.08488         5.39666         6.31595
     2012.08762         8.17574         6.21101
     2012.09035         6.01682         6.16904
     2012.09309         4.73689         6.23089
     2012.09583         4.42697         6.15799
     2012.09857         6.28404         6.20107
     2012.10131         3.35312         6.35350
     2012.10404         0.47619         6.15689
     2012.10678         2.15727         6.34798
     2013.08419        -1.81267         6.10276
     2013.08693        -5.67859         6.15689
     2013.08967        -5.25951         6.11491
     2013.09241        -0.44244         6.05748
     2013.09515         1.09264         6.17788
     2013.09788         3.61271         6.33693
     2013.10062        -1.41721         6.58878
     2013.10336         0.31686         6.24084
     2013.10610         5.12594         6.13590
     2013.10883         2.57402         6.12486
     2013.11157        -3.89091         6.28612
     2013.11431         0.95017         6.09724
     2013.11705        -3.51576         6.19886
     2013.11979        -1.89568         6.30601
     2013.12252        -5.36460         6.08178
     2013.12526        -5.68453         6.14142
     2013.12800        -4.10445         6.15799
     2013.13074        -0.95438         6.14142
     2013.13347         1.36270         6.11823
     2013.13621         1.08677         6.22758
     2013.13895         2.76885         6.13148
     2013.14169         3.28693         6.26955
     2013.14443        -0.37200         6.33804
     2013.14716         3.49408         6.39658
     2013.14990        -5.87985         6.13038
     2013.15264        -4.48177         6.16573
     2013.15538        -5.79969         6.15137
     2013.15812        -2.37362         6.20549
     2013.16085        -3.34554         6.18008
     2013.16359        -7.37047         6.12486
     2013.16633        -3.84939         6.14142
     2013.16907        -0.25432         6.22206
     2013.17180         3.32376         6.20770
     2013.17454         0.04884         6.19003
     2013.17728        -3.44909         6.37891
     2013.18002        -8.30201         6.29606
     2013.18276         2.68806         6.12927
     2013.18549         2.74514         6.19223
     2013.18823        -4.21879         6.19223
     2013.19097        -1.86871         6.11602
     2013.19371        -2.81163         6.20218
     2013.19645        -7.99756         6.15578
     2013.19918         2.12052         6.17235
     2013.20192         0.27359         6.28944
     2013.20466         1.76267         6.18340
     2013.20740        -1.55925         6.21543
     2013.21013         2.35282         6.14363
     2013.21287        -1.20810         6.12265
     2013.21561        -1.08003         6.33804
     2013.21835         8.56405         6.22869
     2013.22109         1.68312         6.13148
     2013.22382         3.09520         6.15137
     2013.22656        -1.02472         6.12375
     2013.22930        -3.15365         6.12044
     2013.23204         1.67343         6.16462
     2013.23478         0.04950         6.19555
     2013.23751        -3.85942         6.31816
     2013.24025        -8.02434         6.31484
     2013.24299        -0.01727         6.25961
     2013.24573         7.05681         6.32037
     2013.24846         3.54488         6.28833
     2013.25120        -3.38004         6.28502
     2013.25394         0.37403         6.29054
     2013.25668        -1.82089         6.54238
     2013.25942         4.99719         6.32478
     2013.26215         3.51726         6.29386
     2013.26489        -1.86266         6.36344
     2013.26763         2.23241         6.27839
     2013.27037        -2.65951         6.36786
     2013.27311         4.55556         6.41094
     2013.27584         7.14464         6.57331
     2013.27858         3.97072         6.40652
     2013.28132         4.44979         6.41867
     2013.28406         6.87087         6.24305
     2013.28679         1.16394         6.32257
     2013.28953         1.45302         6.23531
     2013.29227         2.13910         6.25961
     2013.29501        -1.31583         6.25630
     2013.29775        -2.15575         6.24746
     2013.30048        -0.66068         6.34798
     2013.30322        -2.58360         6.26514
     2013.30596         1.52947         6.34025
     2013.30870        -2.52445         6.21985
     2013.31144        -4.01837         6.20439
     2013.31417         1.85470         6.23642
     2013.31691         0.26678         6.18782
     2013.31965        -3.60315         6.21543
     2013.32239        -2.38607         6.31042
     2013.32512         6.66201         6.20880
     2013.32786         5.26308         6.24746
     2013.33060        -0.99284         6.18229
     2013.33334        -2.96377         6.21212
     2013.33608        -2.68169         6.19444
     2013.33881        -2.75862         6.20328
     2013.34155         6.59046         6.30269
     2013.34429        -2.19046         6.24746
     2013.34703        -0.90839         6.20328
     2013.34977        -3.43231         6.22648
     2013.35250        -2.73424         6.29386
     2013.35524        -5.77316         6.43966
     2013.35798         0.43091         6.24857
     2013.36072        -0.57401         6.23531
     2013.36345        -1.72293         6.29165
     2013.36619         0.66714         6.21101
     2013.36893         1.53022         6.39989
     2013.37167        -2.62071         6.27397
     2013.37441        -0.48663         6.25078
     2013.37714        -4.99255         6.25630
     2013.37988         1.64952         6.28060
     2013.38242        -9.62741         6.80527
     2014.71048        -4.88464         6.54128
     2014.71321        10.68344         6.56337
     2014.71595         1.23852         6.46286
     2014.71869         1.39659         6.36123
     2014.72143         0.94767         6.35903
     2014.72417        -2.32026         6.33583
     2014.72690         6.29782         6.39437
     2014.72964         5.39189         6.44408
     2014.73238        -6.46303         6.56116
     2014.73512        -8.85895         6.53023
     2014.73786         3.34412         6.44297
     2014.74059        -5.60780         6.40652
     2014.74333        -1.50173         6.42751
     2014.74607         7.59435         6.46396
     2014.74881        -0.48357         6.36786
     2014.75154        -1.00050         6.54570
     2014.75428         2.56658         6.38774
     2014.75702        -3.98235         6.31816
     2014.75976         3.30773         6.34577
     2014.76250         0.49180         6.35571
     2014.76523        -3.00812         6.37559
     2014.76797        -0.72704         6.37449
     2014.77071        -1.69397         6.36676
     2014.77345        -2.05989         6.33252
     2014.77619        -2.37882         6.37007
     2014.77892         4.32326         6.43524
     2014.78166        -0.35366         6.30159
     2014.78440        -0.02959         6.48716
     2014.78714         0.03049         6.78429
     2014.78987         1.93756         6.36344
     2014.79261        -3.94936         6.40321
     2014.79535        -0.91729         6.35571
     2014.79809         5.09179         6.45844
     2014.80083        -8.10013         6.48605
     2014.80356        -6.03706         6.60093
     2014.80630         0.06802         6.50041
     2014.80904        -0.00091         6.33141
     2014.81178         5.15017         6.34135
     2014.81452         6.29924         6.58767
     2014.81725         0.69032         6.34908
     2014.81999         3.82440         6.35903
     2014.82273         6.55047         6.48936
     2014.82547         0.59755         6.39658
     2014.82820         0.75962         6.25961
     2014.83094         3.97370         6.49157
     2014.83368         0.64878         6.40652
     2014.83642         0.74885         6.41094
     2014.83916         6.26493         6.38664
     2014.84189         3.63800         6.38443
     2014.84463        -0.82192         6.34467
     2014.84737         1.18815         6.37891
     2014.85011         2.57423         6.45070
     2014.85285         4.70731         6.37891
     2014.85558         9.41638         6.45181
     2014.85832         4.02346         6.43303
     2014.86106         2.91353         6.36565
     2014.86380         0.53361         6.45402
     2014.86653        -4.68831         6.58436
     2014.86927        -2.30524         6.50593
     2014.87201         5.99084         6.57552
     2014.87475         0.62491         6.42861
     2014.87749         0.00699         6.48384
     2014.88022         2.91806         6.43193
     2014.88296         5.03514         6.53907
     2014.88570         3.23722         6.69040
     2014.88844         4.81929         6.79091
     2014.89118        -1.54163         6.94666
     2014.89391        -1.38056         6.64621
     2014.89665         6.23552         6.67383
     2014.89939        -1.27141         6.74342
     2014.90213        -1.81633         6.70476
     2014.90486        -4.99225         6.49599
     2014.90760         2.17082         6.42199
     2014.91034        -1.62310         6.69702
     2014.91308         7.35497         6.50152
     2014.91582         0.50705         6.54128
     2014.91855        -0.73687         6.53797
     2014.92129        -4.82480         6.48163
     2014.92403        -7.21872         6.54349
     2014.92677         2.08835         6.49931
     2014.92951        -7.78257         6.51808
     2014.93224        -5.00150         6.53355
     2014.93498        -4.74142         6.62744
     2014.93772        -5.62934         6.45181
     2014.94046        -4.96927         6.54791
     2014.94319         6.02381         6.90579
     2014.94867        -2.26304         6.29386
     2014.95141         0.00704         6.28281
     2014.95415       -10.47589         6.40100
     2014.95688         7.54019         6.31484
     2014.95962         8.11126         6.33693
     2014.96510        -2.56359         6.39658
     2014.96784        -3.91951         6.29496
     2014.97605       -10.10028         6.33031
     2014.97879       -10.42821         6.29717
     2014.98426         0.74094         6.30932
     2014.98700         2.64902         6.32589
     2014.98974        -5.32390         6.30711
     2014.99248        -7.75783         6.27176
     2014.99521        -6.31475         6.34135
     2014.99795         3.08032         6.24305
     2015.00069        -0.32160         6.33252
     2015.00343        -1.84652         6.28723
     2015.00616        -8.04545         6.26955
     2015.00890         0.94063         6.39106
     2015.01164        -3.02430         6.40321
     2015.01438        -4.73822         6.36013
     2015.01712        -2.33515         6.43082
     2015.01985         1.47793         6.35682
     2015.02259        -1.97399         6.48716
     2015.02533         0.63808         6.38333
     2015.02807         1.80116         6.39437
     2015.71253         8.92611         6.27287
     2015.71527        14.27219         6.25851
     2015.71801        16.67526         6.33141
     2015.72074        17.79634         6.24305
     2015.72348        14.24341         6.35240
     2015.72622         6.87849         6.25299
     2015.72896         7.77356         6.26403
     2015.73170         8.59864         6.33031
     2015.73443        21.17672         6.38222
     2015.73717        14.99379         6.46727
     2015.73991        19.02287         6.42530
     2015.74265        19.32494         6.48053
     2015.74538        20.27102         6.74673
     2015.74812         5.80110         6.52250
     2015.75086         7.22617         6.40652
     2015.75360        10.74025         6.36234
     2015.75634        24.49532         6.25520
     2015.75907        18.14640         6.26955
     2015.76181         9.91047         6.25740
     2015.76455         9.85355         6.28502
     2015.76729        12.81763         6.28612
     2015.77003        10.22170         6.24415
     2015.77276        13.98678         6.26514
     2015.77550         9.49085         6.27287
     2015.77824        14.78193         6.29606
     2015.78098        14.73401         6.29386
     2015.78371        14.83308         6.28612
     2015.78645        13.87716         6.28391
     2015.78919         7.54623         6.27176
     2015.79193        12.79631         6.30159
     2015.79467         7.51038         6.33914
     2015.79740        15.88046         6.32147
     2015.80014        12.85654         6.40321
     2015.80288        12.95861         6.24636
     2015.80562        16.54269         6.29827
     2015.80836        12.35876         6.31484
     2015.81109         8.23784         6.28612
     2015.81383         9.53691         6.32478
     2015.81657        13.23499         6.24746
     2016.70911         0.86770         7.53981
     2016.71186         9.11578         6.70917
     2016.71458         5.88686         6.88370
     2016.71732        12.77793         6.92236
     2016.72003        -5.21699         7.12339
     2016.72281        12.88308         7.10130
     2016.72554        11.12116         6.63738
     2016.72827        13.45723         6.59209
     2016.73100         5.14731         7.35093
     2016.73375         3.08339         7.01183
     2016.73651         5.22346         7.45034
     2016.73922         2.51154         7.72759
     2016.74197         1.69161         7.57958
     2016.74465         1.22369         7.17530
     2016.74741         8.03376         7.60830
     2016.75023        -4.95216         7.82369
     2016.75292         5.38292         7.06043
     2016.75567         9.03499         6.27618
     2016.75829        13.41207         7.04717
     2016.76113        12.32714         6.93230
     2016.76385         8.22422         7.40837
     2016.76664         3.81430         7.53981
     2016.76934         5.24837         7.74306
     2016.77207         3.13645         7.54644
     2016.77481         4.06552         7.23937
     2016.77753         3.68760         7.29239
     2016.78031         5.13168         7.72649
     2016.78303         4.18775         7.72649
     2016.78578         2.54583         7.25925
     2016.78851         4.18490         7.40506
     2016.79124        -3.63702         6.52913
     2016.79394         1.36105         7.40064
     2016.79661         4.83413         7.43930
     2019.43053        -1.71794         6.31374
     2019.43327       -13.16687         6.16241
     2019.43601       -15.51679         6.21874
     2019.43875       -18.47372         6.17567
     2019.44148       -16.29764         6.23642
     2019.44422       -11.13356         6.26624
     2019.44696       -13.31449         6.33141
     2019.44970        -8.37341         6.36676
     2019.45243       -15.99634         6.33804
     2019.45517       -17.07826         6.28833
     2019.45791       -12.21918         6.23642
     2019.46065       -13.43111         6.31484
     2019.46339       -15.01003         6.57000
     2019.46612        -4.65996         6.62744
     2019.46886        -7.75188         6.42640
     2019.47160        -5.64181         6.24194
     2019.47434       -10.44773         6.28612
     2019.47708        -7.40965         6.32478
     2019.47981       -10.11458         6.34246
     2019.48255       -18.52450         6.44076
     2019.48529       -11.09943         6.32257
     2019.48803       -17.66535         6.30711
     2019.49076       -17.40828         6.20549
     2019.49350        -9.67420         6.23089
     2019.49624       -15.90612         6.23421
     2019.49898       -17.46605         6.14474
     2019.50172       -14.53997         6.21433
     2019.50445       -11.17690         6.21654
