# ================= DQRFIT RESULTS ================
# INPUT FILE: series/SPKV.rad
# OUTPUT: LDETRENDED
# FILTER FUNCTION: f(t)
# f(t)=+line(t)+annual(t)
# line(t)=+P 1+P 2*t
# annual(t)=+P 3*sin(2*pi*t+P 4)
# heav(t)=(t<0?0:1)
# TOTAL OBSERVATIONS MTOT= 1007
# INITIAL TIME INTERVAL= 2010.9536 - 2007.8741 =  3.0795
# TOTAL OBSERVATIONS AFTER PREFILTER M=  981
# TIME-SPAN= 2010.9536 - 2007.9052 =  3.0484
# OBSERVATIONS: USED M=   981 REJECTED MTOT-M=    26 %USED=   97.4181
# N=  4 PARAMETERS
# MAXSIG= 175.00000
# MAXRES=  27.04586
# SCALE FACTOR FOR LENGTHS: SCL=  10.00000
# SCALE FACTOR FOR SIGMAS: SCLSIG=   1.00000
# CHI^2=   1267.603 DOF=   977 CHI^2/DOF=   1.29744
# RMS=      7.152 SDEV=      7.155 MEAN=    0.10008
#  P #       PARAMETER +-    SIGMA %error PARAMETER NAME
# P 1 =      3015.85439 +-  540.216  17.91 YZERO                              
# P 2 =        -1.52310 +-    0.269  17.65 SLOPE                              
# P 3 =         4.72319 +-    0.313   6.63 ANNUAL AMPLITUDE                   
# P 4 =        -2.73431 +-    0.086   3.16 ANNUAL PHASE                       
#       T            LDETRENDED       SIG_OBS
     2007.90518       -16.46317        15.21548
     2007.90697        -6.48244         6.84002
     2007.90971        -9.45428         6.80585
     2007.91245         1.59189         7.77860
     2007.91518         4.99706         6.82179
     2007.91764         2.36480         7.36171
     2007.92060        15.55032        10.70255
     2007.92340        -1.10843         6.84685
     2007.92648        -7.60174        12.68337
     2007.92813        -0.58122         9.66487
     2007.93241        -2.80270        11.83477
     2007.93435         0.90725         6.84685
     2007.93709        -5.02758         6.71928
     2007.93982        -9.84241         6.62246
     2007.94256        -6.59024         6.74434
     2007.94530         4.11993         7.30134
     2008.00365       -27.42320        13.10937
     2008.00502        -1.65211         7.87200
     2008.00935        17.09949        16.66436
     2008.01095         9.07292         8.37660
     2008.01298        10.22201         9.62728
     2008.01642        -1.68574         6.57804
     2008.01916        -3.00357         6.63157
     2008.02190        -6.30840         6.34339
     2008.02464        -9.24623         6.27277
     2008.02737        -4.94006        11.98171
     2008.02974        -1.84746         7.99388
     2008.04931        -1.38564         6.91520
     2008.05148       -13.26835         8.54974
     2008.06131         3.22063        13.76433
     2008.06297        -1.38285         6.70675
     2008.09650        -8.59677         9.55894
     2008.09856        -7.37164         6.66574
     2008.13806        16.02253        17.14960
     2008.13945        -0.92536         7.35373
     2008.15331        -9.94224         6.61676
     2008.15697         2.34533        11.07844
     2008.15879        -3.01690         6.56437
     2008.16153        -7.50273         6.46641
     2008.16427         6.31544         6.61563
     2008.16703       -14.79135         6.46299
     2008.17077         9.60835        12.45328
     2008.17248        -1.17505         6.67372
     2008.17522        -8.72588         6.69650
     2008.17796        -7.81471         6.43110
     2008.18069       -12.79354         6.61221
     2008.18343         0.14463         6.62246
     2008.18583        -9.68571         8.01211
     2008.18999        -2.38238        13.04786
     2008.19164        -3.36886         6.76484
     2008.19438        -7.72269         6.43452
     2008.19792       -14.93329        19.02334
     2008.20924         9.30794        19.19192
     2008.21081         1.82433         7.00746
     2008.21303        -6.51428         9.12040
     2008.26642         3.28104        10.28566
     2008.26830         1.32390         6.67372
     2008.27104         6.63307        10.35970
     2008.27337        -6.29138         8.26953
     2008.30937         1.89845         7.98477
     2008.31211        -0.15538         7.16693
     2008.31485        -4.48421         6.66119
     2008.31759        -7.71004         6.57006
     2008.32035        -9.04282         6.55526
     2008.32306        -0.60670         6.72725
     2008.32580         6.92547         6.82065
     2008.32854         2.16864         6.56892
     2008.33128        -1.81419         6.59626
     2008.33401        -3.97602         6.49375
     2008.33675        -5.23785         6.53020
     2008.33952        -2.01863         7.05530
     2008.34223        -5.65251         6.49944
     2008.34496        -8.41834         6.76826
     2008.34770         3.67883         6.49716
     2008.35044        -3.28900         6.47552
     2008.35318         1.61017         6.69194
     2008.35592        -1.33466         6.35592
     2008.35868         1.67356         7.10997
     2008.36139        -4.45332         6.86849
     2008.36413        -0.50215         6.45160
     2008.36607        -9.26219        10.45765
     2008.38150         1.43631        12.05119
     2008.38329         5.86104         6.73750
     2008.38603         8.22321         6.43452
     2008.38877         2.12538         6.63499
     2008.39151         0.95555         6.63499
     2008.39425        -3.56928         6.40376
     2008.39701        -1.22406         6.53475
     2008.39972         9.22206         6.58715
     2008.40246        -2.71377         7.30589
     2008.40520        -2.15560         6.58145
     2008.40794        -1.42843         6.50058
     2008.41067         3.88274         6.50741
     2008.41341         2.44291         6.68852
     2008.41618        12.48813         6.73864
     2008.41889        -3.08575         6.63613
     2008.42162        -0.74858         6.57918
     2008.42413        11.01225         7.33209
     2008.42710         5.50776         6.61335
     2008.42984         6.20193         6.72725
     2008.43258        11.48510         6.79446
     2008.43534         4.07132         6.73295
     2008.43805        -4.48056         6.65663
     2008.44079        12.25561         6.68169
     2008.44265       -10.80555        11.00554
     2008.44986        -5.32657        10.96567
     2008.45174        -1.88771         6.86166
     2008.45451        -5.12149         6.75915
     2008.45722        -1.22737         6.59740
     2008.45995        -0.42620         6.50969
     2008.46269        -1.09503         6.66347
     2008.46543         0.16414         6.60082
     2008.46793        -5.73206         7.43005
     2008.47732        19.96226        11.80515
     2008.47912         1.12399         6.67030
     2008.48186         2.66516         6.69422
     2008.48459        -3.29767         6.78990
     2008.48733         2.32950         6.64638
     2008.49007        -1.95833         6.68283
     2008.49267        -5.87237         7.18971
     2008.49636         5.03425        10.56700
     2008.49828        -1.25282         6.77054
     2008.50102       -17.39565        15.62554
     2008.50376        13.25852         6.85141
     2008.50650        13.17869         6.71017
     2008.50924         7.12086         6.70789
     2008.51200         8.40908         6.84457
     2008.51471         3.38620         6.69992
     2008.51745         0.43437         6.58943
     2008.52019         2.40054         6.53361
     2008.52292         3.93171         7.00290
     2008.52566        -5.45812         9.99406
     2008.52840         6.06105         6.66119
     2008.53117         5.33327         6.83432
     2008.53388         8.01239         6.65321
     2008.53661         0.51556         6.72384
     2008.53935         3.29573         6.85824
     2008.54209        -3.28610         6.63955
     2008.54483         8.07007         6.86508
     2008.54757        12.04624         6.81496
     2008.55033         4.45946         6.67827
     2008.55304        10.17158         6.76028
     2008.55578        13.15075         6.76940
     2008.55852         9.61492         6.80129
     2008.56125         0.03909         6.68966
     2008.56399         4.43826         6.55298
     2008.56673         7.77643         6.62018
     2008.56950         6.92965         6.66233
     2008.57221         9.74677         6.78876
     2008.57494         6.27694         6.77851
     2008.57768        16.96312         6.83318
     2008.58042         7.74029         6.54728
     2008.58316         5.18246         6.54614
     2008.58590         5.87463         6.64068
     2008.58772         9.11540        14.24387
     2008.59411         6.96314         6.63043
     2008.59685         1.42731         6.64524
     2008.59958         7.61748         6.95734
     2008.60232        12.71265         7.08492
     2008.60506        13.60482         6.82635
     2008.60783         5.68903         6.76028
     2008.61054        -0.59984         6.70219
     2008.61327         5.43633         6.67827
     2008.61601         9.22250         7.15554
     2008.61875         1.65667         6.59740
     2008.62155         4.28893         6.82179
     2008.62423         7.62701         6.71700
     2008.62699        10.04422         6.81724
     2008.62970        13.61835         7.03594
     2008.63244         7.32952         6.69308
     2008.63518        21.30669         6.81724
     2008.63791        28.77386         6.96304
     2008.64065         7.20603         6.64524
     2008.64339         5.41820         6.72611
     2008.64616        10.57341         6.75801
     2008.64887        14.02454         6.80015
     2008.65160        15.80571         6.76484
     2008.65434        19.11288         6.78762
     2008.65708         9.18305         6.84799
     2008.65982         4.51022         6.71586
     2008.66256        12.79539         6.89811
     2008.66532        11.98460         6.81610
     2008.66803         9.04073         6.82521
     2008.67077         0.30590         6.73523
     2008.67351         5.61407         6.69992
     2008.67624         4.11224         7.15668
     2008.67807         3.36402        12.52731
     2008.68993         7.24709         6.74662
     2008.69267        15.36126         6.90950
     2008.69541         3.64243         6.68625
     2008.69815        11.26960         6.82863
     2008.70089        11.68177         6.86963
     2008.70365         5.45298         6.75117
     2008.70636         4.84011         6.65549
     2008.70910         0.16528         6.66916
     2008.71184         9.48645         6.96076
     2008.71457         2.52862         6.80243
     2008.71731         4.00879         6.60993
     2008.72005         6.59996         6.54159
     2008.72230        10.85439         8.44267
     2008.72650        18.13177        13.16860
     2008.72826         6.68147         6.55981
     2008.73100        10.72164         6.75915
     2008.73374        15.23581         6.82521
     2008.73648         2.21798         6.52564
     2008.73921         7.26415         6.60310
     2008.74469         3.64649         6.56892
     2008.74743         5.88766         6.54045
     2008.75017         4.49983         6.49716
     2008.75290         7.35500         6.59284
     2008.75564        14.82917         6.66347
     2008.75838        22.70834         6.69194
     2008.76115        12.48355         6.75687
     2008.76386         6.58468         7.67381
     2008.76659         7.33485         6.65777
     2008.76933         9.67002         6.80129
     2008.77207         5.65019         6.54728
     2008.77481         4.25936         6.46071
     2008.77754         0.81353         6.42312
     2008.78031         1.59274         6.46299
     2008.78302         1.24287         6.49375
     2008.78576         3.40304         6.54273
     2008.78850         2.54721         6.68169
     2008.79123         0.13638         6.75801
     2008.79397        -1.32645         7.03024
     2008.79671        10.01672         6.65094
     2008.79885         3.90297         8.94157
     2008.80316        -5.50646        13.61055
     2008.80492        12.61923         6.64524
     2008.80766         1.88140         6.42996
     2008.81040         3.42757         6.50855
     2008.81314         9.16674         6.84685
     2008.81587        11.26391         6.52678
     2008.81864         2.38612         6.59284
     2008.82135        -1.92075         6.42768
     2008.82409        -4.56758         6.61676
     2008.82683        -0.36841         6.52792
     2008.82956         5.30176         6.56095
     2008.83230        -1.79707         6.52564
     2008.83504         5.64610         6.45502
     2008.83781        13.73832         7.06327
     2008.84052         6.93444         6.54386
     2008.84325        15.68561         6.47894
     2008.84599         7.73078         6.48008
     2008.84873         1.48595         6.43110
     2008.85147        12.49112         6.55070
     2008.85420        14.79929         6.53589
     2008.85697        16.09850         6.59398
     2008.85968        13.12263         6.61221
     2008.86242        12.35680         6.52222
     2008.86516        23.86197        10.29021
     2008.86789         8.59214         6.51881
     2008.87063        -4.27769         6.56095
     2008.87337        -4.05652         6.47666
     2008.87602        -2.28948         6.87191
     2008.87914        -6.47773         7.66583
     2008.88158        -2.22001         6.48122
     2008.88432         2.29716         6.51881
     2008.88706        -4.73067         6.58943
     2008.88980         0.43750         6.82293
     2008.89253        17.43167         6.89583
     2008.89530         4.31888         6.78307
     2008.89801         0.52601         6.63727
     2008.90075        -4.51982         6.46299
     2008.90331         3.38209         6.94481
     2008.90724        27.86907        16.61766
     2008.90896         7.33369         6.58943
     2008.91170         0.54986         6.65321
     2008.91447         2.91407         6.51539
     2008.91718         5.64320         6.47210
     2008.91991         9.59537         6.55981
     2008.92265         5.38554         6.58145
     2008.92539         2.81371         6.67713
     2008.92813         6.03988         6.59284
     2008.93086        -0.59595         6.59968
     2008.93363         2.25126         6.71244
     2008.93634        17.12339         6.76256
     2008.93908         0.32456         6.58259
     2008.94182        -8.55627         6.36389
     2008.94356        -0.51862        12.61388
     2008.94816        -2.53561        12.64578
     2008.95003        -0.58776         6.57918
     2008.95280        -0.27355         6.56778
     2008.95551        -3.60142         6.56665
     2008.95824        -3.49625         6.52906
     2008.96098        -2.27608         6.49944
     2008.96372        -4.37591         6.45616
     2008.96646        -1.25674         6.71358
     2008.96919       -14.49757         6.34795
     2008.97196        -7.56936         6.33086
     2008.97467        -0.26823         6.24088
     2008.97741         4.67894         6.32289
     2008.98015         6.76711         6.22379
     2008.98288         9.71428         6.21696
     2008.98538         0.32509         7.04960
     2008.98931        13.14307        13.96708
     2008.99113        11.00683         6.72839
     2008.99384        -9.55104         6.28872
     2008.99657       -18.04387         6.23632
     2008.99931        -5.19970         6.29897
     2009.00479         2.57464         6.19418
     2009.00752         1.06781         6.13381
     2009.01029        -4.95598         6.30239
     2009.01300         3.45415         6.21696
     2009.01574        -1.33068         6.17025
     2009.01848        -2.44851         6.28530
     2009.02121        -3.40934         6.78648
     2009.02395       -13.11617         6.60196
     2009.02669       -17.43400         6.39123
     2009.02946       -11.59779         6.74434
     2009.03216       -17.80066         6.48919
     2009.03490       -18.16549         6.54728
     2009.03764       -22.14132         6.59057
     2009.04038       -12.73615         7.26489
     2009.04312       -20.83998         6.52336
     2009.04585       -12.68181         6.61904
     2009.04862       -18.63460         6.58943
     2009.05133       -16.60647         6.51197
     2009.05407       -16.38530         6.48691
     2009.05681       -10.65313         6.49375
     2009.05960        -6.66787         6.68511
     2009.06228       -11.85279         6.58031
     2009.06502       -13.17762         6.56323
     2009.06779       -15.43041         6.58601
     2009.07049       -13.16228         6.55526
     2009.07323        -6.70511         6.55526
     2009.07597        -8.28594         6.56892
     2009.07871       -10.03977         6.53020
     2009.08082       -15.16056         8.49165
     2009.08718        -9.23786         7.13048
     2009.08966       -13.83909         6.46185
     2009.09240       -10.51592         6.52222
     2009.09514        -6.49575         6.54045
     2009.09787        -5.92458         6.46755
     2009.10061         9.63459         6.53703
     2009.10335         1.27076         6.42768
     2009.10612        -3.96003         6.61563
     2009.10882         2.25310         6.57348
     2009.11156        -4.07873         6.51197
     2009.11430        -3.73256         6.69764
     2009.11704        -7.22339         6.49261
     2009.11978         0.79978         6.54842
     2009.12251        -5.05705         6.69536
     2009.12531        -6.80979         6.62929
     2009.12799        -4.76171         6.55298
     2009.13073        -3.70854         6.49944
     2009.13347        -7.27237         6.46869
     2009.13621        -9.72219         6.64980
     2009.13894        -8.00603         6.57348
     2009.14168       -11.58586         6.48463
     2009.14442       -14.47169         6.34909
     2009.14715        -5.06252         6.57120
     2009.14989         6.68365         7.15781
     2009.15263         0.30682         6.72839
     2009.15537         3.50299         6.60651
     2009.15811       -10.66484         6.55526
     2009.16632         2.88667         6.72497
     2009.16906         6.75584         6.82521
     2009.17180         5.89501         6.65663
     2009.17442        -1.70299         6.65663
     2009.17756        -3.16621         7.57015
     2009.18001        -7.49448         6.57576
     2009.18280        -5.35322         6.76256
     2009.18548       -11.40714         6.40034
     2009.18822       -12.59197         6.56665
     2009.19096       -15.31880         8.19891
     2009.19370       -11.07763         6.53134
     2009.19644        -7.11146         6.56323
     2009.19877       -11.30290         7.65103
     2009.20472        -7.90185         6.58601
     2009.20739        -1.06078         6.52450
     2009.21013       -14.02161         7.54509
     2009.21286        -8.39044         6.62360
     2009.21560        -1.23927         6.65891
     2009.21834        -1.58110         6.50514
     2009.22108         6.50007        14.38056
     2009.22381         1.61424         6.47097
     2009.22655        -7.57159         6.59398
     2009.22929         2.63058         6.57576
     2009.23151       -13.82503         8.44039
     2009.23583       -11.92346        14.62887
     2009.23750        -3.87291         6.44932
     2009.24024        11.22026         6.57006
     2009.24298         1.66943         6.64182
     2009.24572        -9.51640         6.49602
     2009.24846        -2.36823         6.54386
     2009.25119         1.52394         6.72497
     2009.25393        -2.77789         6.75459
     2009.25667         0.06228         6.65777
     2009.25941       -12.31655         6.47438
     2009.26214        -7.20438         6.67599
     2009.26488       -10.07521         6.47438
     2009.26762        -0.25804         6.68397
     2009.27036        -3.02587         6.63157
     2009.27310        -9.48770         6.66233
     2009.27583        -1.34453         6.58259
     2009.27858        -2.94635         6.72611
     2009.28131        -1.29919         6.87191
     2009.28405         2.52798         6.75345
     2009.28679        -2.92085         6.64296
     2009.28952       -14.48268         6.45502
     2009.29226       -13.22751         6.69308
     2009.29417        -7.86860        10.77431
     2009.29788        -6.55094         7.15440
     2009.30047       -10.84300         6.58829
     2009.30321        -7.69983         6.52792
     2009.30595        -8.24366         6.53247
     2009.30869        -3.24249         6.49261
     2009.31143        -9.24632         6.46869
     2009.31416        -5.82115         6.47210
     2009.31690        -6.35898        10.17517
     2009.31964        -6.77481         6.46983
     2009.32238        -3.92064         6.51425
     2009.32512        -8.95147         6.58259
     2009.32785        -8.15130         6.57690
     2009.33059        -6.01613         6.52792
     2009.33333        -0.32896         6.46983
     2009.33607         7.73921         6.65207
     2009.33880        -4.55562         6.44591
     2009.34154         1.08955         6.68852
     2009.34428        -8.25028         6.47324
     2009.34702        -3.59511         6.45730
     2009.34976       -10.89894         6.41287
     2009.35249       -11.84377         6.40718
     2009.35523       -12.64860         6.41971
     2009.35797        -0.41143         6.52450
     2009.36071        -6.82126         6.50969
     2009.36344        -7.26609         6.41857
     2009.36618         5.43408         6.53817
     2009.36892        -7.05675         6.42654
     2009.37166       -11.09958         6.53589
     2009.37440       -10.29840         6.55639
     2009.37713       -14.29024         6.43224
     2009.37987         1.70493         6.97329
     2009.38261         1.11910         6.73523
     2009.38535        -7.13173         6.43565
     2009.38809        -8.32056         6.57120
     2009.39082        -9.48139         6.48349
     2009.39357        -9.70421         6.55639
     2009.39630       -19.07205         7.75810
     2009.39904        -0.30788         6.77851
     2009.40177        -4.70371         6.50855
     2009.40451        -4.39254         6.45160
     2009.40725        -1.85037         6.39009
     2009.40999        -2.67120         6.52222
     2009.41273        -0.27302         6.68169
     2009.41546        -3.40786         6.85710
     2009.41820        -1.25469         6.64068
     2009.42094       -10.79952         6.44591
     2009.42368       -10.92235         6.51539
     2009.42642         0.60482         6.75687
     2009.42915         2.29199         7.94034
     2009.43190        -6.23183         6.53703
     2009.43463        -4.09667         6.51539
     2009.43737        -1.99350         6.64296
     2009.44010        -9.05133         6.55981
     2009.44284         0.00184         6.76370
     2009.44558        -3.46099         6.67258
     2009.44832         2.96318         6.78876
     2009.45106         4.09236         6.85369
     2009.45379        -3.52348         6.54159
     2009.45653        -2.25531         6.65094
     2009.45927         1.93486         6.77851
     2009.46201         7.93803         6.59170
     2009.46475         0.79920         6.68852
     2009.46748        11.96737         6.75231
     2009.47022        -0.85646         6.56892
     2009.47296         1.20471         6.46185
     2009.47570        -2.55512         6.56892
     2009.47843         4.25305         6.72953
     2009.48117        -6.50078         7.15326
     2009.48391         1.28539         6.66460
     2009.48665        -7.78144         6.55981
     2009.49040        -8.39772        13.04331
     2009.49212        -2.31610         6.74434
     2009.49486        -4.53793         6.70447
     2009.49760        -9.58476         6.91747
     2009.50034        -5.97959         6.47666
     2009.50308        -6.97442         7.42549
     2009.50581        -3.02225         6.59398
     2009.50856        -1.15107         6.75573
     2009.51129         9.65809         6.95165
     2009.51403        -2.07074         6.45274
     2009.51676        -4.21657         6.65094
     2009.51950        -6.15740         6.49830
     2009.52224        -4.44823         6.63613
     2009.52498        -5.00006         6.54386
     2009.52772        -0.34588         6.70903
     2009.53028         0.13402         7.18515
     2009.53399        -4.65432        10.27996
     2009.53593        -4.71638         6.55184
     2009.53835        -7.75968         7.44372
     2009.54168        -2.55062         6.92089
     2009.54414        -3.16187         6.50969
     2009.54651        -4.10226         7.99502
     2009.54973         1.98565         7.00518
     2009.55236        -4.34636         6.50514
     2009.55509         4.72181         6.44591
     2009.55783         4.38698         6.59284
     2009.56057         6.38815         7.05188
     2009.56331       -11.95268         6.85255
     2009.56605        -7.38350         6.90608
     2009.56878        -6.14534         6.55639
     2009.57152         8.85483         6.78307
     2009.57426         5.02000         6.78648
     2009.57700         1.35317         6.71928
     2009.57974        -0.47666         6.72042
     2009.58247        -2.10749         6.59626
     2009.58521         6.69568         6.69080
     2009.58795         5.98385         6.71472
     2009.59069         8.44002         6.84344
     2009.59342         2.55819         6.84344
     2009.59616         2.61436         6.59512
     2009.59890        10.76253         6.62929
     2009.60164         0.69970         6.57234
     2009.60438        -1.94013         7.13276
     2009.60711         2.44604         6.81382
     2009.60985        -3.72179         6.65207
     2009.61259         6.86238         6.75117
     2009.61533        13.16555         6.83774
     2009.61807         0.52572         6.65094
     2009.62080         0.65589         6.80015
     2009.62355        -2.54193         6.68397
     2009.62628        -2.72977         6.64296
     2009.62902         2.39240         6.89583
     2009.63175         0.03357         6.67144
     2009.63449        -2.45226         6.99265
     2009.63723         8.04991         7.04391
     2009.63997         1.71108         6.86280
     2009.64271         0.34226         6.97784
     2009.64544         0.31142         6.67030
     2009.64818         3.24359         6.81268
     2009.65092        -3.08124         6.78534
     2009.65366        -8.73207         6.66688
     2009.65639        -8.41590         6.59170
     2009.65913        -7.35073         6.54728
     2009.66188        -1.38555         6.60196
     2009.66461        -1.41839         6.70561
     2009.66735         6.19278         6.86052
     2009.67008         0.01695         6.82065
     2009.67282        -3.76588         6.77395
     2009.67556         0.57029         6.62815
     2009.67830         2.57846         6.90722
     2009.68104        10.66364         6.94139
     2009.68377        -7.27720         6.72497
     2009.68651         1.35197         6.62588
     2009.68925        -1.20586         6.64182
     2009.69199        -4.17369         6.55526
     2009.69472        -3.38452         6.65435
     2009.69746        -3.12735         6.64752
     2009.70123       -13.24861        15.06627
     2009.70294         5.51100         6.71244
     2009.70568        -4.28783         6.56209
     2009.70841        -4.52666         6.61107
     2009.71115        13.62451         6.95734
     2009.71389        -7.05632         6.87647
     2009.71663        -2.30215         6.73409
     2009.71937         4.18302         6.84457
     2009.72210        -8.64781         6.60651
     2009.72484        -6.47264         6.74320
     2009.72758        -5.26047         6.80129
     2009.73032        -4.83930         6.58715
     2009.73305         1.25087         6.86622
     2009.73579        11.98104         6.78420
     2009.73854        -1.15979         6.55184
     2009.74127         3.22238         6.75687
     2009.74401         9.81355         6.78648
     2009.74674         2.26772         6.66802
     2009.74948         2.50989         6.59170
     2009.75222         3.00206         6.66233
     2009.75496         2.85323         6.69422
     2009.75770         0.41340         7.12934
     2009.76043        -2.70943         6.55184
     2009.76317        -0.49726         6.63955
     2009.76591        -1.71609         6.63157
     2009.76865         0.17308         6.77737
     2009.77138         3.26025         6.65549
     2009.77412        -2.72858         6.58715
     2009.77687        -4.11841         6.58031
     2009.77917        11.03010         7.79568
     2009.78231         6.32789         7.25236
     2009.78454        19.90828         8.50532
     2009.79142       -22.80623        12.74260
     2009.79329        -3.70639         6.82293
     2009.79603         0.34078         6.96987
     2009.79876         9.28795         6.80129
     2009.80150         4.87512         6.96418
     2009.80424         9.61629         6.93570
     2009.80698        14.27446         7.06100
     2009.80971         7.70563         6.88786
     2009.81245        22.59680         7.22388
     2009.81519         7.19797         6.89014
     2009.81793        13.27214         6.91975
     2009.82067         9.27131         6.84685
     2009.82340         5.45248         6.78307
     2009.82614         2.69065         6.72839
     2009.82888         5.95382         7.61344
     2009.83162        10.92299         6.98012
     2009.83436         0.96516         6.76484
     2009.83709         0.05433         7.06213
     2009.83983        -1.14550         6.73523
     2009.84257         2.61667         6.78307
     2009.84531        -0.45516         6.91634
     2009.84804        16.70001         6.94481
     2009.85078         3.31918         6.77737
     2009.85352         5.63435         6.74320
     2009.85626         3.40752         6.90381
     2009.85900         1.16169         7.00404
     2009.86123        -3.75792         8.22625
     2009.89559         3.61742        15.26560
     2009.89733        -2.93593         6.63271
     2009.90006        -2.59476         6.69878
     2009.90280        -1.93259         6.72725
     2009.90554        10.16258         6.73067
     2009.90828         0.51575         6.67144
     2009.91102        -0.81508         6.57576
     2009.91375         0.00309         6.67713
     2009.91649         2.31226         6.68397
     2009.91923        -6.92557         6.71472
     2009.92197        -8.27640         6.76940
     2009.92470       -11.82423         6.60082
     2009.92744        -7.57906         6.68739
     2009.93018        -5.21889         6.69878
     2009.93292        -3.76772         6.80471
     2009.93566        -3.70155         6.75687
     2009.93789        -2.34215         8.38799
     2009.94387        -6.31204         6.62246
     2009.94661         0.68513         6.89583
     2009.94935        -1.43170         6.67030
     2009.95208       -11.52553         6.50286
     2009.95482       -15.45636         6.47552
     2009.95756         4.56181         6.66574
     2009.96030         0.24998         6.78534
     2009.96303        -7.67685         6.73067
     2009.96577        -6.79668         6.69536
     2009.96851         3.00449         6.80243
     2009.97125         4.04466         6.73523
     2009.97399         2.90783         6.75801
     2009.97672        -4.03600         6.78876
     2009.97946       -13.12383         6.78648
     2009.98220       -10.24066         6.73978
     2009.98494        -9.11149         6.68055
     2009.98768        -6.37332         6.67827
     2009.99041       -10.18715         6.56437
     2009.99315        -8.48698         6.65207
     2009.99589        -1.23681         6.74776
     2009.99863       -10.94264         6.65549
     2010.00410        -4.27230         6.61790
     2010.00684       -11.49213         6.52222
     2010.00958        -1.14296         6.79446
     2010.01232         5.10121         6.72953
     2010.01505       -10.06962         6.55867
     2010.01779       -10.38245         6.74776
     2010.02053        -7.82328         6.72384
     2010.02327        -9.43411         6.84230
     2010.02601        -9.92893         6.68625
     2010.02874         1.66423         6.83888
     2010.03148        -2.72560         6.59740
     2010.03422        -1.30943         6.74434
     2010.03696         6.93474         7.25008
     2010.03969         2.56791         6.95620
     2010.04243         3.55308         6.57234
     2010.04517        10.65226         6.61335
     2010.04791        17.12542         6.84230
     2010.05065         4.14459         6.84116
     2010.05338         5.29676         6.90722
     2010.05612        -0.01207         6.51197
     2010.05886        -0.58490         6.40832
     2010.06160         0.11127         6.62815
     2010.06434        -4.26555         6.54273
     2010.06707         3.01461         6.72839
     2010.06981        -2.97522         6.73409
     2010.07255        -4.87705         6.73523
     2010.07529        -7.60488         6.84230
     2010.07802       -10.07171         6.47780
     2010.08076       -10.73154         6.69878
     2010.08361        -9.98720        11.12172
     2010.08624         2.35980         6.44249
     2010.08898         5.60097         6.62815
     2010.09171         7.23214         6.50855
     2010.09445         0.37131         6.55298
     2010.09719         0.61348         6.66347
     2010.09993        -0.93635         6.42996
     2010.10267        -3.19217         6.58829
     2010.10540        -5.22801         6.62018
     2010.10814        -3.33284         6.55412
     2010.11088        -5.58367         6.67372
     2010.11362         4.22150         6.55981
     2010.11635         7.20767         6.42882
     2010.11909         4.98184         6.55526
     2010.12183        -2.02498         6.55867
     2010.12457        13.07718         6.59512
     2010.12731        -0.52665         6.66916
     2010.13004        -2.65948         6.56665
     2010.13278        -9.98531         6.54500
     2010.13552        -5.39314         6.56665
     2010.13826        -2.43297         6.45730
     2010.14100        -8.28079         6.40832
     2010.14373        -7.85363         6.57120
     2010.14647        -8.32846         6.61335
     2010.14921        -0.99429         6.54500
     2010.15195         3.13288         6.63499
     2010.15468        -0.33895         6.53475
     2010.15742         2.11222         6.46527
     2010.16016        -0.69760         6.40376
     2010.16290        -7.19144         6.48463
     2010.16564         0.12573         6.60423
     2010.16837        -3.74310         6.36731
     2010.17111         1.63007         6.46869
     2010.17385        -4.73376         6.36389
     2010.17659        -9.12359         6.37642
     2010.17932         2.86858         6.56551
     2010.18206         3.12775         6.46527
     2010.18480         4.45592         6.49602
     2010.18754         0.86709         6.57576
     2010.19028        -0.85174         6.39465
     2010.19247         9.84160         8.86867
     2010.19965       -19.26546        18.13374
     2010.20123       -11.58906         6.43110
     2010.20397        -9.16589         6.48122
     2010.20670        -6.66572         6.64638
     2010.20944        -6.90955         6.44249
     2010.21218        -4.47338         6.81382
     2010.21492        -5.25821         6.40832
     2010.21766        -6.89603         6.41515
     2010.22039         3.65013         6.46527
     2010.22313        -6.53970         6.47666
     2010.22587        -5.34053         6.67486
     2010.22861        -3.89536         6.50400
     2010.23134        -1.76119         6.62474
     2010.23408       -11.64902         6.55526
     2010.23956        10.08232         6.64866
     2010.24230         2.43949         6.69764
     2010.24447        -5.84820         8.75932
     2010.25972        11.14203        13.03875
     2010.26146         1.54568         6.69422
     2010.26420        -2.75715         6.68511
     2010.26694         5.73502         6.70561
     2010.26967         1.29619         6.69080
     2010.27241        -3.08364         6.62702
     2010.27515        -0.13146         6.62246
     2010.27789        -3.91030         6.65891
     2010.28062        12.94987         7.15212
     2010.28336         0.24204         6.70333
     2010.28610        -4.64479         6.59398
     2010.28884        -4.41562         6.41173
     2010.29158         2.16155         6.66005
     2010.29432         3.66073         6.68055
     2010.29705        -3.26111         6.44705
     2010.29979        -0.94394         8.41305
     2010.30253         2.76423         6.49716
     2010.30527         9.54340         6.77737
     2010.30800        -1.12043         7.76835
     2010.31074         0.11674         6.59170
     2010.31348        -0.76508         6.61563
     2010.31622        -1.63992         6.40946
     2010.31895        13.22625         6.71017
     2010.32169         9.80042         6.47552
     2010.32443        10.84959         6.57918
     2010.32717         7.94876         6.67713
     2010.32991        11.08093         6.51425
     2010.33242         5.92576         7.22502
     2010.33618        17.29048        10.41323
     2010.33812        -2.24456         6.44477
     2010.34086        -6.15339         6.44021
     2010.34360         3.45178         6.59512
     2010.34633        -2.93405         6.47552
     2010.34907         7.43712         6.80243
     2010.35181        -1.29770         6.41515
     2010.35449        -6.84963         6.57462
     2010.35728        -3.95937         7.24552
     2010.36002        -0.65920         6.60537
     2010.36276         3.17097         6.58943
     2010.36550        -4.02286         6.80129
     2010.36824        -1.43169         6.66916
     2010.37098        -2.23251         6.38781
     2010.37371         3.42765         6.40832
     2010.37645        11.43182         6.48805
     2010.37919         0.96099         6.68511
     2010.38193         2.31016         6.78534
     2010.38466        -1.33867         6.52336
     2010.38740         3.84750         6.54273
     2010.39014         2.72667         6.52678
     2010.39288        -0.77316         6.64524
     2010.39561        -4.31899         6.33542
     2010.39835        -6.08082         6.34111
     2010.40109         2.08135         6.37984
     2010.40383         5.89152         6.43679
     2010.40657        -4.63531         6.40832
     2010.40931        -0.38813         6.50969
     2010.41204         5.88403         6.42996
     2010.41478        13.72720         6.46983
     2010.41752        15.45837         6.58601
     2010.42026         5.23954         6.43679
     2010.42299        11.22671         6.38098
     2010.42573        -5.83112         6.34111
     2010.42847         2.21606         6.54728
     2010.43121        10.80722         6.82293
     2010.43394        -3.01461         6.42312
     2010.43668         2.49156         6.55867
     2010.43942         3.62373         6.42540
     2010.44216        -5.47410         6.33542
     2010.44490        -5.46993         6.38326
     2010.44764        -8.12475         6.34339
     2010.45037        -5.19059         6.52450
     2010.45311        -2.76842         6.41971
     2010.45564        -0.46957         7.03138
     2010.45859         8.50693         6.44932
     2010.46132         6.33009         6.63271
     2010.46406        -2.59074         6.42882
     2010.46680         2.89544         6.52792
     2010.46954        -7.98940         6.51653
     2010.47227        -5.62923         6.37187
     2010.47501        -8.48806         6.33656
     2010.47775        -2.70989         6.67258
     2010.48049        -8.15072         6.48919
     2010.48323        -1.44955         6.39237
     2010.48597        -1.00437         6.31150
     2010.48870        -2.56421         6.33656
     2010.49144         4.47396         6.49147
     2010.49418        -0.23187         6.39465
     2010.49692        -0.88370         6.35820
     2010.49965         0.16347         8.88348
     2010.50239         5.34164         6.39579
     2010.51060       -11.77585         6.74776
     2010.51334        -3.34168         6.55639
     2010.51608        -0.40851         6.63841
     2010.51882        -1.90034         6.40376
     2010.52156        -2.01517         6.50628
     2010.52430         5.37001         6.43679
     2010.52703        18.68317         6.80129
     2010.52977         1.25134         6.33997
     2010.53251        -1.96349         6.44363
     2010.53525        -3.11732         6.43907
     2010.53798        -0.91515         6.38212
     2010.54072        -7.51598         6.40490
     2010.54346         1.00920         6.39237
     2010.54620         0.05836         6.50741
     2010.54893        -6.40647         6.65207
     2010.55167        -5.55430         7.29678
     2010.55441         3.45187         6.39579
     2010.55715         3.57004         6.52450
     2010.55989         0.85621         6.55981
     2010.56263         5.44339         6.52450
     2010.56536        -1.46945         6.60537
     2010.56810         0.83072         6.38326
     2010.57084         4.95389         6.67827
     2010.57357        -2.43394         6.66233
     2010.57631         8.67023         6.80926
     2010.57905        14.75140         6.51653
     2010.58179         7.39857         6.65321
     2010.58453        -3.88526         6.37415
     2010.58726         0.00791         6.79104
     2010.59000        -3.80792         6.53817
     2010.59274         0.66225         6.87647
     2010.59553        15.51851         6.86736
     2010.59822         6.76359         6.92089
     2010.60096         7.90677         6.68169
     2010.60369         4.41893         6.57006
     2010.60637         6.22602         6.57804
     2010.60917         3.05427         6.81838
     2010.61135         7.80460         8.74566
     2010.63207         9.30515        12.91231
     2010.63381         5.94480         6.61676
     2010.63655         4.18497         6.46185
     2010.63929        -0.04785         6.50855
     2010.64199        -0.98273         6.66347
     2010.64479        -7.98747         7.06897
     2010.64750        -5.91535         6.36731
     2010.65023         7.28982         7.00632
     2010.65297         3.46799         6.98240
     2010.65571         0.21216         6.51083
     2010.65845         3.00734         6.83318
     2010.66119         1.34350         6.43907
     2010.66392         7.08067         6.84685
     2010.66666        12.01584         6.64068
     2010.66940        -2.82699         6.60879
     2010.67214        -1.96082         7.18743
     2010.67488         6.68135         6.57348
     2010.67762         4.55153         6.60993
     2010.68044         6.02182         6.85141
     2010.68309        11.05986         6.40034
     2010.68583         8.39603         6.89014
     2010.68845        -3.40997         6.65777
     2010.69131        -2.16862         6.46071
     2010.69404        -1.18146         6.82179
     2010.69678        -7.11428         6.54956
     2010.69952         1.19788         6.56437
     2010.70225         2.82105         6.61790
     2010.70499        -1.40378         6.79332
     2010.70773         7.33239         6.42996
     2010.71047        14.27456         7.02796
     2010.71321        10.97873         6.57006
     2010.71595        24.78191         6.63613
     2010.71868        17.23107         6.72725
     2010.72039        21.45068        13.30301
     2010.72518       -13.27903        14.87149
     2010.72689         8.12458         6.55867
     2010.72958         9.73067         6.56209
     2010.73240         2.06297         6.77395
     2010.73511         0.35110         6.53020
     2010.73785         5.87726         6.84002
     2010.74058         2.62943         6.87305
     2010.74332         5.90960         6.51539
     2010.74606        -1.87023         6.92317
     2010.74880         6.87194         6.55298
     2010.75154         7.74311         6.69308
     2010.75428        10.81029         6.84344
     2010.75701        14.95545         6.69992
     2010.75975         3.61462         6.68625
     2010.76249         4.53379         6.47666
     2010.76522         9.59596         6.73295
     2010.76796        19.04713         6.85710
     2010.77070         7.61230         6.60651
     2010.77339        12.74639         6.90267
     2010.77618         6.14564         6.64980
     2010.77891        -3.05019         6.68966
     2010.78165         1.88598         6.74662
     2010.78439         6.79615         6.59284
     2010.78713        12.17732         7.05872
     2010.78987         8.29149         6.78193
     2010.79261         7.05867         6.46983
     2010.79534         5.58483         6.87761
     2010.79808         1.82100         6.40946
     2010.80082         1.08617         6.52222
     2010.80355         5.16634         6.66460
     2010.80629         8.64451         6.42426
     2010.80903         9.18668         6.69080
     2010.81177        18.97386         6.77737
     2010.81451        20.11902         6.75573
     2010.81724         6.53919         6.63841
     2010.81998         3.91436         6.43338
     2010.82272         2.21154         6.63727
     2010.82546        18.61471         6.51767
     2010.82820        18.61288         6.48236
     2010.83094        17.65505         6.62588
     2010.83367         2.19022         6.63271
     2010.83641         1.44939         6.43110
     2010.83915         4.25856         6.50058
     2010.84188        -1.78127         6.34795
     2010.84462         5.33790         6.42426
     2010.84736         6.03907         6.32289
     2010.85010        12.94824         6.45616
     2010.85284        14.25641         6.42426
     2010.85557         7.17558         6.33770
     2010.85831         5.29575         6.41515
     2010.86105         1.03892         6.67258
     2010.86379        -0.87691         6.38668
     2010.86653        -3.41474         6.39465
     2010.86927         7.83943         6.51653
     2010.87200         4.79360         6.39693
     2010.87480        11.61485         6.76940
     2010.87748         3.67194         6.61563
     2010.88021         5.63211         6.38668
     2010.88295         6.56328         6.43338
     2010.88569         2.65345         6.28530
     2010.88843        -1.28338         6.60765
     2010.89117        -0.74221         6.68739
     2010.89390         0.98496         6.41287
     2010.89664        -2.40787         6.29099
     2010.89938        -4.57170         6.17139
     2010.90212        -9.54453         6.11216
     2010.90485         8.44964         6.44249
     2010.90759         1.27581         6.49147
     2010.91033        -5.97202         6.19531
     2010.91307       -14.99885         6.08255
     2010.91581        -5.02068         6.21582
     2010.91854        11.82549         6.60537
     2010.92128        -5.04734         6.58487
     2010.92402       -18.47017         6.49261
     2010.92676       -11.89500         6.29555
     2010.92950       -16.64983         6.23062
     2010.93223       -15.78266         6.29669
     2010.93497        -6.11549         6.99835
     2010.93771         5.44668         6.55184
     2010.94045         0.31085         6.51653
     2010.94318         5.17102         6.44705
     2010.94593         7.73519         6.42426
     2010.94866         4.49136         6.37073
     2010.95140         1.98353         6.50628
     2010.95363         5.78593         7.84580
